File: Example Data/Raman/CNT - TIM/Raytheon/Al foil/2010/07-07-10/Cu Batch 1 - bottom.txt
300	27.0911
301.529	30.6346
303.058	23.2367
304.586	27.9803
306.115	22.5344
307.644	29.3935
309.173	27.2109
310.701	32.4248
312.23	29.9402
313.759	30.0021
315.288	26.5308
316.817	33.3858
318.345	28.2292
319.874	33.355
321.403	25.0235
322.932	18.154
324.46	29.4763
325.989	29.3505
327.518	26.0196
329.047	27.4725
330.576	27.1214
332.104	26.6011
333.633	20.7017
335.162	20.2088
336.691	21.998
338.219	30.9834
339.748	25.9006
341.277	24.2841
342.806	31.6991
344.335	26.3066
345.863	23.5505
347.392	22.9308
348.921	22.5831
350.45	23.9436
351.978	22.7277
353.507	24.0068
355.036	26.3687
356.565	23.2233
358.094	18.8358
359.622	19.1
361.151	16.6423
362.68	19.3552
364.209	21.1996
365.737	15.7834
367.266	18.5612
368.795	20.4089
370.324	19.1561
371.853	21.7055
373.381	24.7873
374.91	21.3885
376.439	18.6285
377.968	15.4708
379.496	15.4724
381.025	18.8153
382.554	18.915
384.083	14.74
385.612	15.8324
387.14	21.6663
388.669	20.5304
390.198	27.7112
391.727	19.9672
393.255	14.8295
394.784	9.97221
396.313	20.8225
397.842	19.1266
399.371	13.7509
400.899	13.3468
402.428	17.6789
403.957	23.7291
405.486	19.6622
407.014	19.9927
408.543	18.6127
410.072	18.7524
411.601	16.0592
413.129	10.5796
414.658	12.8849
416.187	14.2417
417.716	5.76246
419.245	23.0242
420.773	13.7728
422.302	11.0599
423.831	13.8481
425.36	12.8401
426.888	10.7059
428.417	15.3527
429.946	21.016
431.475	9.67634
433.004	12.3451
434.532	5.73131
436.061	8.43518
437.59	7.10208
439.119	7.6243
440.647	14.845
442.176	14.7449
443.705	9.54683
445.234	11.5598
446.763	13.6982
448.291	10.9433
449.82	14.6816
451.349	3.35271
452.878	6.90733
454.406	3.48202
455.935	13.8561
457.464	7.09976
458.993	13.2771
460.522	6.78353
462.05	4.33744
463.579	4.55659
465.108	7.30366
466.637	10.4632
468.165	8.72401
469.694	5.33708
471.223	6.59212
472.752	8.40283
474.281	7.20122
475.809	4.46289
477.338	4.1665
478.867	7.2493
480.396	9.40937
481.924	1.92841
483.453	2.84931
484.982	9.70621
486.511	9.07367
488.04	4.95962
489.568	-0.0422564
491.097	1.76677
492.626	1.55971
494.155	-0.101212
495.683	2.31228
497.212	-0.242114
498.741	0.595615
500.27	-2.11832
501.799	0.0603241
503.327	-2.11763
504.856	4.97325
506.385	0.174418
507.914	0.286875
509.442	2.54605
510.971	-6.95859
512.5	-1.13683
514.029	6.23364
515.558	1.38592
517.086	-1.09304
518.615	-0.331368
520.144	0.0728179
521.673	-2.69116
523.201	-3.98806
524.73	-3.91293
526.259	-2.23672
527.788	-1.19017
529.317	-2.22958
530.845	-5.9211
532.374	-6.07532
533.903	0.164561
535.432	-1.40195
536.96	0.744404
538.489	1.64091
540.018	-6.19708
541.547	-5.93387
543.076	-2.91344
544.604	-1.25723
546.133	-6.14113
547.662	1.06996
549.191	-3.10156
550.719	-9.58092
552.248	-2.67538
553.777	-5.69722
555.306	-3.99354
556.835	-6.74356
558.363	-6.45352
559.892	-1.18159
561.421	-7.50734
562.95	-5.34789
564.478	0.287375
566.007	-1.80716
567.536	0.560097
569.065	-0.400925
570.594	0.533729
572.122	-7.94748
573.651	-0.126454
575.18	-1.64195
576.709	-1.62555
578.237	-1.00571
579.766	-5.83493
581.295	-2.94064
582.824	-4.20826
584.353	-2.75714
585.881	-3.16876
587.41	-4.9639
588.939	-5.0468
590.468	0.144826
591.996	-6.24946
593.525	-9.3985
595.054	-2.84537
596.583	-7.01196
598.112	-1.46253
599.64	-7.56893
601.169	-1.38616
602.698	3.44979
604.227	-3.4103
605.755	-1.68372
607.284	-3.02351
608.813	-0.403366
610.342	0.374638
611.87	-2.48329
613.399	-0.308592
614.928	-1.57328
616.457	1.36293
617.986	-0.586054
619.514	-2.071
621.043	-3.98127
622.572	-4.80212
624.101	-2.35078
625.63	-8.15448
627.158	-3.87122
628.687	-4.47357
630.216	-6.5841
631.745	-2.25002
633.273	-2.19835
634.802	-6.50783
636.331	-1.63444
637.86	-1.57604
639.388	-2.13044
640.917	-4.86481
642.446	-0.699567
643.975	-5.98659
645.504	4.27847
647.032	-0.0175231
648.561	4.54875
650.09	-3.29341
651.619	-0.942013
653.147	0.598932
654.676	-6.13697
656.205	2.84614
657.734	-0.787657
659.263	-4.52841
660.791	-0.817457
662.32	2.89243
663.849	3.50608
665.378	5.77952
666.906	3.51344
668.435	3.13103
669.964	-2.68172
671.493	-1.8506
673.022	0.850153
674.55	7.4707
676.079	1.88795
677.608	1.00894
679.137	4.05215
680.665	-0.65037
682.194	-0.183925
683.723	-0.326714
685.252	-3.10545
686.781	-1.64262
688.309	0.225019
689.838	0.409577
691.367	-1.85059
692.896	1.20164
694.424	-1.79601
695.953	4.30291
697.482	1.59822
699.011	1.88057
700.54	-1.38342
702.068	4.85037
703.597	1.88425
705.126	12.1476
706.655	0.661622
708.183	-0.807335
709.712	6.43771
711.241	4.30928
712.77	5.74113
714.299	-0.853948
715.827	0.824493
717.356	5.432
718.885	-8.86357
720.414	6.0765
721.942	8.09362
723.471	2.81944
725	-1.14515
726.529	9.52775
728.058	11.7144
729.586	8.39512
731.115	2.17809
732.644	1.77237
734.173	8.07493
735.701	8.23781
737.23	4.8414
738.759	12.8351
740.288	6.47367
741.817	13.7952
743.345	11.5952
744.874	10.1004
746.403	11.93
747.932	7.61577
749.46	13.1559
750.989	2.89876
752.518	2.91786
754.047	2.87421
755.576	6.03942
757.104	15.8636
758.633	11.8749
760.162	11.8395
761.691	16.3586
763.219	7.69894
764.748	14.8095
766.277	9.85447
767.806	11.5896
769.335	9.13509
770.863	7.85136
772.392	15.5614
773.921	8.2541
775.45	11.2131
776.978	13.3664
778.507	15.3707
780.036	13.4492
781.565	15.0651
783.094	17.072
784.622	13.026
786.151	18.897
787.68	14.8717
789.209	9.55326
790.737	4.9221
792.266	16.4549
793.795	12.2773
795.324	18.4609
796.853	10.3868
798.381	14.8831
799.91	22.8722
801.439	14.9575
802.968	14.2225
804.496	18.2334
806.025	22.1829
807.554	22.9669
809.083	20.3474
810.612	22.8054
812.14	17.0979
813.669	21.8246
815.198	13.3595
816.727	17.348
818.255	23.7655
819.784	21.9081
821.313	16.8314
822.842	17.2757
824.37	18.5524
825.899	20.3662
827.428	22.8542
828.957	24.9579
830.486	20.2751
832.014	18.6042
833.543	22.3024
835.072	21.0171
836.601	23.5474
838.13	28.1508
839.658	24.3766
841.187	20.3044
842.716	25.3274
844.245	18.1026
845.773	23.2755
847.302	19.1744
848.831	16.8832
850.36	20.2896
851.888	26.1399
853.417	21.053
854.946	20.3844
856.475	28.059
858.004	20.7085
859.532	19.4104
861.061	23.8062
862.59	22.4957
864.119	21.1223
865.647	24.674
867.176	16.4138
868.705	15.8991
870.234	14.3848
871.763	26.3982
873.291	19.4854
874.82	16.1228
876.349	11.2307
877.878	8.86436
879.406	18.057
880.935	17.3317
882.464	16.5047
883.993	11.2801
885.522	11.2413
887.05	16.1588
888.579	12.7479
890.108	17.5514
891.637	17.5235
893.165	11.9903
894.694	10.9797
896.223	12.8169
897.752	11.9692
899.281	3.51607
900.809	14.0195
902.338	6.25213
903.867	6.10704
905.396	8.96405
906.924	13.6041
908.453	11.6519
909.982	13.8512
911.511	1.57552
913.04	10.154
914.568	19.4038
916.097	4.80957
917.626	9.07493
919.155	6.96225
920.683	5.48702
922.212	10.191
923.741	10.9042
925.27	5.0583
926.799	7.98704
928.327	10.756
929.856	11.3899
931.385	10.8203
932.914	12.4578
934.442	5.39186
935.971	12.0233
937.5	7.15059
939.029	8.03061
940.558	13.0937
942.086	4.96742
943.615	6.17271
945.144	5.77387
946.673	3.81263
948.201	5.00819
949.73	9.74368
951.259	15.2085
952.788	8.81195
954.317	7.18032
955.845	8.75965
957.374	8.78392
958.903	8.90215
960.432	6.15417
961.96	3.36805
963.489	3.07561
965.018	3.48202
966.547	10.3966
968.076	2.04543
969.604	0.357129
971.133	1.59413
972.662	5.30494
974.191	1.88019
975.719	7.70842
977.248	11.1491
978.777	6.45512
980.306	0.477706
981.835	-1.1335
983.363	6.87268
984.892	7.95333
986.421	5.58821
987.95	4.68046
989.478	2.94932
991.007	6.8127
992.536	-0.882551
994.065	8.00622
995.594	5.8157
997.122	5.71864
998.651	3.6581
1000.18	7.88711
1001.71	3.60386
1003.24	0.330311
1004.77	6.84311
1006.29	4.74867
1007.82	-4.57449
1009.35	2.95243
1010.88	-0.189937
1012.41	1.46691
1013.94	11.7395
1015.47	1.69152
1017	6.00133
1018.53	7.74091
1020.05	-0.154107
1021.58	0.764288
1023.11	5.9316
1024.64	9.63659
1026.17	10.9205
1027.7	6.85379
1029.23	5.7367
1030.76	4.55236
1032.28	15.6666
1033.81	3.89345
1035.34	1.85371
1036.87	1.39757
1038.4	16.6275
1039.93	12.315
1041.46	22.0007
1042.99	5.69044
1044.51	10.3495
1046.04	9.61832
1047.57	9.69287
1049.1	13.3413
1050.63	13.9392
1052.16	15.6008
1053.69	10.6935
1055.22	14.4993
1056.74	6.12686
1058.27	12.743
1059.8	13.3114
1061.33	13.9912
1062.86	9.95049
1064.39	18.9317
1065.92	7.48287
1067.45	9.3465
1068.97	14.1734
1070.5	12.216
1072.03	9.66189
1073.56	10.7384
1075.09	20.1444
1076.62	11.4897
1078.15	14.6374
1079.68	6.9509
1081.21	7.70559
1082.73	12.931
1084.26	16.8862
1085.79	7.97851
1087.32	12.4709
1088.85	13.4964
1090.38	5.75853
1091.91	7.53219
1093.44	14.0611
1094.96	9.92203
1096.49	11.9486
1098.02	9.77841
1099.55	12.3041
1101.08	9.04461
1102.61	11.6575
1104.14	11.4124
1105.67	9.77851
1107.19	6.87134
1108.72	8.79177
1110.25	13.2396
1111.78	9.59388
1113.31	13.4911
1114.84	5.89613
1116.37	6.87279
1117.9	2.291
1119.42	1.61782
1120.95	-4.88936
1122.48	-2.85128
1124.01	1.83491
1125.54	4.21744
1127.07	-0.228614
1128.6	-2.81449
1130.13	8.37872
1131.65	-7.35134
1133.18	-4.74822
1134.71	-5.23219
1136.24	-7.08649
1137.77	-4.33904
1139.3	-4.93502
1140.83	0.719199
1142.36	9.61776
1143.88	-7.56005
1145.41	0.360197
1146.94	-4.26081
1148.47	5.57422
1150	-2.05683
1151.53	7.60305
1153.06	7.17312
1154.59	-0.631282
1156.12	3.19474
1157.64	1.08817
1159.17	-2.74331
1160.7	0.301489
1162.23	12.3436
1163.76	-1.42826
1165.29	8.53575
1166.82	3.4917
1168.35	-4.68409
1169.87	6.24671
1171.4	6.17207
1172.93	9.33936
1174.46	13.0348
1175.99	4.53909
1177.52	-4.47404
1179.05	13.1612
1180.58	5.43758
1182.1	-1.141
1183.63	7.11499
1185.16	-4.19204
1186.69	3.34208
1188.22	-1.70924
1189.75	11.1327
1191.28	6.14869
1192.81	1.84798
1194.33	9.95554
1195.86	5.75836
1197.39	7.71665
1198.92	-1.80136
1200.45	11.4373
1201.98	10.2193
1203.51	9.85118
1205.04	0.0427919
1206.56	15.7262
1208.09	6.39535
1209.62	22.2195
1211.15	15.1423
1212.68	6.29336
1214.21	12.641
1215.74	6.42917
1217.27	14.5036
1218.79	1.70204
1220.32	18.5243
1221.85	15.0091
1223.38	14.237
1224.91	10.9369
1226.44	14.4227
1227.97	14.1422
1229.5	24.7036
1231.03	21.9633
1232.55	23.4535
1234.08	16.3335
1235.61	16.3751
1237.14	23.2054
1238.67	27.5701
1240.2	28.0101
1241.73	27.3404
1243.26	24.448
1244.78	32.9304
1246.31	32.4476
1247.84	44.185
1249.37	33.0489
1250.9	41.9105
1252.43	40.8022
1253.96	43.1878
1255.49	48.5292
1257.01	42.0125
1258.54	52.5138
1260.07	54.9484
1261.6	47.9347
1263.13	66.2633
1264.66	63.2995
1266.19	55.3509
1267.72	70.6651
1269.24	60.9321
1270.77	75.7753
1272.3	77.4586
1273.83	76.692
1275.36	92.5991
1276.89	75.1472
1278.42	96.3846
1279.95	104.506
1281.47	93.0801
1283	109.194
1284.53	112.988
1286.06	105.208
1287.59	115.613
1289.12	114.254
1290.65	129.323
1292.18	123.808
1293.71	139.984
1295.23	141.926
1296.76	139.365
1298.29	161.642
1299.82	140.701
1301.35	165.568
1302.88	178.004
1304.41	184.866
1305.94	199.05
1307.46	195.337
1308.99	205.874
1310.52	221.991
1312.05	239.332
1313.58	225.311
1315.11	245.586
1316.64	258.257
1318.17	275.278
1319.69	263.316
1321.22	296.029
1322.75	284.965
1324.28	298.306
1325.81	306.038
1327.34	312.559
1328.87	337.144
1330.4	344.497
1331.92	333.021
1333.45	359.852
1334.98	362.555
1336.51	359.092
1338.04	363.805
1339.57	376.462
1341.1	388.938
1342.63	363.952
1344.15	387.312
1345.68	386.785
1347.21	370.263
1348.74	379.721
1350.27	371.038
1351.8	371.568
1353.33	356.356
1354.86	362.515
1356.38	360.514
1357.91	355.154
1359.44	338.423
1360.97	342.503
1362.5	316.57
1364.03	307.368
1365.56	307.23
1367.09	281.594
1368.62	264.608
1370.14	268.044
1371.67	266.996
1373.2	253.341
1374.73	235.978
1376.26	221.782
1377.79	232.335
1379.32	193.515
1380.85	196.394
1382.37	192.902
1383.9	185.605
1385.43	167.503
1386.96	160.884
1388.49	158.027
1390.02	160.891
1391.55	139.752
1393.08	149.646
1394.6	121.88
1396.13	119.405
1397.66	139.995
1399.19	110.497
1400.72	124.11
1402.25	105.196
1403.78	90.6709
1405.31	84.0618
1406.83	93.8598
1408.36	76.8671
1409.89	73.0562
1411.42	90.3581
1412.95	72.3914
1414.48	65.3189
1416.01	54.102
1417.54	59.199
1419.06	64.1924
1420.59	43.4909
1422.12	52.1712
1423.65	52.3381
1425.18	49.7916
1426.71	36.7358
1428.24	46.0934
1429.77	36.235
1431.29	30.1953
1432.82	29.4315
1434.35	36.112
1435.88	21.2436
1437.41	20.6238
1438.94	25.1442
1440.47	17.4782
1442	18.8757
1443.53	20.9256
1445.05	25.3019
1446.58	4.19372
1448.11	23.8314
1449.64	4.94619
1451.17	14.5511
1452.7	11.2331
1454.23	11.5286
1455.76	7.99526
1457.28	0.861206
1458.81	6.08385
1460.34	4.20437
1461.87	7.48176
1463.4	21.0181
1464.93	0.404568
1466.46	3.52742
1467.99	-8.57
1469.51	8.83844
1471.04	-1.09364
1472.57	7.36484
1474.1	14.6481
1475.63	7.34753
1477.16	8.28692
1478.69	-1.47703
1480.22	-1.38969
1481.74	4.33803
1483.27	-0.055484
1484.8	-3.50539
1486.33	-0.989359
1487.86	-10.9596
1489.39	-7.37109
1490.92	5.40188
1492.45	11.7698
1493.97	-0.719359
1495.5	6.04775
1497.03	-6.98916
1498.56	3.26288
1500.09	6.09275
1501.62	-1.4453
1503.15	1.18981
1504.68	6.58193
1506.21	9.05091
1507.73	4.32871
1509.26	6.22547
1510.79	17.3052
1512.32	25.8029
1513.85	21.1008
1515.38	18.6557
1516.91	17.9154
1518.44	22.6368
1519.96	31.8236
1521.49	22.6465
1523.02	28.8928
1524.55	24.249
1526.08	42.882
1527.61	46.197
1529.14	39.8625
1530.67	48.6497
1532.19	55.7911
1533.72	54.4715
1535.25	57.534
1536.78	58.779
1538.31	80.4813
1539.84	91.3769
1541.37	87.2759
1542.9	87.3561
1544.42	102.424
1545.95	102.904
1547.48	109.878
1549.01	114.976
1550.54	130.272
1552.07	148.233
1553.6	142.089
1555.13	157.131
1556.65	180.042
1558.18	177.506
1559.71	185.255
1561.24	197.279
1562.77	208.195
1564.3	207.906
1565.83	223.022
1567.36	242.996
1568.88	252.262
1570.41	250.801
1571.94	264.063
1573.47	276.728
1575	298.205
1576.53	292.808
1578.06	299.851
1579.59	317.212
1581.12	338.735
1582.64	336.572
1584.17	344.248
1585.7	369.709
1587.23	359.519
1588.76	382.129
1590.29	374.095
1591.82	367.793
1593.35	369.375
1594.87	380.816
1596.4	391.91
1597.93	390.473
1599.46	380.482
1600.99	381.336
1602.52	374.145
1604.05	374.217
1605.58	363.236
1607.1	359.002
1608.63	364.885
1610.16	356.268
1611.69	350.553
1613.22	346.165
1614.75	333.54
1616.28	320.702
1617.81	320.515
1619.33	310.089
1620.86	295.109
1622.39	281.934
1623.92	266.445
1625.45	258.459
1626.98	246.554
1628.51	229.663
1630.04	217.142
1631.56	189.962
1633.09	195.347
1634.62	172.088
1636.15	168.902
1637.68	157.488
1639.21	147.046
1640.74	134.427
1642.27	112.998
1643.79	114.794
1645.32	116.457
1646.85	98.3969
1648.38	93.4392
1649.91	83.2617
1651.44	78.3949
1652.97	69.4183
1654.5	58.0783
1656.03	58.8112
1657.55	48.9253
1659.08	51.0755
1660.61	43.001
1662.14	33.8205
1663.67	30.7257
1665.2	26.7391
1666.73	25.034
1668.26	23.069
1669.78	16.6008
1671.31	10.3841
1672.84	15.2992
1674.37	9.61606
1675.9	7.39816
1677.43	11.822
1678.96	3.80057
1680.49	4.41657
1682.01	7.30242
1683.54	3.70181
1685.07	-3.80225
1686.6	1.28619
1688.13	3.94833
1689.66	1.1181
1691.19	-1.76175
1692.72	-0.842875
1694.24	-5.32453
1695.77	-3.62419
1697.3	-4.04383
1698.83	-0.0662041
1700.36	-0.420779
1701.89	0.191747
1703.42	2.46951
1704.95	-0.357271
1706.47	0.814574
1708	-0.656742
1709.53	0.0965556
1711.06	1.39137
1712.59	-5.32708
1714.12	-4.85044
1715.65	-2.25079
1717.18	-5.62664
1718.71	-3.14075
1720.23	-3.85106
1721.76	-6.83608
1723.29	0.694046
1724.82	-4.38874
1726.35	-2.72317
1727.88	-6.02538
1729.41	-3.68427
1730.94	-5.58704
1732.46	-3.55963
1733.99	-2.43679
1735.52	1.03077
1737.05	0.972522
1738.58	-0.855173
1740.11	-2.92647
1741.64	-0.869379
1743.17	-5.7122
1744.69	0.885663
1746.22	2.71393
1747.75	3.45385
1749.28	-1.35897
1750.81	-3.02174
1752.34	-2.1876
1753.87	-1.47217
1755.4	-0.189384
1756.92	-1.68382
1758.45	1.25604
1759.98	1.78502
1761.51	2.88437
1763.04	-1.01571
1764.57	-2.73961
1766.1	-2.60542
1767.63	10.7625
1769.15	2.37418
1770.68	0.733519
1772.21	1.15936
1773.74	-0.458528
1775.27	1.67739
1776.8	2.49862
1778.33	5.46288
1779.86	7.38361
1781.38	0.852489
1782.91	7.39498
1784.44	2.38348
1785.97	-1.50952
1787.5	2.52036
1789.03	7.70737
1790.56	5.59066
1792.09	-0.360956
1793.62	1.26642
1795.14	0.836744
1796.67	-0.336654
1798.2	1.53127
1799.73	1.54202
1801.26	-1.12725
1802.79	3.33812
1804.32	0.016032
1805.85	-1.12715
1807.37	3.68041
1808.9	2.43233
1810.43	4.42311
1811.96	0.448903
1813.49	0.490699
1815.02	1.31324
1816.55	3.65303
1818.08	-4.32067
1819.6	-1.9937
1821.13	1.26302
1822.66	-1.71033
1824.19	4.00409
1825.72	1.28354
1827.25	-1.68892
1828.78	3.71615
1830.31	-1.46244
1831.83	1.68306
1833.36	-0.187523
1834.89	6.59218
1836.42	0.252473
1837.95	-0.826979
1839.48	-0.804011
1841.01	5.65965
1842.54	1.80779
1844.06	1.22751
1845.59	7.16771
1847.12	3.41201
1848.65	6.68281
1850.18	7.15773
1851.71	-0.93226
1853.24	2.68245
1854.77	2.39756
1856.29	-1.4427
1857.82	2.30151
1859.35	-0.300463
1860.88	0.43732
1862.41	-0.175526
1863.94	0.787288
1865.47	3.68669
1867	8.93529
1868.53	6.67077
1870.05	8.82211
1871.58	9.85152
1873.11	9.02257
1874.64	5.05146
1876.17	-1.25401
1877.7	5.33139
1879.23	10.3539
1880.76	7.39575
1882.28	9.42564
1883.81	2.61906
1885.34	7.91426
1886.87	11.0711
1888.4	8.07166
1889.93	6.63942
1891.46	5.76791
1892.99	6.99625
1894.51	9.77361
1896.04	10.3684
1897.57	5.64403
1899.1	5.43324
1900.63	11.6089
1902.16	6.88656
1903.69	12.7244
1905.22	7.44149
1906.74	3.35948
1908.27	8.45428
1909.8	7.88543
1911.33	4.96012
1912.86	11.2091
1914.39	9.86532
1915.92	6.54706
1917.45	11.7198
1918.97	8.27482
1920.5	6.33841
1922.03	10.7242
1923.56	9.49894
1925.09	9.89352
1926.62	10.6335
1928.15	13.3078
1929.68	14.2017
1931.21	17.5163
1932.73	13.0685
1934.26	11.3699
1935.79	18.0724
1937.32	12.3278
1938.85	7.42819
1940.38	13.0952
1941.91	8.29969
1943.44	13.1972
1944.96	12.0659
1946.49	19.1705
1948.02	14.2839
1949.55	14.351
1951.08	17.9371
1952.61	14.5383
1954.14	18.2971
1955.67	12.0235
1957.19	12.4348
1958.72	18.8179
1960.25	14.5738
1961.78	12.7633
1963.31	13.9275
1964.84	16.7835
1966.37	16.8535
1967.9	16.3295
1969.42	13.9779
1970.95	20.134
1972.48	16.1189
1974.01	18.313
1975.54	14.2749
1977.07	16.3017
1978.6	19.1609
1980.13	19.5018
1981.65	17.264
1983.18	12.5064
1984.71	19.2225
1986.24	17.4538
1987.77	20.2642
1989.3	20.289
1990.83	19.7318
1992.36	19.0956
1993.88	20.3392
1995.41	19.6987
1996.94	15.8968
1998.47	16.3097
2000	18.7495