File: Example Data/Raman/CNT - TIM/Raytheon/Al foil/2010/07-07-10/Cu Batch 1 - top.txt
300	5.84006
301.529	6.56933
303.058	3.5827
304.586	9.31633
306.115	10.894
307.644	9.25743
309.173	3.62859
310.701	9.9622
312.23	8.27274
313.759	7.36799
315.288	11.6318
316.817	6.75197
318.345	8.95426
319.874	4.71032
321.403	7.56481
322.932	9.84882
324.46	7.10142
325.989	5.67266
327.518	9.50527
329.047	11.6993
330.576	2.56543
332.104	5.10088
333.633	4.76986
335.162	7.12771
336.691	4.78689
338.219	8.09469
339.748	11.2203
341.277	4.74663
342.806	2.262
344.335	7.30432
345.863	2.93638
347.392	6.31929
348.921	5.69388
350.45	7.01705
351.978	5.84981
353.507	10.2458
355.036	5.08587
356.565	15.3217
358.094	7.4421
359.622	12.5646
361.151	7.6959
362.68	14.8783
364.209	6.29346
365.737	9.06896
367.266	5.66754
368.795	2.29452
370.324	5.70654
371.853	5.84787
373.381	5.06057
374.91	6.06308
376.439	12.3657
377.968	8.99221
379.496	11.965
381.025	8.647
382.554	3.09431
384.083	12.2851
385.612	7.66894
387.14	10.9798
388.669	3.03576
390.198	8.30645
391.727	1.74894
393.255	5.22169
394.784	13.1881
396.313	4.17708
397.842	5.22588
399.371	8.26427
400.899	11.7082
402.428	15.108
403.957	12.1961
405.486	9.5011
407.014	8.70386
408.543	9.38273
410.072	5.85862
411.601	12.5987
413.129	9.42662
414.658	12.5196
416.187	10.442
417.716	10.2195
419.245	11.898
420.773	16.1176
422.302	9.57245
423.831	8.44736
425.36	7.59284
426.888	10.3749
428.417	11.313
429.946	8.46306
431.475	9.04731
433.004	10.3304
434.532	10.3112
436.061	11.2546
437.59	16.1202
439.119	12.5355
440.647	10.9907
442.176	8.16189
443.705	19.0149
445.234	15.6032
446.763	12.3691
448.291	9.85286
449.82	8.49892
451.349	9.09362
452.878	11.2038
454.406	7.74748
455.935	10.0981
457.464	6.75626
458.993	6.95724
460.522	12.3822
462.05	10.5352
463.579	13.5947
465.108	7.79844
466.637	6.15656
468.165	13.6497
469.694	7.68397
471.223	8.95529
472.752	11.0384
474.281	16.5419
475.809	7.93389
477.338	9.18034
478.867	9.5121
480.396	14.267
481.924	12.6192
483.453	9.92335
484.982	13.8478
486.511	7.89318
488.04	4.46519
489.568	10.4121
491.097	10.7803
492.626	2.63566
494.155	7.15246
495.683	5.70994
497.212	5.37533
498.741	7.30366
500.27	6.56631
501.799	3.80919
503.327	4.55424
504.856	9.51193
506.385	9.98077
507.914	9.20269
509.442	9.01786
510.971	10.1136
512.5	0
514.029	8.92569
515.558	6.47688
517.086	5.82758
518.615	4.87833
520.144	8.78302
521.673	7.37205
523.201	8.94585
524.73	1.58485
526.259	5.55361
527.788	5.08996
529.317	9.65921
530.845	6.82363
532.374	7.88927
533.903	5.67398
535.432	7.36346
536.96	2.82719
538.489	6.02092
540.018	6.46559
541.547	5.03343
543.076	3.40726
544.604	9.99776
546.133	5.0972
547.662	9.45789
549.191	7.53266
550.719	5.13719
552.248	9.06117
553.777	4.93939
555.306	5.01173
556.835	5.95788
558.363	8.14248
559.892	6.66497
561.421	4.91997
562.95	1.85934
564.478	8.2341
566.007	7.60603
567.536	0.720829
569.065	0
570.594	4.20199
572.122	3.12111
573.651	7.50299
575.18	4.20104
576.709	2.98037
578.237	6.63973
579.766	8.36645
581.295	5.81701
582.824	5.61798
584.353	4.49096
585.881	5.9813
587.41	10.2992
588.939	6.60684
590.468	6.67853
591.996	6.65542
593.525	7.15206
595.054	1.91013
596.583	10.6015
598.112	3.82906
599.64	5.03246
601.169	5.20692
602.698	7.06471
604.227	6.96534
605.755	-0.862802
607.284	8.6048
608.813	6.9803
610.342	4.84159
611.87	1.01951
613.399	2.2996
614.928	4.07617
616.457	5.69195
617.986	4.95716
619.514	9.23626
621.043	7.12414
622.572	5.27549
624.101	4.53552
625.63	-0.261547
627.158	1.61201
628.687	7.52129
630.216	9.68904
631.745	2.02911
633.273	6.61302
634.802	9.16542
636.331	6.77952
637.86	24.3153
639.388	43.0571
640.917	51.6763
642.446	11.0177
643.975	1.92088
645.504	5.76885
647.032	4.14025
648.561	11.2605
650.09	11.1402
651.619	5.76343
653.147	9.82396
654.676	8.42113
656.205	9.11057
657.734	6.4604
659.263	7.29215
660.791	5.1737
662.32	3.84622
663.849	9.8018
665.378	12.8338
666.906	10.0277
668.435	7.1545
669.964	7.28222
671.493	5.67864
673.022	13.4578
674.55	5.99932
676.079	4.97425
677.608	5.48992
679.137	12.2551
680.665	6.78878
682.194	8.63609
683.723	7.03091
685.252	11.154
686.781	13.5806
688.309	11.74
689.838	12.9743
691.367	11.5952
692.896	7.16489
694.424	6.69624
695.953	9.23987
697.482	12.1463
699.011	7.74455
700.54	7.74919
702.068	2.83848
703.597	3.37946
705.126	1.70647
706.655	6.12787
708.183	10.3602
709.712	4.82524
711.241	14.3404
712.77	8.05928
714.299	11.3208
715.827	9.40648
717.356	9.94449
718.885	10.9331
720.414	11.289
721.942	9.82855
723.471	11.6722
725	9.48547
726.529	12.0219
728.058	8.74516
729.586	6.76309
731.115	10.3078
732.644	9.22987
734.173	12.4441
735.701	11.9429
737.23	12.7887
738.759	14.4758
740.288	14.9586
741.817	9.55292
743.345	10.196
744.874	11.0362
746.403	12.0592
747.932	12.9193
749.46	17.9648
750.989	15.2015
752.518	9.87088
754.047	12.1737
755.576	11.3239
757.104	13.9008
758.633	14.9929
760.162	12.3561
761.691	12.8955
763.219	7.52299
764.748	7.75946
766.277	12.1032
767.806	14.6067
769.335	14.3936
770.863	10.6429
772.392	12.9322
773.921	15.7282
775.45	19.0138
776.978	12.4615
778.507	16.2304
780.036	12.4431
781.565	14.1097
783.094	15.4413
784.622	14.9171
786.151	14.7719
787.68	15.9109
789.209	15.4458
790.737	15.9309
792.266	15.6888
793.795	14.2709
795.324	17.9907
796.853	11.8272
798.381	16.1813
799.91	13.2663
801.439	20.6053
802.968	14.3558
804.496	13.5565
806.025	22.9568
807.554	16.4207
809.083	11.2133
810.612	21.2115
812.14	17.7138
813.669	22.4309
815.198	17.0223
816.727	14.5991
818.255	17.7361
819.784	19.9165
821.313	25.6625
822.842	22.2422
824.37	20.6799
825.899	15.394
827.428	19.7058
828.957	17.601
830.486	20.4081
832.014	19.6582
833.543	21.08
835.072	21.3574
836.601	20.9965
838.13	20.0688
839.658	20.2946
841.187	19.772
842.716	22.6176
844.245	15.2548
845.773	22.3886
847.302	20.8021
848.831	19.6067
850.36	17.1194
851.888	18.614
853.417	21.6991
854.946	25.851
856.475	21.0325
858.004	17.4706
859.532	23.4497
861.061	22.984
862.59	17.3976
864.119	21.2648
865.647	13.7495
867.176	20.5432
868.705	9.71638
870.234	19.5401
871.763	14.333
873.291	20.0348
874.82	14.013
876.349	11.1851
877.878	11.9396
879.406	11.3065
880.935	9.54484
882.464	9.25256
883.993	8.93935
885.522	10.9266
887.05	6.93062
888.579	12.184
890.108	6.43899
891.637	11.4625
893.165	9.23515
894.694	8.49288
896.223	6.12129
897.752	7.45647
899.281	4.17389
900.809	3.43125
902.338	6.77189
903.867	5.39211
905.396	0.537419
906.924	2.99182
908.453	5.06367
909.982	10.0027
911.511	1.00209
913.04	4.86088
914.568	5.15315
916.097	4.03688
917.626	0.878969
919.155	1.28156
920.683	4.45336
922.212	-1.12181
923.741	-0.646294
925.27	1.94714
926.799	-0.627809
928.327	-1.81365
929.856	2.51863
931.385	-3.2019
932.914	-7.23184
934.442	6.80423
935.971	-1.80484
937.5	0.212932
939.029	-1.13321
940.558	-1.00997
942.086	1.34288
943.615	3.87101
945.144	-3.54042
946.673	-2.82566
948.201	0.724764
949.73	-1.694
951.259	1.76309
952.788	3.523
954.317	-2.6511
955.845	3.94837
957.374	2.53697
958.903	-0.0615235
960.432	-1.69236
961.96	2.81653
963.489	1.65586
965.018	-0.631797
966.547	-0.974599
968.076	2.12466
969.604	2.18561
971.133	0.181195
972.662	4.52468
974.191	-1.46219
975.719	4.50073
977.248	-1.61614
978.777	3.64921
980.306	-0.573184
981.835	0.900973
983.363	5.60048
984.892	-0.0463761
986.421	-0.180856
987.95	-0.400638
989.478	1.53879
991.007	-0.649953
992.536	4.27845
994.065	-1.91354
995.594	7.79418
997.122	-1.14763
998.651	6.43601
1000.18	-0.766459
1001.71	4.62619
1003.24	2.38256
1004.77	5.34318
1006.29	6.12264
1007.82	11.6221
1009.35	6.81322
1010.88	7.47133
1012.41	7.83183
1013.94	8.14434
1015.47	2.48672
1017	9.52497
1018.53	14.3993
1020.05	10.5722
1021.58	10.2441
1023.11	10.483
1024.64	9.69243
1026.17	3.84101
1027.7	12.7508
1029.23	11.2755
1030.76	12.1713
1032.28	19.1907
1033.81	11.6154
1035.34	10.8482
1036.87	17.357
1038.4	19.527
1039.93	10.6278
1041.46	20.4804
1042.99	15.8413
1044.51	17.3604
1046.04	13.746
1047.57	15.9367
1049.1	14.6828
1050.63	15.3494
1052.16	18.3067
1053.69	13.1323
1055.22	14.1735
1056.74	14.1771
1058.27	18.1775
1059.8	14.4011
1061.33	16.4189
1062.86	14.9646
1064.39	11.3575
1065.92	17.0357
1067.45	19.4621
1068.97	12.9381
1070.5	14.7269
1072.03	15.2055
1073.56	17.0777
1075.09	13.0885
1076.62	15.3081
1078.15	13.9238
1079.68	16.7722
1081.21	13.6675
1082.73	14.1013
1084.26	19.208
1085.79	21.5702
1087.32	15.4305
1088.85	15.89
1090.38	14.6275
1091.91	13.7977
1093.44	18.0373
1094.96	16.128
1096.49	15.6844
1098.02	11.9257
1099.55	17.3822
1101.08	15.9996
1102.61	15.2539
1104.14	17.3453
1105.67	14.586
1107.19	16.0663
1108.72	12.5702
1110.25	18.2228
1111.78	11.8049
1113.31	13.1414
1114.84	11.6021
1116.37	10.5679
1117.9	11.5406
1119.42	16.4478
1120.95	12.0772
1122.48	14.0502
1124.01	9.20556
1125.54	5.06499
1127.07	0.365553
1128.6	7.45994
1130.13	3.34334
1131.65	4.89886
1133.18	0.646268
1134.71	0.907267
1136.24	0
1137.77	1.99289
1139.3	5.78363
1140.83	4.08424
1142.36	7.37172
1143.88	3.35785
1145.41	10.405
1146.94	11.9606
1148.47	15.2056
1150	16.186
1151.53	13.0093
1153.06	12.4975
1154.59	15.0939
1156.12	20.116
1157.64	14.6309
1159.17	16.3967
1160.7	15.6486
1162.23	20.2716
1163.76	18.2413
1165.29	14.046
1166.82	23.3891
1168.35	23.2572
1169.87	24.8138
1171.4	23.1617
1172.93	17.1612
1174.46	30.1042
1175.99	17.1701
1177.52	23.8272
1179.05	31.9241
1180.58	23.1943
1182.1	26.0993
1183.63	30.864
1185.16	31.3921
1186.69	31.6532
1188.22	35.5557
1189.75	34.5558
1191.28	30.8295
1192.81	33.3426
1194.33	39.883
1195.86	37.7344
1197.39	33.8885
1198.92	27.1771
1200.45	41.2019
1201.98	41.9489
1203.51	39.5229
1205.04	39.5949
1206.56	42.4014
1208.09	41.9049
1209.62	49.2558
1211.15	45.2918
1212.68	41.7122
1214.21	49.3678
1215.74	42.9801
1217.27	53.2674
1218.79	45.9223
1220.32	57.1895
1221.85	49.7447
1223.38	54.502
1224.91	62.5079
1226.44	60.0324
1227.97	62.1098
1229.5	62.1951
1231.03	63.7553
1232.55	66.2322
1234.08	67.223
1235.61	61.6012
1237.14	70.062
1238.67	62.7879
1240.2	73.0722
1241.73	72.1239
1243.26	77.2171
1244.78	78.7751
1246.31	85.5262
1247.84	83.6928
1249.37	81.9244
1250.9	80.7058
1252.43	91.9831
1253.96	87.8505
1255.49	93.6865
1257.01	98.7794
1258.54	107.52
1260.07	100.824
1261.6	105.628
1263.13	105.879
1264.66	115.393
1266.19	113.538
1267.72	117.577
1269.24	127.322
1270.77	126.057
1272.3	119.913
1273.83	143.01
1275.36	139.621
1276.89	139.187
1278.42	136.589
1279.95	140.46
1281.47	151.964
1283	150.019
1284.53	156.444
1286.06	171.614
1287.59	175.662
1289.12	172.585
1290.65	185.751
1292.18	187.669
1293.71	192.929
1295.23	202.074
1296.76	207.919
1298.29	217.761
1299.82	219.239
1301.35	236.447
1302.88	230.11
1304.41	246.574
1305.94	248.445
1307.46	258.192
1308.99	279.242
1310.52	279.549
1312.05	282.924
1313.58	305.872
1315.11	319.474
1316.64	328.072
1318.17	331.815
1319.69	355.408
1321.22	365.444
1322.75	382.847
1324.28	375.034
1325.81	405.189
1327.34	413.366
1328.87	421.875
1330.4	418.636
1331.92	427.077
1333.45	444.949
1334.98	466.327
1336.51	496.122
1338.04	490.919
1339.57	504.049
1341.1	509.68
1342.63	528.201
1344.15	522.221
1345.68	532.739
1347.21	525.753
1348.74	518.697
1350.27	524.583
1351.8	531.283
1353.33	543.905
1354.86	516.928
1356.38	521.241
1357.91	517.281
1359.44	511.271
1360.97	490.343
1362.5	490.451
1364.03	471.707
1365.56	474.188
1367.09	449.639
1368.62	428.055
1370.14	417.117
1371.67	421.846
1373.2	411.121
1374.73	393.513
1376.26	385.772
1377.79	380.834
1379.32	364.508
1380.85	346.509
1382.37	331.343
1383.9	330.896
1385.43	308.637
1386.96	303.164
1388.49	293.817
1390.02	285.137
1391.55	276.355
1393.08	269.514
1394.6	271.289
1396.13	250.853
1397.66	255.412
1399.19	239.065
1400.72	232.212
1402.25	216.372
1403.78	219.071
1405.31	214.569
1406.83	213.095
1408.36	208.25
1409.89	192.053
1411.42	200.085
1412.95	188.477
1414.48	190.722
1416.01	189.753
1417.54	182.687
1419.06	188.541
1420.59	169.601
1422.12	178.692
1423.65	169.275
1425.18	169.379
1426.71	160.076
1428.24	164.002
1429.77	166.266
1431.29	169.386
1432.82	156.29
1434.35	163.563
1435.88	143.927
1437.41	154.924
1438.94	145.309
1440.47	135.531
1442	145.235
1443.53	150.616
1445.05	152.362
1446.58	139.153
1448.11	140.501
1449.64	156.902
1451.17	143.851
1452.7	140.543
1454.23	142.273
1455.76	137.827
1457.28	136.988
1458.81	141.327
1460.34	139.867
1461.87	129.006
1463.4	147.603
1464.93	138.937
1466.46	140.603
1467.99	128.62
1469.51	130.224
1471.04	132.651
1472.57	130.591
1474.1	133.693
1475.63	139.04
1477.16	133.994
1478.69	124.375
1480.22	134.304
1481.74	144.604
1483.27	132.078
1484.8	141.349
1486.33	138.082
1487.86	141.637
1489.39	125.186
1490.92	133.069
1492.45	133.884
1493.97	135.157
1495.5	139.473
1497.03	136.885
1498.56	133.563
1500.09	137.813
1501.62	141.928
1503.15	148.742
1504.68	153.799
1506.21	140.076
1507.73	146.717
1509.26	144.842
1510.79	154.484
1512.32	151.699
1513.85	145.451
1515.38	143.969
1516.91	147.281
1518.44	153.802
1519.96	151.651
1521.49	146.865
1523.02	162.855
1524.55	144.531
1526.08	157.818
1527.61	169.296
1529.14	163.44
1530.67	165.445
1532.19	172.765
1533.72	177.162
1535.25	164.434
1536.78	167.856
1538.31	171.53
1539.84	172.286
1541.37	181.451
1542.9	191.22
1544.42	202.807
1545.95	200.613
1547.48	201.157
1549.01	204.081
1550.54	213.033
1552.07	235.003
1553.6	236.54
1555.13	239.362
1556.65	250.753
1558.18	251.36
1559.71	264.552
1561.24	269.695
1562.77	264.613
1564.3	282.302
1565.83	295.384
1567.36	304.431
1568.88	309.329
1570.41	325.248
1571.94	325.386
1573.47	335.701
1575	361.369
1576.53	372.525
1578.06	369.636
1579.59	376.609
1581.12	390.261
1582.64	398.787
1584.17	411.626
1585.7	435.279
1587.23	429.942
1588.76	427.693
1590.29	446.823
1591.82	438.705
1593.35	461.344
1594.87	457.587
1596.4	466.275
1597.93	464.251
1599.46	466.958
1600.99	465.265
1602.52	463.676
1604.05	449.985
1605.58	447.064
1607.1	439.499
1608.63	438.002
1610.16	425.814
1611.69	436.953
1613.22	443.83
1614.75	413.783
1616.28	408.643
1617.81	409.115
1619.33	384.277
1620.86	386.22
1622.39	373.356
1623.92	355.542
1625.45	343.109
1626.98	328.341
1628.51	321.337
1630.04	291.131
1631.56	283.2
1633.09	272.088
1634.62	256.967
1636.15	247.14
1637.68	228.881
1639.21	219.947
1640.74	198.961
1642.27	181.295
1643.79	178.708
1645.32	170.292
1646.85	159.17
1648.38	150.896
1649.91	131.3
1651.44	126.295
1652.97	118.653
1654.5	113.556
1656.03	107.088
1657.55	93.6275
1659.08	86.0797
1660.61	81.5593
1662.14	70.9571
1663.67	74.6592
1665.2	64.1164
1666.73	63.7991
1668.26	53.9398
1669.78	51.7823
1671.31	49.033
1672.84	43.4179
1674.37	38.4955
1675.9	36.5958
1677.43	35.4235
1678.96	30.4354
1680.49	28.5439
1682.01	25.9467
1683.54	26.1204
1685.07	20.7164
1686.6	18.8568
1688.13	19.913
1689.66	16.6761
1691.19	14.0006
1692.72	13.4602
1694.24	9.80938
1695.77	13.3694
1697.3	12.2419
1698.83	6.07935
1700.36	5.19222
1701.89	4.49586
1703.42	1.55715
1704.95	0
1706.47	7.75336
1708	4.05934
1709.53	5.34564
1711.06	0.494658
1712.59	4.34023
1714.12	4.85547
1715.65	1.82814
1717.18	4.78553
1718.71	4.24326
1720.23	0.94119
1721.76	2.97749
1723.29	-0.0127478
1724.82	3.95528
1726.35	2.4955
1727.88	2.03639
1729.41	0.734881
1730.94	0.580071
1732.46	0.211557
1733.99	0.786422
1735.52	1.48053
1737.05	3.25103
1738.58	-0.0225489
1740.11	-6.07141
1741.64	-5.27403
1743.17	-3.34293
1744.69	-0.337675
1746.22	-5.3686
1747.75	-4.10661
1749.28	-4.17471
1750.81	-3.96759
1752.34	-6.55254
1753.87	-0.20575
1755.4	-0.904258
1756.92	-4.59871
1758.45	-4.89846
1759.98	-3.12617
1761.51	-4.87934
1763.04	-2.20378
1764.57	-4.65864
1766.1	-4.98229
1767.63	-2.46601
1769.15	-0.157697
1770.68	0.938584
1772.21	-0.0447076
1773.74	-6.35288
1775.27	-0.171534
1776.8	-4.92843
1778.33	0.809885
1779.86	0.677551
1781.38	-2.34782
1782.91	-0.814329
1784.44	-4.92015
1785.97	-5.06204
1787.5	-6.08801
1789.03	-2.47074
1790.56	-7.99676
1792.09	-0.401368
1793.62	-4.80841
1795.14	-4.37983
1796.67	-2.75463
1798.2	-3.45965
1799.73	-7.05694
1801.26	-2.74665
1802.79	-0.940638
1804.32	-6.14922
1805.85	-3.9319
1807.37	-2.25708
1808.9	-6.25665
1810.43	-3.76921
1811.96	-7.2429
1813.49	-7.87854
1815.02	-5.09649
1816.55	-5.50143
1818.08	-9.61326
1819.6	-3.48699
1821.13	-2.20818
1822.66	-5.06332
1824.19	-3.46324
1825.72	-5.11575
1827.25	-3.66186
1828.78	0.983775
1830.31	-3.63301
1831.83	-2.23297
1833.36	-4.40816
1834.89	-6.5681
1836.42	-2.13951
1837.95	-7.38593
1839.48	-4.9303
1841.01	-3.79425
1842.54	-3.77531
1844.06	-10.1248
1845.59	-5.93239
1847.12	-7.54391
1848.65	-6.67767
1850.18	-2.97183
1851.71	-2.05174
1853.24	-2.9935
1854.77	-1.69392
1856.29	-3.94533
1857.82	-4.28122
1859.35	-2.68021
1860.88	0.280063
1862.41	0.541318
1863.94	-0.907979
1865.47	-3.27612
1867	-3.11055
1868.53	0.358229
1870.05	-0.630218
1871.58	-2.68526
1873.11	1.04139
1874.64	-1.15693
1876.17	-2.4896
1877.7	-1.88975
1879.23	-5.15986
1880.76	-1.45984
1882.28	3.90257
1883.81	-1.13122
1885.34	2.34804
1886.87	-0.716231
1888.4	-0.313197
1889.93	-0.707764
1891.46	-2.57065
1892.99	2.6089
1894.51	2.05235
1896.04	4.50561
1897.57	-2.79639
1899.1	0.327314
1900.63	-0.495477
1902.16	2.73189
1903.69	-3.15841
1905.22	5.01138
1906.74	-0.187762
1908.27	-1.3566
1909.8	3.46037
1911.33	0.0318635
1912.86	2.11789
1914.39	1.86542
1915.92	-0.209809
1917.45	2.15472
1918.97	-4.85613
1920.5	-2.74286
1922.03	-0.445055
1923.56	1.3524
1925.09	-0.312203
1926.62	3.59915
1928.15	3.86549
1929.68	2.44982
1931.21	0.824546
1932.73	-4.44614
1934.26	-0.897273
1935.79	3.91776
1937.32	2.27185
1938.85	8.53248
1940.38	2.8965
1941.91	6.83552
1943.44	-1.35689
1944.96	-0.617094
1946.49	5.269
1948.02	-1.10503
1949.55	2.97776
1951.08	1.87159
1952.61	9.40985
1954.14	1.97446
1955.67	0.177044
1957.19	0.877675
1958.72	5.62832
1960.25	3.07085
1961.78	4.40173
1963.31	-0.216536
1964.84	5.19332
1966.37	1.38428
1967.9	5.76476
1969.42	3.02497
1970.95	5.0518
1972.48	6.81587
1974.01	4.67119
1975.54	4.25129
1977.07	1.60976
1978.6	3.48257
1980.13	6.10215
1981.65	0
1983.18	4.12847
1984.71	4.40915
1986.24	3.08848
1987.77	5.37807
1989.3	7.01864
1990.83	6.09508
1992.36	5.85938
1993.88	6.51092
1995.41	6.30663
1996.94	5.66039
1998.47	8.09225
2000	8.85123