File: Example Data/Raman/Kara/12-20-10/Si-Graphene/7bulk/SGbulk_6.txt
300	103.325
302.53	103.889
305.06	106.162
307.589	115.754
310.119	117.532
312.649	120.818
315.179	122.2
317.708	122.502
320.238	124.218
322.768	131.66
325.298	131.671
327.827	142.592
330.357	149.419
332.887	143.382
335.417	139.17
337.946	147.243
340.476	149.482
343.006	149.001
345.536	146.849
348.065	141.178
350.595	148.156
353.125	155.393
355.655	155.503
358.185	150.087
360.714	145.32
363.244	144.507
365.774	155.123
368.304	151.928
370.833	144.667
373.363	146.022
375.893	155.133
378.423	150.037
380.952	150.63
383.482	149.874
386.012	147.996
388.542	153.862
391.071	155.492
393.601	150.381
396.131	147.886
398.661	145.626
401.19	138.815
403.72	134.405
406.25	142.747
408.78	142.451
411.31	137.249
413.839	134.883
416.369	142.908
418.899	151.899
421.429	150.703
423.958	150.761
426.488	154.714
429.018	160.964
431.548	172.095
434.077	179.547
436.607	179.57
439.137	183.756
441.667	193.796
444.196	194.879
446.726	208.663
449.256	216.793
451.786	213.574
454.315	216.028
456.845	237.152
459.375	236.823
461.905	243.366
464.435	253.246
466.964	255.783
469.494	250.02
472.024	246.38
474.554	261.851
477.083	251.074
479.613	257.291
482.143	274.412
484.673	286.234
487.202	286.399
489.732	269.73
492.262	249.573
494.792	228.367
497.321	212.21
499.851	205.229
502.381	196.975
504.911	184.724
507.44	166.944
509.97	153.587
512.5	145.151
515.03	133.579
517.56	121.996
520.089	110.562
522.619	100.921
525.149	94.9011
527.679	92.0865
530.208	88.8874
532.738	77.7901
535.268	69.191
537.798	65.6763
540.327	65.0588
542.857	64.3631
545.387	62.3716
547.917	60.3807
550.446	51.8065
552.976	47.3986
555.506	50.1893
558.036	56.7305
560.565	57.395
563.095	53.274
565.625	51.3497
568.155	50.1166
570.685	50.8723
573.214	53.6049
575.744	51.4402
578.274	55.6505
580.804	53.9998
583.333	52.6
585.863	51.3334
588.393	50.3445
590.923	60.0186
593.452	57.7458
595.982	59.4182
598.512	57.4825
601.042	54.7152
603.571	54.4485
606.101	47.2643
608.631	50.5126
611.161	53.5904
613.69	50.702
616.22	48.883
618.75	53.6067
621.28	54.5313
623.81	48.1699
626.339	47.82
628.869	49.8666
631.399	49.104
633.929	46.8134
636.458	53.9673
638.988	48.4338
641.518	50.1644
644.048	50.4283
646.577	49.7219
649.107	50.932
651.637	55.1368
654.167	51.9434
656.696	51.6
659.226	44.6374
661.756	43.0723
664.286	49.1919
666.815	53.2546
669.345	47.7027
671.875	47.4
674.405	44.7215
676.935	43.5839
679.464	44.3867
681.994	45.8934
684.524	49.3676
687.054	45.8251
689.583	47.422
692.113	46.3553
694.643	43.6833
697.173	43.6456
699.702	48.6986
702.232	49.8806
704.762	48.1766
707.292	43.9697
709.821	43.9416
712.351	46.7409
714.881	46.3165
717.411	44.6241
719.94	45.2671
722.47	46.2167
725	47.7606
727.53	49.6994
730.06	49.4238
732.589	43.698
735.119	49.8029
737.649	46.1147
740.179	51.0592
742.708	50.6546
745.238	45.9111
747.768	46.7282
750.298	47.4343
752.827	50.493
755.357	48.4477
757.887	49.0771
760.417	49.9907
762.946	49.8677
765.476	51.2664
768.006	51.777
770.536	49.0362
773.065	53.1835
775.595	55.0839
778.125	53.937
780.655	52.2256
783.185	50.3174
785.714	51.6817
788.244	47.7493
790.774	50.775
793.304	54.0752
795.833	55.068
798.363	55.4326
800.893	56.0993
803.423	50.8023
805.952	57.3203
808.482	57.5167
811.012	55.9192
813.542	54.3702
816.071	51.9437
818.601	52.9542
821.131	61.5204
823.661	59.6063
826.19	58.6
828.72	58.5075
831.25	58.0804
833.78	57.8258
836.31	59.7504
838.839	58.5495
841.369	56.7463
843.899	58.2756
846.429	54.7206
848.958	54.3837
851.488	63.1241
854.018	55.5868
856.548	66.251
859.077	62.0305
861.607	56.761
864.137	56.4549
866.667	59.3077
869.196	60.1167
871.726	56.6852
874.256	55.3065
876.786	57.268
879.315	64.3759
881.845	61.2478
884.375	55.5061
886.905	54.0353
889.435	48.7829
891.964	54.9993
894.494	57.0387
897.024	55.7208
899.554	56.5787
902.083	56.3441
904.613	52.5834
907.143	48.8334
909.673	52.1391
912.202	49.8892
914.732	54.4281
917.262	51.9036
919.792	50.2766
922.321	50.4226
924.851	48.4278
927.381	46.4175
929.911	46.5909
932.44	46.4356
934.97	45.4343
937.5	45
940.03	44.0624
942.56	44.1563
945.089	46.4518
947.619	41.7509
950.149	45.7485
952.679	42.1873
955.208	42.797
957.738	42.5717
960.268	39.5661
962.798	38.723
965.327	44.26
967.857	39.0321
970.387	35.8815
972.917	38.5001
975.446	37.7706
977.976	35.829
980.506	34.1493
983.036	33.1
985.565	35.121
988.095	37.9156
990.625	31.9
993.155	32.6748
995.685	31.4969
998.214	31.7938
1000.74	31.952
1003.27	29.5853
1005.8	32.2509
1008.33	30.8504
1010.86	26.7485
1013.39	29.1696
1015.92	27.8942
1018.45	26.7675
1020.98	27.6097
1023.51	27.9095
1026.04	27.662
1028.57	28.1883
1031.1	31.8067
1033.63	27.0962
1036.16	28.8882
1038.69	28.0447
1041.22	25.6924
1043.75	27.1498
1046.28	27
1048.81	26.9327
1051.34	20.5955
1053.87	23.1854
1056.4	23.5501
1058.93	20.3356
1061.46	19.7741
1063.99	21.4887
1066.52	19.946
1069.05	25.1004
1071.58	20.3399
1074.11	20.9833
1076.64	20.0767
1079.17	21.12
1081.7	20.4236
1084.23	18.4
1086.76	18.2125
1089.29	17.4587
1091.82	16.3953
1094.35	14.2728
1096.875	11.841
1099.4	12.1178
1101.93	13.681
1104.46	14.0037
1106.99	12.6391
1109.52	11.3605
1112.05	11.4846
1114.58	14.4985
1117.11	11.6867
1119.64	14.324
1122.17	12.2449
1124.7	11.5407
1127.23	13.0874
1129.76	13.3882
1132.29	11.1963
1134.82	6.15417
1137.35	10.5978
1139.88	13.5173
1142.41	8.68281
1144.94	8.05599
1147.47	11.1816
1150	12.7476
1152.53	13.2313
1155.06	15.5029
1157.59	11.1036
1160.12	14.4896
1162.65	10.4585
1165.18	10.2527
1167.71	11.176
1170.24	9.22862
1172.77	7.3725
1175.3	7.5352
1177.83	8.53059
1180.36	12.3558
1182.89	10.3749
1185.42	5.18865
1187.95	7.45282
1190.48	6.82597
1193.01	5.03684
1195.54	2.77048
1198.07	2.76224
1200.6	7.32723
1203.125	11.1936
1205.65	4.14211
1208.18	6.29375
1210.71	8.95745
1213.24	11.0489
1215.77	9.1423
1218.3	6.38577
1220.83	6.17109
1223.36	8.21463
1225.89	9.277
1228.42	6.97302
1230.95	3.09129
1233.48	5.42891
1236.01	12.2681
1238.54	9.20128
1241.07	9.6256
1243.6	8.98741
1246.13	8.1808
1248.66	10.2044
1251.19	11.163
1253.72	8.31993
1256.25	11.493
1258.78	8.96832
1261.31	11.1587
1263.84	5.79147
1266.37	7.55351
1268.9	11.4708
1271.43	10.8231
1273.96	7.98596
1276.49	8.53741
1279.02	10.6073
1281.55	7.80604
1284.08	10.5207
1286.61	11.3025
1289.14	13.437
1291.67	10.4188
1294.2	9.39441
1296.73	9.29973
1299.26	10.4255
1301.79	12.8626
1304.32	12.5162
1306.85	11.1291
1309.375	13.3932
1311.9	13.2116
1314.43	9.9725
1316.96	12.2787
1319.49	14.7986
1322.02	16.9797
1324.55	15.9674
1327.08	14.3503
1329.61	15.0187
1332.14	14.6848
1334.67	15.0489
1337.2	15.3543
1339.73	14.0795
1342.26	17.2459
1344.79	15.9631
1347.32	14.4524
1349.85	14.824
1352.38	15.6003
1354.91	17.8671
1357.44	19.3659
1359.97	17.7367
1362.5	20.6951
1365.03	13.517
1367.56	15.1614
1370.09	14.6642
1372.62	16.8601
1375.15	13.7923
1377.68	12.4
1380.21	12.731
1382.74	12.0662
1385.27	11
1387.8	10.8208
1390.33	10.9154
1392.86	12.537
1395.39	10.752
1397.92	9.83462
1400.45	11.2119
1402.98	14.1208
1405.51	9.91485
1408.04	10.8003
1410.57	10.4024
1413.1	8.32613
1415.625	7.25003
1418.15	6.21285
1420.68	6.26334
1423.21	8.49776
1425.74	12.1698
1428.27	9.2259
1430.8	9.38255
1433.33	9.73354
1435.86	8.44057
1438.39	6.10471
1440.92	7.5952
1443.45	8.8874
1445.98	8.51131
1448.51	8.6197
1451.04	10.0409
1453.57	11.7504
1456.1	9.14376
1458.63	12.3731
1461.16	8.86165
1463.69	12.0692
1466.22	17.0665
1468.75	14.3602
1471.28	12.2432
1473.81	12.6524
1476.34	10.3115
1478.87	7.61553
1481.4	6.47029
1483.93	6.38199
1486.46	9.1104
1488.99	8.30108
1491.52	8.74222
1494.05	8.16173
1496.58	6.6762
1499.11	9.06547
1501.64	8.26672
1504.17	9.77186
1506.7	9.33172
1509.23	6.41158
1511.76	4.8
1514.29	5.16584
1516.82	6.68553
1519.35	7.25452
1521.875	6.34621
1524.4	10.783
1526.93	9.39468
1529.46	6.77907
1531.99	18.8904
1534.52	10.8394
1537.05	9.49505
1539.58	7.6957
1542.11	6.63356
1544.64	10.2503
1547.17	9.29144
1549.7	9.65122
1552.23	12.5555
1554.76	12.9242
1557.29	13.5538
1559.82	15.998
1562.35	17.3637
1564.88	13.3585
1567.41	17.3655
1569.94	16.8036
1572.47	13.0776
1575	15.0556
1577.53	13.7894
1580.06	12.5085
1582.59	13.8337
1585.12	14.3523
1587.65	13.1961
1590.18	11.804
1592.71	13.4665
1595.24	15.5744
1597.77	14.074
1600.3	13.749
1602.83	13.8736
1605.36	14.3484
1607.89	10.3538
1610.42	12.2037
1612.95	12.3919
1615.48	14.7436
1618.01	15.5062
1620.54	13.5572
1623.07	12.563
1625.6	12.6686
1628.125	12.923
1630.65	13
1633.18	11.2929
1635.71	9.51081
1638.24	9.79045
1640.77	8.8581
1643.3	6.75281
1645.83	8.79394
1648.36	7.53694
1650.89	8.27022
1653.42	8.71153
1655.95	7.41539
1658.48	8.93117
1661.01	7.19198
1663.54	10.4052
1666.07	7.8045
1668.6	3.11715
1671.13	3.7468
1673.66	5.759
1676.19	4.97783
1678.72	4.32513
1681.25	5.87773
1683.78	7.11181
1686.31	7.93841
1688.84	9.12682
1691.37	8.01594
1693.9	6.69726
1696.43	7
1698.96	6.6206
1701.49	4.34152
1704.02	3.89972
1706.55	5.79848
1709.08	5.22708
1711.61	8.10597
1714.14	7.02136
1716.67	9.24472
1719.2	7.03199
1721.73	6.34465
1724.26	4.90851
1726.79	3.94685
1729.32	4.74097
1731.85	6.48724
1734.375	6.2022
1736.9	4.54516
1739.43	4.98688
1741.96	5.73791
1744.49	5.89983
1747.02	5.99996
1749.55	0.840703
1752.08	5.83534
1754.61	7.3193
1757.14	5.34279
1759.67	1.87291
1762.2	2.87006
1764.73	4.9817
1767.26	9.37553
1769.79	8.68902
1772.32	9.82026
1774.85	12.4961
1777.38	12.3659
1779.91	6.77071
1782.44	8.57726
1784.97	9.45809
1787.5	6.89825
1790.03	8.24812
1792.56	4.6941
1795.09	1.65488
1797.62	4.66212
1800.15	7.25451
1802.68	7.0471
1805.21	7.22465
1807.74	9.61661
1810.27	10.8364
1812.8	10.3596
1815.33	6.55148
1817.86	5.94146
1820.39	4.54886
1822.92	5.75101
1825.45	2.89297
1827.98	2.08882
1830.51	3.26615
1833.04	4.80178
1835.57	4.99535
1838.1	3.86608
1840.625	4.71341
1843.15	4.62357
1845.68	5.11105
1848.21	4.7073
1850.74	8.87007
1853.27	6.19666
1855.8	6.754
1858.33	9.08427
1860.86	10.0691
1863.39	6.46586
1865.92	5.50803
1868.45	4.32011
1870.98	3.11195
1873.51	3.09355
1876.04	4.1105
1878.57	3.86193
1881.1	2.4
1883.63	2.65523
1886.16	3.79862
1888.69	4.92527
1891.22	6.61035
1893.75	8.44794
1896.28	4.96111
1898.81	5.00262
1901.34	6.7
1903.87	6.86419
1906.4	6.72484
1908.93	7.3886
1911.46	4.6
1913.99	4.62681
1916.52	4.77763
1919.05	4.51
1921.58	3.64104
1924.11	4.36964
1926.64	7.77389
1929.17	6.78711
1931.7	4.43613
1934.23	8.84129
1936.76	5.78463
1939.29	10.231
1941.82	10.9628
1944.35	7.09279
1946.875	5.73006
1949.4	12.4133
1951.93	10.4323
1954.46	5.06497
1956.99	5.11867
1959.52	3.36712
1962.05	1.72826
1964.58	4.84572
1967.11	5.70669
1969.64	4.73902
1972.17	1.8719
1974.7	5.20009
1977.23	8.00714
1979.76	3.6607
1982.29	4.29095
1984.82	3.98353
1987.35	3.54027
1989.88	4.24157
1992.41	5.81906
1994.94	5.06441
1997.47	4.70587
2000	4.18038
2002.53	2.98284
2005.06	1.94922
2007.59	3.49175
2010.12	5.08973
2012.65	4.89999
2015.18	5.78799
2017.71	6.30394
2020.24	3.75126
2022.77	2.93958
2025.3	6.37866
2027.83	5.21781
2030.36	2.52439
2032.89	4.57314
2035.42	4.96583
2037.95	1.92123
2040.48	1.7053
2043.01	3.84088
2045.54	2.77627
2048.07	1.76891
2050.6	3.92481
2053.125	4.72221
2055.65	5.1536
2058.18	4.51477
2060.71	3.51113
2063.24	2.4802
2065.77	3.50044
2068.3	5.71347
2070.83	2.17341
2073.36	1.24402
2075.89	0.777358
2078.42	3.30106
2080.95	5.05404
2083.48	6.11825
2086.01	4.9216
2088.54	6.15489
2091.07	8.16059
2093.6	5.88483
2096.13	6.3612
2098.66	7.61591
2101.19	5.14438
2103.72	4.54833
2106.25	6.2611
2108.78	7.62106
2111.31	7.35067
2113.84	6.09616
2116.37	6.1501
2118.9	5.03405
2121.43	6.0954
2123.96	4.93501
2126.49	5.13922
2129.02	6.32974
2131.55	5.00155
2134.08	5.38742
2136.61	6.9678
2139.14	5.20638
2141.67	6.21036
2144.2	5.71628
2146.73	3.24483
2149.26	4.93536
2151.79	7.84333
2154.32	7.38288
2156.85	6.91005
2159.375	5.23284
2161.9	3.66856
2164.43	4.32919
2166.96	6.25146
2169.49	5.97397
2172.02	2.07245
2174.55	4.67017
2177.08	6.02569
2179.61	5.78645
2182.14	5.0236
2184.67	5.60531
2187.2	6.5432
2189.73	5.20161
2192.26	3.26379
2194.79	5.38198
2197.32	6.58079
2199.85	3.01875
2202.38	3.98971
2204.91	5.29262
2207.44	5.16529
2209.97	7.02074
2212.5	5.12427
2215.03	7.54235
2217.56	6.69202
2220.09	6.36869
2222.62	6.21348
2225.15	5.49896
2227.68	4.24881
2230.21	8.14595
2232.74	0.224689
2235.27	6.51226
2237.8	8.43757
2240.33	2.95891
2242.86	5.44074
2245.39	3.25378
2247.92	5.79114
2250.45	3.58099
2252.98	5.59867
2255.51	2.75145
2258.04	7.18678
2260.57	2.8299
2263.1	4.25107
2265.625	7.39609
2268.15	1.86125
2270.68	5.31422
2273.21	3.96888
2275.74	5.70459
2278.27	7.96806
2280.8	1.76501
2283.33	4.28591
2285.86	7.48046
2288.39	5.9319
2290.92	9.01651
2293.45	8.00336
2295.98	4.42934
2298.51	4.8969
2301.04	5.95894
2303.57	6.55539
2306.1	6.39784
2308.63	4.36928
2311.16	7.43296
2313.69	8.28938
2316.22	7.56205
2318.75	7.5055
2321.28	7.46534
2323.81	8.14312
2326.34	11.1367
2328.87	10.0841
2331.4	12.5966
2333.93	19.0895
2336.46	23.3732
2338.99	16.6634
2341.52	9.2082
2344.05	7.75519
2346.58	6.35101
2349.11	7.30779
2351.64	8.77673
2354.17	8.23468
2356.7	5.99884
2359.23	7.94752
2361.76	12.9991
2364.29	12.4037
2366.82	9.55118
2369.35	10.0743
2371.875	11.2563
2374.4	12.023
2376.93	13.0325
2379.46	10.2592
2381.99	11.1558
2384.52	10.3865
2387.05	12.0305
2389.58	13.0569
2392.11	10.5282
2394.64	10.0597
2397.17	14.5891
2399.7	16.497
2402.23	15.2171
2404.76	15.6783
2407.29	14.8814
2409.82	17.8901
2412.35	22.7377
2414.88	22.178
2417.41	25.7632
2419.94	24.4169
2422.47	25.2163
2425	30.8058
2427.53	37.4481
2430.06	43.3587
2432.59	50.7693
2435.12	61.006
2437.65	75.7281
2440.18	86.3832
2442.71	84.6642
2445.24	84.1696
2447.77	73.5575
2450.3	64.98
2452.83	55.187
2455.36	47.6471
2457.89	43.4713
2460.42	37.5134
2462.95	31.1636
2465.48	29.3294
2468.01	24.1524
2470.54	27.5943
2473.07	26.3587
2475.6	28.4281
2478.125	26.1649
2480.65	24.0553
2483.18	24.7255
2485.71	20.967
2488.24	23.4522
2490.77	26.1027
2493.3	25.4291
2495.83	23.4338
2498.36	22.1826
2500.89	21.9311
2503.42	20.7196
2505.95	21.5547
2508.48	23.0349
2511.01	21.4666
2513.54	21.9403
2516.07	22.319
2518.6	20.7417
2521.13	22.0142
2523.66	21.3738
2526.19	23.7574
2528.72	23.8077
2531.25	22.3584
2533.78	22.4043
2536.31	20.9413
2538.84	22.2203
2541.37	24.4108
2543.9	20.8066
2546.43	21.0351
2548.96	22.8716
2551.49	19.7535
2554.02	16.6543
2556.55	15.51
2559.08	19.781
2561.61	17.283
2564.14	19.8479
2566.67	17.2782
2569.2	14.5954
2571.73	16.2055
2574.26	16.8328
2576.79	13.9787
2579.32	13.7845
2581.85	16.3248
2584.375	18.9834
2586.9	16.1098
2589.43	14.5287
2591.96	13.7237
2594.49	20.427
2597.02	14.3107
2599.55	13.6349
2602.08	16.6743
2604.61	14.4836
2607.14	16.0165
2609.67	16.0764
2612.2	15.3304
2614.73	14.4028
2617.26	15.7305
2619.79	14.7272
2622.32	12.5183
2624.85	13.385
2627.38	13.536
2629.91	9.71563
2632.44	16.5745
2634.97	16.4287
2637.5	17.5638
2640.03	19.8121
2642.56	16.1983
2645.09	15.3583
2647.62	15.1845
2650.15	16.4323
2652.68	15.4024
2655.21	17.1907
2657.74	15.2747
2660.27	15.1476
2662.8	14.39
2665.33	17.567
2667.86	19.0189
2670.39	17.0171
2672.92	18.9372
2675.45	20.3867
2677.98	20.2967
2680.51	19.0662
2683.04	18.8559
2685.57	16.7004
2688.1	18.8955
2690.625	18.5979
2693.15	19.2055
2695.68	18.0043
2698.21	22.2961
2700.74	21.7729
2703.27	21.2028
2705.8	21.1097
2708.33	20.4106
2710.86	19.7275
2713.39	20.1637
2715.92	18.6717
2718.45	18.6544
2720.98	18.3776
2723.51	19.9073
2726.04	20.5273
2728.57	20.6096
2731.1	15.4258
2733.63	20.8335
2736.16	17.6521
2738.69	18.0603
2741.22	17.8745
2743.75	14.1332
2746.28	16.6675
2748.81	17.3304
2751.34	17.1992
2753.87	15.7846
2756.4	18.0454
2758.93	19.7914
2761.46	18.5579
2763.99	17.0352
2766.52	20.2587
2769.05	18.5551
2771.58	18.1106
2774.11	16.1075
2776.64	16.9706
2779.17	19.1816
2781.7	17.0549
2784.23	18.5506
2786.76	20.114
2789.29	20.8242
2791.82	17.9118
2794.35	21.0129
2796.875	16.962
2799.4	18.9203
2801.93	21.2973
2804.46	19.4673
2806.99	19.6071
2809.52	19.9199
2812.05	19.7914
2814.58	19.2005
2817.11	17.679
2819.64	20.1265
2822.17	16.5908
2824.7	15.7358
2827.23	17.5151
2829.76	15.8503
2832.29	16.0068
2834.82	18.9057
2837.35	22.7045
2839.88	22.6122
2842.41	21.4454
2844.94	16.2549
2847.47	19.3103
2850	21.6462
2852.53	19.3675
2855.06	19.8321
2857.59	18.2152
2860.12	20.6807
2862.65	22.4022
2865.18	19.2606
2867.71	22.9383
2870.24	23.0424
2872.77	21.4533
2875.3	18.4368
2877.83	21.1149
2880.36	16.5793
2882.89	19.2784
2885.42	22.0683
2887.95	21.0197
2890.48	21.1147
2893.01	20.2427
2895.54	18.3067
2898.07	21.2241
2900.6	20.8202
2903.125	22.9305
2905.65	23.383
2908.18	22.7117
2910.71	25.2192
2913.24	23.0029
2915.77	22.8372
2918.3	26.7502
2920.83	21.0897
2923.36	25.0598
2925.89	20.7956
2928.42	22.0985
2930.95	21.6475
2933.48	24.1315
2936.01	27.4225
2938.54	24.1799
2941.07	25.6108
2943.6	27.6461
2946.13	32.858
2948.66	29.9132
2951.19	34.4822
2953.72	27.3676
2956.25	27.4248
2958.78	29.6917
2961.31	29.2373
2963.84	22.5169
2966.37	22.6474
2968.9	21.7611
2971.43	24.1182
2973.96	24.6651
2976.49	22.2143
2979.02	23.0093
2981.55	21.6676
2984.08	19.3504
2986.61	15.4954
2989.14	22.0946
2991.67	23.307
2994.2	18.3898
2996.73	19.119
2999.26	18.7652
3001.79	18.8996
3004.32	16.4864
3006.85	19.9977
3009.375	17.8528
3011.9	17.8303
3014.43	17.3585
3016.96	16.4095
3019.49	22.2051
3022.02	18.9108
3024.55	16.3488
3027.08	17.6067
3029.61	21.6441
3032.14	21.4887
3034.67	17.7881
3037.2	17.2795
3039.73	17.5649
3042.26	16.4389
3044.79	17.1907
3047.32	17.5601
3049.85	22.1552
3052.38	17.9462
3054.91	16.1523
3057.44	14.8708
3059.97	15.0001
3062.5	19.2166
3065.03	18.1081
3067.56	17.0574
3070.09	18.9037
3072.62	17.6226
3075.15	18.3503
3077.68	12.3558
3080.21	14.6473
3082.74	15.4151
3085.27	18.846
3087.8	20.1647
3090.33	21.414
3092.86	19.2198
3095.39	19.0623
3097.92	17.9058
3100.45	17.5635
3102.98	23.016
3105.51	19.4889
3108.04	15.9581
3110.57	17.8391
3113.1	20.4102
3115.625	18.0932
3118.15	17.9307
3120.68	18.085
3123.21	17.4837
3125.74	18.8978
3128.27	20.0426
3130.8	16.1613
3133.33	18.9245
3135.86	17.8761
3138.39	20.568
3140.92	17.7427
3143.45	22.1956
3145.98	19.9516
3148.51	17.0419
3151.04	21.1707
3153.57	22.9352
3156.1	20.5652
3158.63	17.1087
3161.16	23.1716
3163.69	23.1714
3166.22	14.1619
3168.75	21.6937
3171.28	16.4692
3173.81	16.7253
3176.34	21.5725
3178.87	20.6249
3181.4	24.9038
3183.93	21.8432
3186.46	20.508
3188.99	19.7879
3191.52	18.2209
3194.05	18.548
3196.58	26.4679
3199.11	22.9685
3201.64	22.278
3204.17	20.4273
3206.7	20.4795
3209.23	20.4892
3211.76	24.8385
3214.29	22.8384
3216.82	20.4198
3219.35	20.8394
3221.875	19.3719
3224.4	18.4841
3226.93	21.4956
3229.46	22.5695
3231.99	27.9486
3234.52	22.1379
3237.05	22.6066
3239.58	21.2962
3242.11	24.0819
3244.64	18.4237
3247.17	22.0413
3249.7	23.8173
3252.23	21.8384
3254.76	20.9861
3257.29	19.3816
3259.82	24.0954
3262.35	22.3387
3264.88	20.8215
3267.41	23.4185
3269.94	20.9406
3272.47	22.698
3275	17.5328
3277.53	25.5419
3280.06	25.2351
3282.59	22.0346
3285.12	21.9508
3287.65	19.2805
3290.18	19.9724
3292.71	18.2204
3295.24	24.6558
3297.77	23.265
3300.3	22.1376
3302.83	21.4038
3305.36	19.3869
3307.89	24.2369
3310.42	23.4453
3312.95	18.1687
3315.48	22.4567
3318.01	18.6852
3320.54	21.2742
3323.07	22.2933
3325.6	23.1811
3328.125	22.2852
3330.65	20.4692
3333.18	21.6057
3335.71	19.9614
3338.24	23.2264
3340.77	18.068
3343.3	18.5197
3345.83	23.0609
3348.36	22.1487
3350.89	23.4841
3353.42	22.2273
3355.95	23.1504
3358.48	26.1238
3361.01	20.3746
3363.54	21.0975
3366.07	19.7172
3368.6	22.8211
3371.13	26.8815
3373.66	26.8665
3376.19	26.733
3378.72	25.1558
3381.25	19.3033
3383.78	23.5971
3386.31	19.7074
3388.84	22.8583
3391.37	22.488
3393.9	26.3055
3396.43	25.5492
3398.96	23.9812
3401.49	28.0029
3404.02	26.9317
3406.55	24.2111
3409.08	25.3423
3411.61	19.8259
3414.14	23.2913
3416.67	29.615
3419.2	26.7664
3421.73	26.3603
3424.26	23.7426
3426.79	28.9648
3429.32	22.6954
3431.85	25.1569
3434.375	27.8572
3436.9	25.0405
3439.43	26.9332
3441.96	28.8469
3444.49	26.6439
3447.02	23.1617
3449.55	28.6456
3452.08	21.0736
3454.61	22.5279
3457.14	24.8198
3459.67	25.5299
3462.2	19.3199
3464.73	24.2554
3467.26	22.0354
3469.79	24.6332
3472.32	30.3178
3474.85	29.3824
3477.38	25.3593
3479.91	28.7558
3482.44	24.8525
3484.97	26.3875
3487.5	27.7609
3490.03	24.5896
3492.56	23.8215
3495.09	23.9335
3497.62	24.4331
3500.15	30.1266
3502.68	25.6626
3505.21	20.2029
3507.74	27.7974
3510.27	25.6999
3512.8	22.7287
3515.33	21.981
3517.86	26.1184
3520.39	27.9161
3522.92	26.8198
3525.45	24.0747
3527.98	22.3555
3530.51	24.3667
3533.04	22.4319
3535.57	24.6078
3538.1	23.9753
3540.625	26.5169
3543.15	29.8547
3545.68	29.6195
3548.21	26.98
3550.74	25.4877
3553.27	24.9398
3555.8	28.68
3558.33	30.43
3560.86	25.3689
3563.39	24.4039
3565.92	24.969
3568.45	23.3339
3570.98	25.9992
3573.51	25.5021
3576.04	26.2442
3578.57	27.1362
3581.1	28.7005
3583.63	33.2272
3586.16	26.9467
3588.69	21.1343
3591.22	23.3091
3593.75	26.6474
3596.28	30.0007
3598.81	27.8029
3601.34	26.0606
3603.87	26.7256
3606.4	27.4393
3608.93	24.7601
3611.46	27.3391
3613.99	24.2233
3616.52	21.7136
3619.05	25.2971
3621.58	29.4315
3624.11	27.9553
3626.64	31.3668
3629.17	25.6198
3631.7	27.1995
3634.23	29.429
3636.76	30.8757
3639.29	31.9227
3641.82	33.6132
3644.35	27.7855
3646.875	26.711
3649.4	25.8197
3651.93	26.748
3654.46	29.517
3656.99	26.5186
3659.52	25.0647
3662.05	29.067
3664.58	29.3248
3667.11	28.7065
3669.64	27.6183
3672.17	24.6524
3674.7	29.0719
3677.23	35.5368
3679.76	23.4583
3682.29	30.2941
3684.82	30.238
3687.35	34.4597
3689.88	35.7674
3692.41	31.4506
3694.94	36.7463
3697.47	30.992
3700	28.2558