File: Example Data/Raman/Kara/12-20-10/Si-Graphene/7bulk/SGbulk_4.txt
300	94.3244
302.53	97.2795
305.06	102.649
307.589	109.046
310.119	116.477
312.649	121.304
315.179	124.532
317.708	126.13
320.238	125.713
322.768	122.154
325.298	131.783
327.827	135.5
330.357	138.455
332.887	143.764
335.417	142.549
337.946	140.634
340.476	142.099
343.006	146.251
345.536	150.589
348.065	151.259
350.595	149.636
353.125	150.716
355.655	150.68
358.185	149.62
360.714	148.814
363.244	142.883
365.774	149.437
368.304	149.442
370.833	146.169
373.363	144.938
375.893	142.904
378.423	143.804
380.952	143.102
383.482	142.199
386.012	142.504
388.542	144.808
391.071	147.66
393.601	145.358
396.131	146.617
398.661	148.167
401.19	144.126
403.72	139.798
406.25	135.249
408.78	136.981
411.31	138.525
413.839	139.263
416.369	149.151
418.899	145.064
421.429	145.62
423.958	149.226
426.488	153.711
429.018	158.304
431.548	170.581
434.077	169.069
436.607	172.114
439.137	175.639
441.667	178.577
444.196	188.629
446.726	204.874
449.256	212.507
451.786	217.526
454.315	219.902
456.845	221.121
459.375	239.031
461.905	243.736
464.435	245.971
466.964	248.023
469.494	248.374
472.024	243.767
474.554	246.4
477.083	255.946
479.613	262.038
482.143	268.107
484.673	276.39
487.202	278.779
489.732	263.274
492.262	250.624
494.792	233.98
497.321	213.541
499.851	195.431
502.381	192.13
504.911	178.073
507.44	165.109
509.97	150.362
512.5	137.733
515.03	135.227
517.56	126.457
520.089	113.617
522.619	104.93
525.149	98.2527
527.679	89.9572
530.208	78.435
532.738	77.0271
535.268	73.6039
537.798	72.7237
540.327	70.377
542.857	64.3444
545.387	60.449
547.917	56.8821
550.446	56.603
552.976	54.4415
555.506	53.9604
558.036	57.276
560.565	55.1163
563.095	53.2846
565.625	52.0466
568.155	52.4299
570.685	53.524
573.214	53.6505
575.744	51.7355
578.274	52.9261
580.804	55.0202
583.333	53.3911
585.863	51.8033
588.393	53.6481
590.923	49.4782
593.452	52.5087
595.982	54.8963
598.512	52.7312
601.042	51.2711
603.571	54.5128
606.101	51.9232
608.631	52.3141
611.161	51.404
613.69	53.2988
616.22	54.9614
618.75	53.1554
621.28	51.519
623.81	53.2767
626.339	53.8733
628.869	51.8647
631.399	49.5054
633.929	49.6081
636.458	52.8224
638.988	50.9779
641.518	52.4808
644.048	51.4912
646.577	51.1539
649.107	53.1675
651.637	54.0952
654.167	50.3976
656.696	51.7244
659.226	50.9429
661.756	48.5361
664.286	47.6045
666.815	50.2097
669.345	49.5367
671.875	44.8854
674.405	47.3989
676.935	51.6116
679.464	53.4488
681.994	51.1131
684.524	44.1533
687.054	49.973
689.583	48.6391
692.113	44.9096
694.643	43.7076
697.173	45.6129
699.702	46.2535
702.232	49.2929
704.762	47.7007
707.292	45.1033
709.821	44.4755
712.351	44.9451
714.881	44.3835
717.411	46.0759
719.94	49.6025
722.47	48.5986
725	47.7472
727.53	47.4377
730.06	47.111
732.589	47.7559
735.119	50.8932
737.649	50.5113
740.179	49.3182
742.708	48.099
745.238	48.769
747.768	50.4702
750.298	43.6335
752.827	55.5281
755.357	55.5858
757.887	53.9055
760.417	51.972
762.946	50.226
765.476	50.3553
768.006	50.7808
770.536	49.8245
773.065	51.0616
775.595	53.1419
778.125	53.6265
780.655	51.107
783.185	47.2815
785.714	51.7154
788.244	47.504
790.774	50.8178
793.304	55.2504
795.833	56.8281
798.363	55.544
800.893	52.5212
803.423	54.6572
805.952	57.2482
808.482	53.8334
811.012	55.1319
813.542	58.0143
816.071	54.4306
818.601	53.2425
821.131	54.2705
823.661	52.978
826.19	57.7666
828.72	60.044
831.25	58.7959
833.78	59.2306
836.31	60.4488
838.839	64.0514
841.369	62.5457
843.899	58.9698
846.429	59.6805
848.958	61.3533
851.488	59.6254
854.018	63.1243
856.548	61.7483
859.077	61.6767
861.607	61.3236
864.137	63.5407
866.667	64.7734
869.196	62.5103
871.726	63.1852
874.256	61.8065
876.786	59.9501
879.315	58.2506
881.845	58.328
884.375	58.6173
886.905	57.7544
889.435	56.8478
891.964	55.639
894.494	56.0179
897.024	54.2808
899.554	53.6128
902.083	53.8713
904.613	54.686
907.143	56.0525
909.673	55.636
912.202	49.5785
914.732	53.8545
917.262	52.2105
919.792	48.6902
922.321	48.3014
924.851	50.1699
927.381	49.2097
929.911	51.2907
932.44	48.8525
934.97	52.025
937.5	51.134
940.03	48.0346
942.56	47.1012
945.089	48.3
947.619	48.1753
950.149	44.873
952.679	43.3425
955.208	42.4866
957.738	42.3535
960.268	41.0481
962.798	39.0791
965.327	39.9533
967.857	38.2107
970.387	40.8854
972.917	42.481
975.446	38.5095
977.976	36.6638
980.506	37.5228
983.036	36.8364
985.565	35.6602
988.095	36.1842
990.625	35.3528
993.155	32.0273
995.685	29.3726
998.214	30.2282
1000.74	32.609
1003.27	33.5054
1005.8	34.4043
1008.33	32.5662
1010.86	31.5715
1013.39	32.8407
1015.92	28.7465
1018.45	26.5931
1020.98	28.5387
1023.51	29.8737
1026.04	28.8521
1028.57	26.7466
1031.1	28.8469
1033.63	29.7893
1036.16	27.7256
1038.69	26.3986
1041.22	26.3885
1043.75	27.0284
1046.28	29.513
1048.81	29.5383
1051.34	23.7292
1053.87	26.924
1056.4	26.0203
1058.93	24.7939
1061.46	24.4532
1063.99	23.9538
1066.52	22.5581
1069.05	17.9828
1071.58	24.0657
1074.11	22.6154
1076.64	21.6383
1079.17	21.6338
1081.7	20.3041
1084.23	16.0386
1086.76	12.9875
1089.29	17.97
1091.82	14.0101
1094.35	18.609
1096.875	19.3542
1099.4	16.3189
1101.93	15.4567
1104.46	16.4833
1106.99	16.7507
1109.52	15.5481
1112.05	13.1177
1114.58	15.4224
1117.11	12.8438
1119.64	13.8876
1122.17	13.2642
1124.7	13.2222
1127.23	14.8155
1129.76	15.947
1132.29	14.8264
1134.82	13.6708
1137.35	14.5596
1139.88	12.3073
1142.41	12.1215
1144.94	11.6976
1147.47	11.6589
1150	11.3699
1152.53	11.4349
1155.06	13.1919
1157.59	12.2361
1160.12	11.5233
1162.65	10.2921
1165.18	11.2317
1167.71	12.5053
1170.24	12.5149
1172.77	10.6769
1175.3	9.57763
1177.83	11.2
1180.36	10.9335
1182.89	8.81383
1185.42	11.6752
1187.95	9.22642
1190.48	10.6298
1193.01	12.8213
1195.54	11.8893
1198.07	10.9043
1200.6	12.0914
1203.125	10.4056
1205.65	8.90592
1208.18	8.99557
1210.71	9.25574
1213.24	9.5998
1215.77	10.7995
1218.3	10.6385
1220.83	11.2359
1223.36	12.8
1225.89	12.3245
1228.42	11.0999
1230.95	12.9473
1233.48	11.5987
1236.01	9.99967
1238.54	10.0666
1241.07	10.4532
1243.6	11.5063
1246.13	11.4758
1248.66	10.7013
1251.19	11.135
1253.72	10.4769
1256.25	9.61974
1258.78	7.72624
1261.31	14.2548
1263.84	10.4362
1266.37	11.2886
1268.9	11.0493
1271.43	10.6977
1273.96	11.9713
1276.49	12.2823
1279.02	12.6848
1281.55	11.633
1284.08	5.47965
1286.61	10.2177
1289.14	11.6051
1291.67	11.1802
1294.2	11.2566
1296.73	13.0508
1299.26	14.4374
1301.79	13.0416
1304.32	10.2361
1306.85	9.4266
1309.375	10.3409
1311.9	11.4302
1314.43	14.6426
1316.96	15.7303
1319.49	16.7659
1322.02	17.8324
1324.55	18.4452
1327.08	18.6786
1329.61	18.2258
1332.14	17.2605
1334.67	18.9056
1337.2	20.9891
1339.73	17.893
1342.26	19.1521
1344.79	20.8542
1347.32	20.3524
1349.85	17.3692
1352.38	18.8055
1354.91	22.2481
1357.44	21.9482
1359.97	19.8123
1362.5	17.8614
1365.03	20.8505
1367.56	18.7493
1370.09	18.4321
1372.62	20.1758
1375.15	18.1468
1377.68	16.9454
1380.21	14.4828
1382.74	13.7205
1385.27	15.6504
1387.8	16.1923
1390.33	14.4631
1392.86	12.4079
1395.39	11.9104
1397.92	14.0204
1400.45	16.306
1402.98	13.9593
1405.51	12.2224
1408.04	12.7546
1410.57	13.3555
1413.1	13.0209
1415.625	12.9143
1418.15	12.6826
1420.68	10.7757
1423.21	10.2157
1425.74	12.8554
1428.27	9.72752
1430.8	11.0691
1433.33	11.3668
1435.86	11.0979
1438.39	12.4215
1440.92	13.1
1443.45	12.058
1445.98	10.7452
1448.51	9.89722
1451.04	9.34457
1453.57	9.21146
1456.1	7.52235
1458.63	8.46716
1461.16	11.0546
1463.69	13.8244
1466.22	16.1833
1468.75	17.2825
1471.28	17.1583
1473.81	14.0775
1476.34	11.8791
1478.87	9.98593
1481.4	8.4099
1483.93	9.11986
1486.46	9.86546
1488.99	10.9527
1491.52	11.6703
1494.05	6.83395
1496.58	12.0333
1499.11	11.4195
1501.64	8.62868
1504.17	10.0672
1506.7	9.46465
1509.23	8.32232
1511.76	9.26461
1514.29	11.3603
1516.82	11.2206
1519.35	9.58183
1521.875	10.2753
1524.4	9.84575
1526.93	10.4669
1529.46	17.4514
1531.99	20.619
1534.52	15.0657
1537.05	11.6386
1539.58	8.62102
1542.11	11.5111
1544.64	10.754
1547.17	13.0115
1549.7	13.1527
1552.23	11.9108
1554.76	14.5888
1557.29	16.5744
1559.82	16.1254
1562.35	16.0626
1564.88	18.0879
1567.41	17.8102
1569.94	14.7201
1572.47	15.6306
1575	16.8278
1577.53	15.1478
1580.06	17.0031
1582.59	16.3705
1585.12	15.5143
1587.65	17.1847
1590.18	17.11
1592.71	15.9051
1595.24	16.7878
1597.77	18.3878
1600.3	18.6722
1602.83	15.2036
1605.36	17.747
1607.89	15.7384
1610.42	18.6385
1612.95	20.6147
1615.48	17.1847
1618.01	17.4749
1620.54	15.5572
1623.07	13.1063
1625.6	12.9372
1628.125	13.1385
1630.65	11.4804
1633.18	10.6017
1635.71	10.5986
1638.24	10.6076
1640.77	11.2994
1643.3	11.2401
1645.83	11.4421
1648.36	10.7459
1650.89	9.97659
1653.42	9.94535
1655.95	12.0471
1658.48	6.83662
1661.01	8.58882
1663.54	9.6513
1666.07	12.5961
1668.6	11.5826
1671.13	11.1391
1673.66	9.84784
1676.19	10.1074
1678.72	9.06597
1681.25	10.4503
1683.78	11.5921
1686.31	9.2218
1688.84	9.71465
1691.37	10.1407
1693.9	7.71645
1696.43	6.85163
1698.96	10.727
1701.49	9.79315
1704.02	5.20969
1706.55	7.30127
1709.08	7.77743
1711.61	8.43568
1714.14	7.72452
1716.67	7.92596
1719.2	6.53911
1721.73	6.46163
1724.26	8.43046
1726.79	7.78108
1729.32	7.13524
1731.85	6.32148
1734.375	6.44826
1736.9	7.21806
1739.43	7.53456
1741.96	8.59426
1744.49	9.1325
1747.02	8.80434
1749.55	7.92006
1752.08	8.12191
1754.61	7.1037
1757.14	5.5
1759.67	5.76249
1762.2	9.17324
1764.73	11.3809
1767.26	9.59272
1769.79	13.5994
1772.32	14.8716
1774.85	14.6672
1777.38	14.8378
1779.91	14.6738
1782.44	13.813
1784.97	10.4518
1787.5	9.06394
1790.03	10.5444
1792.56	9.69374
1795.09	8.51097
1797.62	7.91443
1800.15	7.32725
1802.68	8.56204
1805.21	9.9
1807.74	9.79585
1810.27	8.82073
1812.8	7.1277
1815.33	7.36981
1817.86	8.23349
1820.39	9.11625
1822.92	7.13163
1825.45	6.19632
1827.98	6.95559
1830.51	6.44961
1833.04	7.6169
1835.57	9.45583
1838.1	7.04318
1840.625	8.08743
1843.15	8.46465
1845.68	9.18141
1848.21	9.38212
1850.74	9.4
1853.27	7.04193
1855.8	7.32317
1858.33	5.94555
1860.86	6.20912
1863.39	9.27527
1865.92	9.09951
1868.45	6.45509
1870.98	6.08367
1873.51	7.33872
1876.04	6.68854
1878.57	6.12125
1881.1	8.15488
1883.63	7.41785
1886.16	6.19655
1888.69	9.05054
1891.22	7.51187
1893.75	5.22934
1896.28	5.52986
1898.81	6.96959
1901.34	9.72498
1903.87	7.62061
1906.4	9.21728
1908.93	8.32018
1911.46	7.20262
1913.99	5.66703
1916.52	6.33493
1919.05	8.011
1921.58	6.30521
1924.11	9.06702
1926.64	8.42611
1929.17	9.41021
1931.7	11.2714
1934.23	6.37596
1936.76	8.75338
1939.29	9.08524
1941.82	7.83026
1944.35	10.5416
1946.875	7.94221
1949.4	5.45602
1951.93	7.85091
1954.46	10.441
1956.99	10.8201
1959.52	7.90705
1962.05	8.7076
1964.58	6.80297
1967.11	7.09992
1969.64	5.77804
1972.17	7.6281
1974.7	6.49996
1977.23	4.82738
1979.76	5.09241
1982.29	4.04771
1984.82	4.43426
1987.35	7.69093
1989.88	8.75646
1992.41	7.45396
1994.94	6.33718
1997.47	4.86766
2000	4.887
2002.53	3.8084
2005.06	3.04443
2007.59	4.32502
2010.12	6.17567
2012.65	5.95003
2015.18	5.47999
2017.71	6.54803
2020.24	5.70527
2022.77	5.34653
2025.3	5.87333
2027.83	5.64452
2030.36	5.7874
2032.89	5.38507
2035.42	5.62799
2037.95	5.86272
2040.48	5.33818
2043.01	6.33868
2045.54	6.27458
2048.07	8.36372
2050.6	9.27199
2053.125	5.66749
2055.65	4.17722
2058.18	4.22532
2060.71	2.77331
2063.24	5.40511
2065.77	4.25224
2068.3	5.15792
2070.83	5.62729
2073.36	4.94689
2075.89	8.3467
2078.42	9.6994
2080.95	7.19463
2083.48	6.32719
2086.01	7.83068
2088.54	4.95396
2091.07	5.26407
2093.6	7.77281
2096.13	7.47233
2098.66	7.29442
2101.19	9.02977
2103.72	9.44864
2106.25	7.34585
2108.78	6.42965
2111.31	5.95327
2113.84	7.86419
2116.37	8.79556
2118.9	7.98318
2121.43	8.11871
2123.96	7.71285
2126.49	7.06769
2129.02	8.32144
2131.55	7.72178
2134.08	8.89226
2136.61	8.13049
2139.14	7.49123
2141.67	8.61108
2144.2	7.96599
2146.73	6.84466
2149.26	8.56582
2151.79	7.28836
2154.32	6.28232
2156.85	7.77264
2159.375	7.16045
2161.9	6.89768
2164.43	8.01476
2166.96	7.69726
2169.49	6.93961
2172.02	7.40886
2174.55	7.33313
2177.08	9.0659
2179.61	8.8737
2182.14	8.3436
2184.67	8.75106
2187.2	8.66388
2189.73	8.8595
2192.26	7.82183
2194.79	7.75926
2197.32	6.87595
2199.85	6.24885
2202.38	7.46426
2204.91	7.24725
2207.44	8.48224
2209.97	7.88643
2212.5	8.25295
2215.03	7.07349
2217.56	7.46939
2220.09	6.87138
2222.62	7.88482
2225.15	9.23333
2227.68	7.8709
2230.21	7.10298
2232.74	7.30327
2235.27	5.21578
2237.8	9.47479
2240.33	8.14087
2242.86	7.64464
2245.39	8.61315
2247.92	5.98365
2250.45	7.76063
2252.98	8.84844
2255.51	8.61576
2258.04	9.24901
2260.57	9.51904
2263.1	10.9834
2265.625	9.72233
2268.15	8.682
2270.68	9.08877
2273.21	9.37332
2275.74	9.30266
2278.27	7.89884
2280.8	8.7577
2283.33	6.99959
2285.86	9.82697
2288.39	8.8263
2290.92	8.29831
2293.45	8.88983
2295.98	9.27572
2298.51	9.20621
2301.04	8.80558
2303.57	9.00873
2306.1	8.08753
2308.63	9.05395
2311.16	8.81981
2313.69	8.91869
2316.22	9.00374
2318.75	8.14808
2321.28	8.78735
2323.81	8.05406
2326.34	9.42618
2328.87	12.1027
2331.4	16.3718
2333.93	20.1257
2336.46	23.5707
2338.99	17.8983
2341.52	12.2078
2344.05	10.4479
2346.58	10.8113
2349.11	10.2493
2351.64	10.2645
2354.17	9.88341
2356.7	9.40738
2359.23	8.43518
2361.76	10.6962
2364.29	8.93744
2366.82	9.07777
2369.35	9.50153
2371.875	10.2194
2374.4	10.1584
2376.93	12.7798
2379.46	12.9413
2381.99	13.0575
2384.52	12.1441
2387.05	11.5549
2389.58	13.009
2392.11	13.5558
2394.64	13.5265
2397.17	15.1387
2399.7	15.2421
2402.23	17.6053
2404.76	19.2188
2407.29	17.1646
2409.82	18.0916
2412.35	20.0703
2414.88	23.3567
2417.41	21.9125
2419.94	27.2406
2422.47	30.3839
2425	34.245
2427.53	39.5949
2430.06	43.3489
2432.59	52.2918
2435.12	66.4017
2437.65	73.9337
2440.18	84.0961
2442.71	86.1958
2445.24	82.6447
2447.77	79.7763
2450.3	67.9839
2452.83	56.4795
2455.36	48.4137
2457.89	44.7059
2460.42	40.0101
2462.95	37.2256
2465.48	30.3371
2468.01	29.9857
2470.54	29.8085
2473.07	27.0021
2475.6	29.4368
2478.125	26.4281
2480.65	26.3957
2483.18	27.1697
2485.71	27.4255
2488.24	27.1954
2490.77	25.9707
2493.3	25.2582
2495.83	25.194
2498.36	21.3815
2500.89	24.8342
2503.42	24.1628
2505.95	20.4395
2508.48	22.7334
2511.01	24.4542
2513.54	25.183
2516.07	24.38
2518.6	23.6421
2521.13	24.2675
2523.66	24.9645
2526.19	25.0562
2528.72	23.8062
2531.25	22.916
2533.78	23.0789
2536.31	24.0324
2538.84	25.731
2541.37	24.8861
2543.9	22.8654
2546.43	22.0275
2548.96	20.9462
2551.49	23.7007
2554.02	20.0695
2556.55	18.987
2559.08	17.9507
2561.61	18.9795
2564.14	18.4441
2566.67	17.4091
2569.2	17.7369
2571.73	16.2949
2574.26	18.3828
2576.79	17.9923
2579.32	16.442
2581.85	17.7332
2584.375	17.7941
2586.9	16.8247
2589.43	16.8467
2591.96	17.4231
2594.49	17.9756
2597.02	16.385
2599.55	16.8214
2602.08	15.7494
2604.61	16.5056
2607.14	16.5966
2609.67	17.6812
2612.2	18.0208
2614.73	17.9214
2617.26	17.265
2619.79	17.0893
2622.32	18.4276
2624.85	14.5088
2627.38	17.2012
2629.91	17.676
2632.44	18.4862
2634.97	17.0939
2637.5	16.0605
2640.03	18.6844
2642.56	19.2825
2645.09	17.1595
2647.62	16.9249
2650.15	15.9451
2652.68	16.6027
2655.21	17.2852
2657.74	17.215
2660.27	18.4653
2662.8	16.579
2665.33	21.7563
2667.86	17.8189
2670.39	20.4214
2672.92	18.6663
2675.45	19.3125
2677.98	19.0098
2680.51	17.6616
2683.04	18.4813
2685.57	20.2904
2688.1	22.7782
2690.625	21.0693
2693.15	20.8503
2695.68	18.5673
2698.21	18.6509
2700.74	18.6618
2703.27	20.8487
2705.8	20.0683
2708.33	20.8391
2710.86	21.536
2713.39	21.9197
2715.92	21.8403
2718.45	19.7278
2720.98	18.6744
2723.51	21.3465
2726.04	19.0145
2728.57	18.5399
2731.1	20.0701
2733.63	17.3574
2736.16	19.3517
2738.69	19.042
2741.22	18.5282
2743.75	19.1503
2746.28	19.829
2748.81	20.0643
2751.34	19.275
2753.87	19.4208
2756.4	19.4017
2758.93	17.4218
2761.46	19.9869
2763.99	20.5751
2766.52	20.1551
2769.05	20.8878
2771.58	18.7849
2774.11	21.4505
2776.64	19.5373
2779.17	18.761
2781.7	18.8828
2784.23	19.3135
2786.76	21.3316
2789.29	18.9393
2791.82	20.3194
2794.35	18.5109
2796.875	20.672
2799.4	20.4803
2801.93	17.2066
2804.46	18.0609
2806.99	17.5018
2809.52	19.3624
2812.05	19.8644
2814.58	21.502
2817.11	21.8284
2819.64	19.3826
2822.17	18.7043
2824.7	18.6846
2827.23	17.7788
2829.76	20.1348
2832.29	19.0282
2834.82	18.643
2837.35	21.2296
2839.88	22.6541
2842.41	19.6489
2844.94	20.3224
2847.47	18.6954
2850	20.3351
2852.53	19.582
2855.06	20.0343
2857.59	21.4459
2860.12	21.9938
2862.65	20.9141
2865.18	19.5305
2867.71	21.8225
2870.24	22.3416
2872.77	20.8628
2875.3	20.1913
2877.83	21.4735
2880.36	21.7194
2882.89	21.4022
2885.42	23.1378
2887.95	21.5207
2890.48	22.4151
2893.01	21.7085
2895.54	22.7395
2898.07	24.8138
2900.6	19.4447
2903.125	20.7383
2905.65	19.8082
2908.18	19.2257
2910.71	20.1072
2913.24	21.605
2915.77	22.4748
2918.3	26.1237
2920.83	25.4883
2923.36	26.1953
2925.89	24.5591
2928.42	23.3838
2930.95	24.3852
2933.48	26.7734
2936.01	26.1675
2938.54	26.346
2941.07	25.0726
2943.6	26.936
2946.13	31.1152
2948.66	28.6324
2951.19	31.0703
2953.72	34.0493
2956.25	31.9982
2958.78	30.2517
2961.31	33.4258
2963.84	28.6973
2966.37	27.9771
2968.9	26.1309
2971.43	23.9473
2973.96	22.5774
2976.49	22.5036
2979.02	22.8289
2981.55	23.1481
2984.08	22.9478
2986.61	18.9242
2989.14	18.5267
2991.67	20.7168
2994.2	20.3199
2996.73	19.3341
2999.26	19.5306
3001.79	16.5218
3004.32	17.1652
3006.85	16.4016
3009.375	21.1666
3011.9	19.1421
3014.43	16.3675
3016.96	19.807
3019.49	20.1547
3022.02	19.9256
3024.55	20.6964
3027.08	23.9545
3029.61	18.8092
3032.14	20.1228
3034.67	19.7366
3037.2	20.1336
3039.73	20.6867
3042.26	20.1435
3044.79	17.9245
3047.32	21.6179
3049.85	18.4582
3052.38	18.912
3054.91	18.4378
3057.44	18.9366
3059.97	19.1491
3062.5	20.7655
3065.03	21.0855
3067.56	18.2182
3070.09	20.4624
3072.62	20.1104
3075.15	21.8489
3077.68	20.0034
3080.21	20.3228
3082.74	21.6123
3085.27	20.5129
3087.8	20.6124
3090.33	17.1541
3092.86	21.4279
3095.39	18.4965
3097.92	17.763
3100.45	20.2897
3102.98	19.8703
3105.51	20.1976
3108.04	18.8372
3110.57	20.2781
3113.1	19.3479
3115.625	19.9897
3118.15	21.9073
3120.68	20.1799
3123.21	20.8285
3125.74	21.4162
3128.27	20.6624
3130.8	21.4778
3133.33	21.9153
3135.86	20.6153
3138.39	18.9205
3140.92	20.1327
3143.45	17.3093
3145.98	21.7065
3148.51	20.6586
3151.04	21.5868
3153.57	19.4972
3156.1	20.3775
3158.63	19.6758
3161.16	19.5244
3163.69	18.2585
3166.22	23.4361
3168.75	21.8417
3171.28	19.6199
3173.81	20.1992
3176.34	22.4637
3178.87	19.2774
3181.4	23.3848
3183.93	21.0976
3186.46	24.0144
3188.99	21.5924
3191.52	19.044
3194.05	22.219
3196.58	22.22
3199.11	23.3451
3201.64	22.6567
3204.17	20.33
3206.7	19.991
3209.23	21.2293
3211.76	22.0366
3214.29	21.0428
3216.82	21.0301
3219.35	22.1371
3221.875	21.4165
3224.4	23.9973
3226.93	23.6132
3229.46	19.5638
3231.99	19.7437
3234.52	21.4319
3237.05	22.6666
3239.58	22.2274
3242.11	22.1629
3244.64	23.9723
3247.17	22.4366
3249.7	22.4535
3252.23	23.3871
3254.76	24.7478
3257.29	23.24
3259.82	24.0043
3262.35	21.152
3264.88	22.8235
3267.41	21.7655
3269.94	22.0315
3272.47	20.7321
3275	21.2303
3277.53	23.1169
3280.06	21.7059
3282.59	24.3403
3285.12	22.9868
3287.65	19.5624
3290.18	23.2452
3292.71	24.0951
3295.24	23.8496
3297.77	21.7001
3300.3	24.1919
3302.83	23.3686
3305.36	23.8353
3307.89	25.3994
3310.42	24.153
3312.95	23.887
3315.48	21.6161
3318.01	23.6851
3320.54	23.4635
3323.07	22.266
3325.6	22.5011
3328.125	24.8316
3330.65	22.3166
3333.18	22.9648
3335.71	24.6897
3338.24	19.6314
3340.77	20.0174
3343.3	23.6065
3345.83	23.4321
3348.36	21.1127
3350.89	22.2258
3353.42	24.7278
3355.95	24.9273
3358.48	27.4339
3361.01	24.1934
3363.54	22.4492
3366.07	22.7755
3368.6	23.1013
3371.13	26.3131
3373.66	21.7271
3376.19	25.1954
3378.72	23.5363
3381.25	21.5856
3383.78	27.538
3386.31	23.7919
3388.84	23.1897
3391.37	24.3702
3393.9	22.1871
3396.43	23.2954
3398.96	22.5711
3401.49	24.7394
3404.02	24.4366
3406.55	22.9908
3409.08	23.2923
3411.61	27.8752
3414.14	26.1907
3416.67	24.8288
3419.2	28.0787
3421.73	27.7144
3424.26	29.7627
3426.79	28.3663
3429.32	29.9022
3431.85	30.7814
3434.375	28.0241
3436.9	28.4324
3439.43	26.5933
3441.96	25.4619
3444.49	24.3381
3447.02	22.9742
3449.55	25.7984
3452.08	27.1215
3454.61	25.8995
3457.14	25.667
3459.67	24.2845
3462.2	23.8463
3464.73	27.6653
3467.26	27.5893
3469.79	26.3983
3472.32	28.0015
3474.85	26.669
3477.38	25.9045
3479.91	26.9946
3482.44	26.4263
3484.97	26.8763
3487.5	28.5893
3490.03	28.1013
3492.56	27.0151
3495.09	25.1121
3497.62	28.5268
3500.15	24.3391
3502.68	26.6102
3505.21	24.2743
3507.74	25.8141
3510.27	27.0032
3512.8	28.6358
3515.33	28.2328
3517.86	25.0851
3520.39	27.9366
3522.92	29.1801
3525.45	25.4615
3527.98	27.5824
3530.51	27.1774
3533.04	29.8547
3535.57	25.0128
3538.1	27.3981
3540.625	29.2366
3543.15	28.8843
3545.68	28.1366
3548.21	26.0429
3550.74	26.1433
3553.27	29.3889
3555.8	27.8388
3558.33	27.2152
3560.86	26.8614
3563.39	27.7887
3565.92	27.6599
3568.45	28.5128
3570.98	29.2899
3573.51	30.3955
3576.04	29.1092
3578.57	28.1797
3581.1	29.89
3583.63	27.7821
3586.16	26.916
3588.69	30.4183
3591.22	30.9512
3593.75	28.451
3596.28	28.8267
3598.81	33.402
3601.34	26.4863
3603.87	26.7823
3606.4	27.4284
3608.93	29.1671
3611.46	28.1366
3613.99	27.6657
3616.52	25.9567
3619.05	27.6949
3621.58	27.9119
3624.11	27.2503
3626.64	27.7937
3629.17	26.598
3631.7	28.485
3634.23	33.4818
3636.76	28.924
3639.29	30.4966
3641.82	28.5751
3644.35	29.6686
3646.875	30.5505
3649.4	27.5484
3651.93	25.3913
3654.46	26.2655
3656.99	31.0817
3659.52	26.4722
3662.05	27.6399
3664.58	26.2578
3667.11	29.8643
3669.64	27.8036
3672.17	29.2808
3674.7	29.3608
3677.23	30.7616
3679.76	29.4694
3682.29	28.5165
3684.82	30.3273
3687.35	31.2266
3689.88	26.3645
3692.41	29.6125
3694.94	30.2468
3697.47	28.8465
3700	28.9706