File: Example Data/Raman/Kara/12-20-10/Si-Graphene/7bulk/SGbulk_5.txt
300	37.8167
302.53	39.9847
305.06	42.1879
307.589	44.1614
310.119	41.4148
312.649	45.8021
315.179	47.2092
317.708	48.82
320.238	54.5771
322.768	55.8713
325.298	50.7532
327.827	52.136
330.357	58.6847
332.887	65.6
335.417	65.6
337.946	61.7119
340.476	61.7762
343.006	61.7227
345.536	61.1547
348.065	63.9378
350.595	61.5038
353.125	57.3956
355.655	58.497
358.185	64.0197
360.714	68.5664
363.244	64.1791
365.774	66.9861
368.304	58.3441
370.833	53.5742
373.363	63.0027
375.893	64.1417
378.423	62.1911
380.952	62.891
383.482	63.9604
386.012	63.7255
388.542	62.111
391.071	65.0447
393.601	62.5598
396.131	61.8579
398.661	61.981
401.19	59.5015
403.72	55.7453
406.25	54.0657
408.78	59.1811
411.31	60.9743
413.839	57.5607
416.369	61.5804
418.899	59.9456
421.429	60.7614
423.958	64.5504
426.488	68.8194
429.018	71.0216
431.548	76.0963
434.077	77.7808
436.607	80.876
439.137	82.2461
441.667	81.8645
444.196	85.4166
446.726	86.2371
449.256	86.7946
451.786	94.556
454.315	103.338
456.845	104.215
459.375	101.586
461.905	106.897
464.435	113.636
466.964	116.466
469.494	114.25
472.024	110.567
474.554	113.2
477.083	118.068
479.613	120.104
482.143	122.202
484.673	127.655
487.202	135.73
489.732	119.783
492.262	113.762
494.792	103.352
497.321	93.6413
499.851	93.935
502.381	85.0209
504.911	75.9503
507.44	70.1923
509.97	62.8749
512.5	56.5884
515.03	58.5769
517.56	53.7784
520.089	46.7992
522.619	43.7345
525.149	40.755
527.679	35.0793
530.208	28.4929
532.738	26.1741
535.268	22.8819
537.798	19.1908
540.327	17.494
542.857	18.2544
545.387	17.6664
547.917	22.3117
550.446	17.9615
552.976	18.1097
555.506	18.7402
558.036	15.024
560.565	17.1837
563.095	15.8797
565.625	15.2061
568.155	15.6834
570.685	16.464
573.214	17.0255
575.744	19.3567
578.274	19.2365
580.804	18.2899
583.333	18.7663
585.863	19.1034
588.393	17.4797
590.923	16.8125
593.452	14.1822
595.982	13.6
598.512	12.3335
601.042	12.4813
603.571	15.6943
606.101	16.1955
608.631	14.7093
611.161	15.9936
613.69	14.4012
616.22	12.2686
618.75	13.6269
621.28	17.6145
623.81	18.9537
626.339	18.38
628.869	16.4376
631.399	14.5695
633.929	13.1693
636.458	10.6987
638.988	13.0463
641.518	14.9671
644.048	14.0566
646.577	11.1606
649.107	10.5751
651.637	16.8814
654.167	13.0157
656.696	14.9992
659.226	12.9678
661.756	13.8418
664.286	17.057
666.815	15.1031
669.345	11.4018
671.875	12.9504
674.405	12.2521
676.935	10.1603
679.464	10.018
681.994	11.9433
684.524	6.64168
687.054	11.1962
689.583	11.4445
692.113	13.998
694.643	14.7194
697.173	13.0842
699.702	16.3211
702.232	10.5801
704.762	10
707.292	10.6051
709.821	10.6398
712.351	9.96342
714.881	10.0236
717.411	13.747
719.94	13.2996
722.47	11.5667
725	12.0661
727.53	13.4998
730.06	13.556
732.589	11.9723
735.119	11.6332
737.649	12.5183
740.179	14.0273
742.708	12.4886
745.238	12.9113
747.768	18.9989
750.298	14.7619
752.827	11.3634
755.357	13.4941
757.887	13.3701
760.417	10.7627
762.946	9.54338
765.476	13.0876
768.006	15.3002
770.536	15.2374
773.065	14.8014
775.595	15.4258
778.125	14.5794
780.655	12.0209
783.185	13.0934
785.714	16.5041
788.244	13.2167
790.774	12.453
793.304	14.4477
795.833	16.4
798.363	16.904
800.893	18.8836
803.423	16.8331
805.952	15.994
808.482	13.3491
811.012	16.5744
813.542	19.9936
816.071	15.4767
818.601	14.1488
821.131	17.7466
823.661	18.649
826.19	18.3157
828.72	18.4624
831.25	18.1691
833.78	16.9322
836.31	19.2228
838.839	14.9341
841.369	14.7007
843.899	16.6314
846.429	17.3308
848.958	17.1281
851.488	18.1752
854.018	19.5445
856.548	14.9004
859.077	17.7751
861.607	18.0471
864.137	17.7953
866.667	19.1171
869.196	20.8635
871.726	19.6143
874.256	19.7867
876.786	22.0271
879.315	18.9175
881.845	17.52
884.375	18.6123
886.905	18.7159
889.435	16.2175
891.964	17.9443
894.494	22.5132
897.024	17.9425
899.554	16.9532
902.083	15.5165
904.613	14.1338
907.143	17.9133
909.673	13.2844
912.202	16.3996
914.732	19.365
917.262	16.6001
919.792	14.887
922.321	14.6226
924.851	13.6401
927.381	15.6894
929.911	20.5449
932.44	11.103
934.97	11.7592
937.5	11.3265
940.03	10.4262
942.56	10.5872
945.089	9.43651
947.619	8.78372
950.149	13.6504
952.679	10.959
955.208	10.2567
957.738	10.5024
960.268	9.91228
962.798	8.95164
965.327	9.05468
967.857	6.61496
970.387	8.50576
972.917	7.32378
975.446	5.33648
977.976	6.52026
980.506	6.17704
983.036	2.12726
985.565	4.94108
988.095	7.91034
990.625	3.42497
993.155	7.35901
995.685	8.60527
998.214	7.3562
1000.74	7.01801
1003.27	8.15637
1005.8	8.03727
1008.33	8.38739
1010.86	9.24406
1013.39	5.07786
1015.92	4.71254
1018.45	3.61376
1020.98	2.86776
1023.51	5.19272
1026.04	3.30419
1028.57	-0.906788
1031.1	1.40448
1033.63	3.56795
1036.16	3.83118
1038.69	3.6
1041.22	3.6
1043.75	2.49546
1046.28	-0.279715
1048.81	3.18879
1051.34	2.13259
1053.87	1.38448
1056.4	2.36982
1058.93	0.66607
1061.46	0.90307
1063.99	3.43961
1066.52	0.801244
1069.05	-2.83358
1071.58	-0.188822
1074.11	-0.983289
1076.64	-2.60417
1079.17	-0.744632
1081.7	-0.963414
1084.23	-2.0772
1086.76	-0.609368
1089.29	-2.38802
1091.82	-0.805461
1094.35	-3.28177
1096.875	-2.67473
1099.4	-2.92445
1101.93	-3.84859
1104.46	-3.3778
1106.99	-3.05946
1109.52	-6.15068
1112.05	-9.11628
1114.58	-8.22986
1117.11	-6.31495
1119.64	-0.942065
1122.17	-3.23856
1124.7	-2.90385
1127.23	-2.18729
1129.76	-5.38832
1132.29	-6.36229
1134.82	-4.55583
1137.35	-6.51104
1139.88	-6.93966
1142.41	-4.6368
1144.94	-6.06078
1147.47	-6.67515
1150	-5.6738
1152.53	-5.55783
1155.06	-5.98386
1157.59	-4.32785
1160.12	-5.7535
1162.65	-5.10975
1165.18	-6.50887
1167.71	-7.25867
1170.24	-7.61558
1172.77	-6.42003
1175.3	-5.11842
1177.83	-6.28697
1180.36	-6.17812
1182.89	-2.80519
1185.42	-3.87821
1187.95	-4.95094
1190.48	-6.84884
1193.01	-7.48368
1195.54	-7.3047
1198.07	-6.53047
1200.6	-4.54346
1203.125	-3.24664
1205.65	-8.52895
1208.18	-7.45313
1210.71	-5.86553
1213.24	-7.24887
1215.77	-6.11842
1218.3	-5.30879
1220.83	-6.28281
1223.36	-7.33211
1225.89	-6.29663
1228.42	-3.97246
1230.95	-7.49466
1233.48	-4.79741
1236.01	-4.93341
1238.54	-4.85338
1241.07	-5.3064
1243.6	-6.34636
1246.13	-6.13245
1248.66	-5
1251.19	-5.32994
1253.72	-6.59155
1256.25	-7.6777
1258.78	-4.79236
1261.31	-4.09457
1263.84	-5.48937
1266.37	-7.16488
1268.9	-6.47941
1271.43	-4.49296
1273.96	-2.90056
1276.49	-2.7291
1279.02	-4.86585
1281.55	-5.37857
1284.08	-7.73131
1286.61	-2.88234
1289.14	-4.23705
1291.67	-5.62642
1294.2	-4.81118
1296.73	-5.70092
1299.26	-6.66851
1301.79	-5.47477
1304.32	-5.28796
1306.85	-5.27085
1309.375	-3.06822
1311.9	-4.88372
1314.43	-3.64105
1316.96	-3.4
1319.49	-2.73391
1322.02	-1.59516
1324.55	-1.48396
1327.08	-2.47165
1329.61	-2.17241
1332.14	0.793841
1334.67	3
1337.2	2.95434
1339.73	1.67949
1342.26	-1.64592
1344.79	-2.8123
1347.32	-2.45854
1349.85	-2.08229
1352.38	-1.39897
1354.91	-0.386579
1357.44	-0.58221
1359.97	-2.10452
1362.5	-1.49654
1365.03	0.251988
1367.56	0.982865
1370.09	0.464201
1372.62	-1.69869
1375.15	-2.2
1377.68	-4.4917
1380.21	-6.13103
1382.74	-4.53245
1385.27	-2.70606
1387.8	-1.76645
1390.33	0.740952
1392.86	-3.18902
1395.39	-8.11192
1397.92	-2.60774
1400.45	-5.4002
1402.98	-4.19955
1405.51	-6.67362
1408.04	-5.63614
1410.57	-5.06588
1413.1	-5.03136
1415.625	-5.26423
1418.15	-6.47523
1420.68	-6.10733
1423.21	-5.52696
1425.74	-3.94244
1428.27	-3.20647
1430.8	-6.66839
1433.33	-7
1435.86	-7.75524
1438.39	-6.10471
1440.92	-7.11616
1443.45	-3.39841
1445.98	-1.01729
1448.51	-4.0197
1451.04	-4.05303
1453.57	-3.24248
1456.1	-3.45438
1458.63	-3.78806
1461.16	-3.60324
1463.69	-4.87137
1466.22	-3.66672
1468.75	-4.30996
1471.28	-5.28345
1473.81	-7.54836
1476.34	-8.47906
1478.87	-8.38447
1481.4	-7.28291
1483.93	-5.89099
1486.46	-6.43468
1488.99	-4.30969
1491.52	-8.64591
1494.05	-7.27176
1496.58	-10.0571
1499.11	-8.08674
1501.64	-6.18102
1504.17	-3.88048
1506.7	-5.87071
1509.23	-4.45331
1511.76	-4.70768
1514.29	-5.22811
1516.82	-5.22829
1519.35	-7.67272
1521.875	-6.70171
1524.4	-4.96168
1526.93	-5.9695
1529.46	-1.05345
1531.99	-2.17142
1534.52	-1.65475
1537.05	-3.11485
1539.58	-3.09013
1542.11	-4.27449
1544.64	-7.3669
1547.17	-6.2671
1549.7	-4.19606
1552.23	-3.46682
1554.76	-3.25487
1557.29	-4.62815
1559.82	-5.15216
1562.35	-2.63701
1564.88	-1.92588
1567.41	4.10087
1569.94	-0.768392
1572.47	-0.427756
1575	0.641047
1577.53	-4.03173
1580.06	-4.01131
1582.59	-4.82526
1585.12	-3.4187
1587.65	-4.43091
1590.18	-6.00134
1592.71	-5.18979
1595.24	-4.32495
1597.77	-3.75885
1600.3	-2.29009
1602.83	-1.89447
1605.36	-5.93843
1607.89	-2.87696
1610.42	-1.41465
1612.95	-2.16752
1615.48	-5.6252
1618.01	-4.31269
1620.54	-3.84286
1623.07	-3.8
1625.6	-2.59139
1628.125	-2.12296
1630.65	-6.10936
1633.18	-5.2838
1635.71	-5.05686
1638.24	-8.35057
1640.77	-5.46146
1643.3	-3.76814
1645.83	-4.83164
1648.36	-6.76035
1650.89	-5.41276
1653.42	-4.02528
1655.95	-4.42885
1658.48	-7.27094
1661.01	-6.31519
1663.54	-4.66766
1666.07	-5.99775
1668.6	-7.1467
1671.13	-8.92963
1673.66	-9.47122
1676.19	-7.74081
1678.72	-7.57539
1681.25	-7.31884
1683.78	-6.02362
1686.31	-4.54879
1688.84	-4.17078
1691.37	-7.02478
1693.9	-6.35685
1696.43	-5.83305
1698.96	-6.62489
1701.49	-5.98989
1704.02	-9.36067
1706.55	-4.79848
1709.08	-4.22708
1711.61	-9.6487
1714.14	-6.92573
1716.67	-5.42211
1719.2	-4.43111
1721.73	-6.9484
1724.26	-5.96615
1726.79	-6.77207
1729.32	-4.97708
1731.85	-3.65234
1734.375	-7.39414
1736.9	-8.32579
1739.43	-6.58688
1741.96	-7.92643
1744.49	-7.15008
1747.02	-7.15655
1749.55	-9.39942
1752.08	-6.15407
1754.61	-7.93216
1757.14	-5.19426
1759.67	-3.84791
1762.2	-6.98089
1764.73	-6.40499
1767.26	-3.54639
1769.79	-5.76854
1772.32	-4.43109
1774.85	-1.20469
1777.38	-2.97796
1779.91	-4.6557
1782.44	-6.57399
1784.97	-4.89689
1787.5	-5.20662
1790.03	-6.12037
1792.56	-5.18398
1795.09	-6.82621
1797.62	-7.42886
1800.15	-4.07287
1802.68	-4.25869
1805.21	-5.7161
1807.74	-4.66644
1810.27	-7.92468
1812.8	-7.9784
1815.33	-6.91483
1817.86	-5.48337
1820.39	-6.11397
1822.92	-7.37551
1825.45	-6.21405
1827.98	-7.62993
1830.51	-3.25634
1833.04	-9.17332
1835.57	-6.26973
1838.1	-7.71189
1840.625	-6.70391
1843.15	-6.6
1845.68	-6.08894
1848.21	-6.4927
1850.74	-6.6
1853.27	-6.6
1855.8	-6.45383
1858.33	-3.59289
1860.86	-4.41824
1863.39	-5.78629
1865.92	-6
1868.45	-7.40992
1870.98	-5.26534
1873.51	-4.50326
1876.04	-4.99045
1878.57	-5.6248
1881.1	-7.49033
1883.63	-6.23877
1886.16	-5.91738
1888.69	-6.48119
1891.22	-4.99258
1893.75	-7.27665
1896.28	-6.36111
1898.81	-6.62176
1901.34	-8.34999
1903.87	-7.49797
1906.4	-8.63153
1908.93	-6.54386
1911.46	-6.79306
1913.99	-4.89492
1916.52	-6.68813
1919.05	-6.07
1921.58	-8.54007
1924.11	-5.0377
1926.64	-5.87833
1929.17	-8.78066
1931.7	-5.25419
1934.23	-7.9034
1936.76	-10.0805
1939.29	-7.05095
1941.82	-6.8
1944.35	-6.8
1946.875	-4.36418
1949.4	-8.08797
1951.93	-5.46556
1954.46	-7.90226
1956.99	-7.0019
1959.52	-3.94162
1962.05	-7.33384
1964.58	-4.70483
1967.11	-4.27994
1969.64	-5.03049
1972.17	-6.46405
1974.7	-9.47505
1977.23	-8.44761
1979.76	-8.18988
1982.29	-6.66816
1984.82	-4.21368
1987.35	-6.36107
1989.88	-4.81801
1992.41	-6.14764
1994.94	-6.98011
1997.47	-6.36617
2000	-8.35225
2002.53	-9.49142
2005.06	-7.59209
2007.59	-4.54161
2010.12	-5.75135
2012.65	-8.49999
2015.18	-9.48599
2017.71	-8.18274
2020.24	-6.84764
2022.77	-8.07708
2025.3	-9.30666
2027.83	-8.26302
2030.36	-4.72602
2032.89	-4.54403
2035.42	-4.28147
2037.95	-4.02561
2040.48	-7.98688
2043.01	-8.635
2045.54	-6.20452
2048.07	-6.4572
2050.6	-7.84995
2053.125	-8.02222
2055.65	-7.49097
2058.18	-7.18739
2060.71	-7.92774
2063.24	-7.59381
2065.77	-8.20844
2068.3	-6.27072
2070.83	-5.11784
2073.36	-7.34452
2075.89	-8.48744
2078.42	-5.43759
2080.95	-7.38197
2083.48	-7.27079
2086.01	-5.75315
2088.54	-3.70043
2091.07	-6.32658
2093.6	-6.34106
2096.13	-7.09785
2098.66	-6.50059
2101.19	-8.30431
2103.72	-5.54413
2106.25	-6.41904
2108.78	-8.07693
2111.31	-7.02724
2113.84	-7.06542
2116.37	-5.44008
2118.9	-3.40665
2121.43	-4.24296
2123.96	-7.32265
2126.49	-7.04358
2129.02	-7.50599
2131.55	-7.18495
2134.08	-5.25758
2136.61	-6.74817
2139.14	-8.42896
2141.67	-7.33776
2144.2	-6.54618
2146.73	-4.73668
2149.26	-6.39992
2151.79	-6.70625
2154.32	-7.98786
2156.85	-8.26247
2159.375	-5.74719
2161.9	-5.09747
2164.43	-6.97478
2166.96	-6.49199
2169.49	-7.26046
2172.02	-6.70719
2174.55	-5.32239
2177.08	-5.01208
2179.61	-7.74363
2182.14	-9.84064
2184.67	-8.32605
2187.2	-8.58652
2189.73	-5.69867
2192.26	-6.03323
2194.79	-7.82956
2197.32	-7.03603
2199.85	-5.80037
2202.38	-6.59091
2204.91	-5.22066
2207.44	-5.26914
2209.97	-7.10248
2212.5	-7.09201
2215.03	-8.58882
2217.56	-6.81054
2220.09	-5.43857
2222.62	-6.37247
2225.15	-6.38358
2227.68	-4.60301
2230.21	-6.87916
2232.74	-5.5052
2235.27	-4.87637
2237.8	-8.70975
2240.33	-9.529
2242.86	-6.50207
2245.39	-7.10805
2247.92	-6.38676
2250.45	-3.13739
2252.98	-6.88
2255.51	-2.33572
2258.04	-7.05315
2260.57	-2.46833
2263.1	-5.45576
2265.625	-6.27774
2268.15	-6.86053
2270.68	-6.03212
2273.21	-5.05395
2275.74	-5.53769
2278.27	-6.21193
2280.8	-4.18943
2283.33	-3.86031
2285.86	-6.0501
2288.39	-6.38857
2290.92	-5.0308
2293.45	-2.82229
2295.98	-5.59476
2298.51	-5.38714
2301.04	-5.11158
2303.57	-5.81052
2306.1	-5.42067
2308.63	-3.49121
2311.16	-4.42208
2313.69	-5.46035
2316.22	-4.53625
2318.75	-4.06824
2321.28	-3.89644
2323.81	-4.31885
2326.34	-6.43432
2328.87	-6.34195
2331.4	0.75564
2333.93	4.70631
2336.46	3.03369
2338.99	-0.199286
2341.52	-4.48496
2344.05	-2.2166
2346.58	-2.13099
2349.11	-2.60952
2351.64	-2.16356
2354.17	-6.2805
2356.7	-1.18648
2359.23	-2.0764
2361.76	-4.96796
2364.29	-2.48427
2366.82	-3.64044
2369.35	-3.1182
2371.875	-4.45455
2374.4	-3.3197
2376.93	-2.23106
2379.46	-2.2587
2381.99	-1.65909
2384.52	-2.22444
2387.05	-3.09351
2389.58	-2.45848
2392.11	0.589717
2394.64	0.678546
2397.17	-0.540881
2399.7	-1.70593
2402.23	0.321662
2404.76	-0.282972
2407.29	0.306463
2409.82	0.616374
2412.35	0.00931154
2414.88	2.00274
2417.41	2.50093
2419.94	4.50866
2422.47	8.51861
2425	9.20006
2427.53	8.49305
2430.06	10.8709
2432.59	14.7747
2435.12	25.3095
2437.65	28.0732
2440.18	35.6839
2442.71	36.5461
2445.24	32.3824
2447.77	29.476
2450.3	22.6276
2452.83	19.6304
2455.36	15.1035
2457.89	12.018
2460.42	8.68021
2462.95	7.69406
2465.48	6.26583
2468.01	7.62888
2470.54	2.85735
2473.07	4.98795
2475.6	2.84976
2478.125	5.01174
2480.65	4.84524
2483.18	4.1857
2485.71	3.01617
2488.24	4.05137
2490.77	3.64662
2493.3	0.896244
2495.83	4.0309
2498.36	2.65851
2500.89	1.37438
2503.42	0.87697
2505.95	3.21915
2508.48	2.90152
2511.01	3.39072
2513.54	2.08861
2516.07	2.36025
2518.6	1.65829
2521.13	2.52307
2523.66	1.56529
2526.19	3.78993
2528.72	3.46121
2531.25	3.25061
2533.78	1.66643
2536.31	3.84547
2538.84	3.49507
2541.37	1.95493
2543.9	1.31121
2546.43	0.182684
2548.96	3.12732
2551.49	2.87782
2554.02	1.42775
2556.55	1.86582
2559.08	-1.87492
2561.61	0.301306
2564.14	1.59439
2566.67	0.599429
2569.2	1.14968
2571.73	1.21189
2574.26	-0.94618
2576.79	-1.25463
2579.32	0.0913953
2581.85	-1.18082
2584.375	-0.229355
2586.9	2.57203
2589.43	0.85816
2591.96	1.83682
2594.49	-1.31614
2597.02	-1.06347
2599.55	0.344036
2602.08	1.22294
2604.61	0.0783625
2607.14	1.16495
2609.67	0.723356
2612.2	2.3305
2614.73	1.80636
2617.26	1.44923
2619.79	-0.115654
2622.32	-1.12302
2624.85	1.9136
2627.38	-0.0206679
2629.91	-0.910335
2632.44	1.74493
2634.97	-0.862885
2637.5	2.5737
2640.03	2.66075
2642.56	1.03172
2645.09	0.0367246
2647.62	-0.768524
2650.15	-0.420873
2652.68	-0.117689
2655.21	0.485904
2657.74	0.593874
2660.27	-0.0642587
2662.8	1.49443
2665.33	3.42738
2667.86	1.23194
2670.39	-1.93608
2672.92	0.141341
2675.45	1.62833
2677.98	0.101186
2680.51	0.335814
2683.04	1.43543
2685.57	1.5864
2688.1	2.15249
2690.625	1.60466
2693.15	1.82912
2695.68	-0.0111346
2698.21	0.87653
2700.74	4.14732
2703.27	3.80728
2705.8	0.756031
2708.33	0.236427
2710.86	3.34707
2713.39	2.98038
2715.92	0.870301
2718.45	-0.863587
2720.98	-0.451842
2723.51	1.53372
2726.04	3.32219
2728.57	2.23027
2731.1	0.456997
2733.63	1.30337
2736.16	2.23376
2738.69	-0.98793
2741.22	1.89323
2743.75	3.59501
2746.28	1.68937
2748.81	2.54062
2751.34	2.43342
2753.87	0.756824
2756.4	1.22454
2758.93	2.67291
2761.46	2.77085
2763.99	3.24911
2766.52	1.67335
2769.05	2.83894
2771.58	1.83876
2774.11	3.03858
2776.64	1.62816
2779.17	1.25326
2781.7	1.48875
2784.23	0.566069
2786.76	0.114778
2789.29	2.5238
2791.82	1.9523
2794.35	-0.199266
2796.875	0.775802
2799.4	0.664432
2801.93	3.08743
2804.46	3.59549
2806.99	2.92425
2809.52	2.91551
2812.05	4.3612
2814.58	5.06849
2817.11	2.76975
2819.64	-0.0603087
2822.17	2.78113
2824.7	0.264038
2827.23	1.15763
2829.76	1.46009
2832.29	0.41771
2834.82	0.911767
2837.35	2.60166
2839.88	2.23585
2842.41	3.4396
2844.94	2.88455
2847.47	3.90266
2850	2.92959
2852.53	2.79296
2855.06	1.77297
2857.59	0.538718
2860.12	2.2612
2862.65	2.49863
2865.18	4.9631
2867.71	4.85157
2870.24	4.56541
2872.77	5.56427
2875.3	3.28764
2877.83	2.84952
2880.36	5.00823
2882.89	1.74567
2885.42	1.52833
2887.95	1.52563
2890.48	0.89492
2893.01	4.54313
2895.54	3.32925
2898.07	0.364098
2900.6	7.56942
2903.125	6.00436
2905.65	5.9272
2908.18	4.5783
2910.71	3.59204
2913.24	4.58629
2915.77	5.94028
2918.3	4.18198
2920.83	3.75346
2923.36	4.60913
2925.89	5.67573
2928.42	6.41461
2930.95	5.08786
2933.48	3.16155
2936.01	3.98652
2938.54	7.21154
2941.07	8.67167
2943.6	6.62573
2946.13	9.46781
2948.66	10.2215
2951.19	6.95937
2953.72	7.67854
2956.25	7.76491
2958.78	9.74454
2961.31	5.4996
2963.84	3.85478
2966.37	6.1051
2968.9	8.10916
2971.43	8.74697
2973.96	4.7611
2976.49	4.61357
2979.02	2.13984
2981.55	2.17594
2984.08	5.01275
2986.61	6.24299
2989.14	3.22718
2991.67	0.710037
2994.2	2.58882
2996.73	3.61725
2999.26	3.8088
3001.79	2.54888
3004.32	0.301384
3006.85	2.02911
3009.375	3.75261
3011.9	-2.13395
3014.43	2.20887
3016.96	2.50221
3019.49	2.57269
3022.02	3.13724
3024.55	2.30026
3027.08	-0.86994
3029.61	2.78747
3032.14	2.64864
3034.67	2.93949
3037.2	3.05874
3039.73	3.08078
3042.26	2.54619
3044.79	2.18517
3047.32	-0.0248618
3049.85	4.57022
3052.38	-0.255135
3054.91	-1.28518
3057.44	3.61962
3059.97	1.27471
3062.5	-0.343673
3065.03	1.7466
3067.56	0.68513
3070.09	3.43745
3072.62	-0.205858
3075.15	2.40383
3077.68	3.83324
3080.21	1.39669
3082.74	0.793403
3085.27	-0.132337
3087.8	1.67619
3090.33	3.62703
3092.86	1.19499
3095.39	3.2148
3097.92	2.9869
3100.45	3.37243
3102.98	2.30161
3105.51	3.35689
3108.04	0.0737338
3110.57	-1.01898
3113.1	1.08638
3115.625	1.89605
3118.15	2.89346
3120.68	2.24584
3123.21	1.49079
3125.74	2.17383
3128.27	1.48652
3130.8	3.04669
3133.33	2.77059
3135.86	0.126081
3138.39	3.09909
3140.92	5.03483
3143.45	6.4409
3145.98	1.91106
3148.51	4.53099
3151.04	0.480887
3153.57	3.0715
3156.1	3.07897
3158.63	3.07897
3161.16	3.07897
3163.69	3.07897
3166.22	3.63382
3168.75	1.88405
3171.28	0.418205
3173.81	1.23922
3176.34	4.78809
3178.87	7.62981
3181.4	2.20441
3183.93	5.37355
3186.46	1.59848
3188.99	2.03865
3191.52	5.34326
3194.05	3.57661
3196.58	1.73751
3199.11	4.16636
3201.64	4.38017
3204.17	5.96498
3206.7	6.00205
3209.23	4.44933
3211.76	3.8449
3214.29	4.63111
3216.82	4.18161
3219.35	4.97489
3221.875	2.84025
3224.4	2.62054
3226.93	7.23402
3229.46	3.10465
3231.99	3.00636
3234.52	1.17074
3237.05	4.19157
3239.58	5.85567
3242.11	5.09443
3244.64	5.51186
3247.17	0.0927317
3249.7	4.82715
3252.23	0.788004
3254.76	2.32804
3257.29	3.78361
3259.82	3.07848
3262.35	7.09497
3264.88	2.90949
3267.41	2.2636
3269.94	1.49301
3272.47	1.05289
3275	3.99298
3277.53	2.20764
3280.06	4.53101
3282.59	5.33115
3285.12	7.06533
3287.65	7.48654
3290.18	5.23368
3292.71	-1.01367
3295.24	1.94962
3297.77	2.74015
3300.3	0.986607
3302.83	1.79481
3305.36	5.32346
3307.89	4.22343
3310.42	3.47498
3312.95	9.1363
3315.48	5.05324
3318.01	2.69757
3320.54	5.32698
3323.07	4.79642
3325.6	1.86065
3328.125	5.13977
3330.65	4.8125
3333.18	5.61493
3335.71	5.30397
3338.24	4.09932
3340.77	7.07814
3343.3	3.65478
3345.83	3.97232
3348.36	1.6815
3350.89	2.31339
3353.42	6.21984
3355.95	6.34317
3358.48	6.24017
3361.01	4.38464
3363.54	6.27367
3366.07	3.13038
3368.6	3.11834
3371.13	1.40415
3373.66	3.20711
3376.19	3.33045
3378.72	1.60922
3381.25	1.99122
3383.78	4.11177
3386.31	3.66512
3388.84	8.99633
3391.37	4.1697
3393.9	3.51293
3396.43	2.89367
3398.96	4.83483
3401.49	4.59823
3404.02	4.23483
3406.55	3.77827
3409.08	3.25698
3411.61	7.97127
3414.14	4.70929
3416.67	4.13563
3419.2	4.79289
3421.73	5.40888
3424.26	4.83941
3426.79	8.86744
3429.32	9.97414
3431.85	7.96911
3434.375	5.17739
3436.9	5.03276
3439.43	6.46812
3441.96	4.83483
3444.49	4.27201
3447.02	4.88861
3449.55	5.23483
3452.08	6.46493
3454.61	7.60539
3457.14	5.16686
3459.67	6.46089
3462.2	9.70424
3464.73	8.69238
3467.26	7.84567
3469.79	6.9479
3472.32	5.70501
3474.85	4.70698
3477.38	2.64222
3479.91	6.81275
3482.44	3.84513
3484.97	5.95307
3487.5	6.77593
3490.03	3.48527
3492.56	4.78193
3495.09	8.1543
3497.62	6.52231
3500.15	7.41015
3502.68	5.66097
3505.21	6.81844
3507.74	8.45731
3510.27	6.946
3512.8	4.88195
3515.33	7.43581
3517.86	4.23357
3520.39	7.99049
3522.92	9.11122
3525.45	5.40343
3527.98	2.82941
3530.51	8.19676
3533.04	5.30561
3535.57	4.44012
3538.1	4.28223
3540.625	8.02707
3543.15	9.15415
3545.68	7.2349
3548.21	6.44416
3550.74	7.49917
3553.27	6.81022
3555.8	6.63483
3558.33	5.66133
3560.86	6.48522
3563.39	3.96238
3565.92	3.6857
3568.45	6.38735
3570.98	7.58636
3573.51	10.0348
3576.04	6.84396
3578.57	7.29811
3581.1	5.42368
3583.63	4.8128
3586.16	5.95539
3588.69	6.75686
3591.22	4.82055
3593.75	5.99808
3596.28	5.88876
3598.81	10.0174
3601.34	5.42092
3603.87	4.06301
3606.4	6.85925
3608.93	6.05068
3611.46	6.66942
3613.99	7.3887
3616.52	7.52773
3619.05	6.49037
3621.58	9.58286
3624.11	9.46238
3626.64	7.84302
3629.17	4.10729
3631.7	6.46669
3634.23	6.61887
3636.76	4.76637
3639.29	4.24054
3641.82	6.93154
3644.35	11.9754
3646.875	5.90028
3649.4	4.9053
3651.93	7.00359
3654.46	8.12081
3656.99	8.94202
3659.52	10.9999
3662.05	7.80113
3664.58	8.97691
3667.11	4.71947
3669.64	8.66709
3672.17	5.57436
3674.7	8.60939
3677.23	6.44306
3679.76	13.566
3682.29	10.6977
3684.82	7.126
3687.35	6.83165
3689.88	9.19258
3692.41	4.18665
3694.94	6.59166
3697.47	7.88061
3700	9.67893