File: Example Data/Raman/Kara/12-20-10/Si-Graphene/7bulk/SGbulk_1.txt
300	29.5846
302.53	32.7492
305.06	36.3334
307.589	40.9333
310.119	37.8637
312.649	37.6744
315.179	37.6023
317.708	40.7275
320.238	48.2008
322.768	46.7448
325.298	46.8915
327.827	45.8163
330.357	48.1371
332.887	54.0538
335.417	52.2718
337.946	46.7566
340.476	47.9052
343.006	53.309
345.536	57.0907
348.065	51.4953
350.595	55.2276
353.125	52.1381
355.655	52.4594
358.185	57.0592
360.714	61.343
363.244	58.7432
365.774	59.6698
368.304	57.1936
370.833	54.0022
373.363	53.4896
375.893	55.1167
378.423	56.1272
380.952	58.3953
383.482	58.0353
386.012	55.9607
388.542	58.1295
391.071	61.5522
393.601	56.1196
396.131	52.4281
398.661	51.2735
401.19	50.5851
403.72	54.9946
406.25	57.6238
408.78	53.9351
411.31	52.1255
413.839	55.7685
416.369	58.953
418.899	55.0295
421.429	52.3933
423.958	57.6082
426.488	64.6874
429.018	64.6206
431.548	66.4213
434.077	69.9948
436.607	71.423
439.137	71.1476
441.667	73.308
444.196	85.1734
446.726	83.8607
449.256	91.3608
451.786	94.5392
454.315	96.6493
456.845	102.886
459.375	96.6426
461.905	98.0325
464.435	101.176
466.964	104.223
469.494	105.77
472.024	105.282
474.554	109.725
477.083	115.567
479.613	120.303
482.143	119.839
484.673	114.634
487.202	114.799
489.732	113.002
492.262	103.36
494.792	95.3084
497.321	89.3181
499.851	80.9259
502.381	67.7198
504.911	67.5682
507.44	60.553
509.97	52.6593
512.5	48.6
515.03	48.279
517.56	44.6387
520.089	37.5083
522.619	32.1162
525.149	30.8697
527.679	31.0891
530.208	25.2393
532.738	21.7611
535.268	20.0883
537.798	16.0385
540.327	15.129
542.857	17.5431
545.387	9.23082
547.917	11.3876
550.446	11.2627
552.976	12.104
555.506	12.6685
558.036	11.7631
560.565	12.5937
563.095	13.7553
565.625	9.79867
568.155	10.3336
570.685	11.3436
573.214	7.00488
575.744	4.84017
578.274	9.37751
580.804	10.53
583.333	10.1169
585.863	8.20675
588.393	5.95194
590.923	10.1218
593.452	8.72747
595.982	9.83532
598.512	9.43095
601.042	8.84403
603.571	9.50854
606.101	5.83291
608.631	9.44389
611.161	10.2
613.69	10.6998
616.22	9.65561
618.75	6.97901
621.28	8.76025
623.81	5.07733
626.339	5.9033
628.869	8.68319
631.399	9.66727
633.929	7.72405
636.458	6.51538
638.988	4.50319
641.518	10.611
644.048	9.23126
646.577	8.49806
649.107	10.9302
651.637	5.88918
654.167	4.54459
656.696	6.94919
659.226	10.1602
661.756	8.95825
664.286	4.81991
666.815	4.50021
669.345	9.71568
671.875	4.58975
674.405	4.85813
676.935	4.2643
679.464	4.08245
681.994	6.83678
684.524	5.01235
687.054	6.36185
689.583	5.62788
692.113	5.52285
694.643	7.175
697.173	9.71624
699.702	10.0957
702.232	1.65302
704.762	3.687
707.292	2.90584
709.821	3.33104
712.351	5.55486
714.881	6.31496
717.411	5.80723
719.94	5.96678
722.47	7.63334
725	6.60641
727.53	6.34903
730.06	7.44549
732.589	3.88414
735.119	9.81948
737.649	6.8799
740.179	9.35913
742.708	10.4905
745.238	9.94672
747.768	11.5359
750.298	11.1447
752.827	6.21692
755.357	10.221
757.887	12.2
760.417	12.5275
762.946	11.9606
765.476	9.0885
768.006	9.76929
770.536	6.06074
773.065	6.39587
775.595	6.79356
778.125	7.33663
780.655	8.73256
783.185	8.99459
785.714	6.60711
788.244	7.33477
790.774	9.11817
793.304	10.2917
795.833	11.6876
798.363	13.9551
800.893	14.2896
803.423	8.82169
805.952	10.7754
808.482	10.0069
811.012	9.18723
813.542	11.0828
816.071	14.4922
818.601	13.7379
821.131	7.39889
823.661	13.7848
826.19	11.5993
828.72	9.33981
831.25	12.0536
833.78	15.8936
836.31	15.3716
838.839	14.6855
841.369	13.698
843.899	15.5977
846.429	14.185
848.958	10.9344
851.488	11.5504
854.018	14.8095
856.548	14.9815
859.077	15.4602
861.607	11.3336
864.137	11.8264
866.667	13.1847
869.196	9.92619
871.726	10.7444
874.256	14.8805
876.786	16.4726
879.315	14.8272
881.845	13.072
884.375	10.9458
886.905	9.63145
889.435	12.9957
891.964	14.5498
894.494	14.0985
897.024	11.9009
899.554	7.95533
902.083	6.97023
904.613	9.73761
907.143	11.62
909.673	9.67498
912.202	12.4441
914.732	8.72626
917.262	10.5033
919.792	10.8415
922.321	8.77598
924.851	7.42783
927.381	5.66216
929.911	8.26334
932.44	3.14062
934.97	7.65642
937.5	6.0721
940.03	4.93083
942.56	8.5666
945.089	8.86324
947.619	1.11155
950.149	4.06628
952.679	6.56067
955.208	5.27463
957.738	3.27876
960.268	2.93489
962.798	4.30548
965.327	5.40535
967.857	2.61709
970.387	1.04074
972.917	1.09524
975.446	2.05372
977.976	0.672491
980.506	-0.194854
983.036	2.31817
985.565	3.07898
988.095	0.284391
990.625	1.89446
993.155	1.0463
995.685	-0.35157
998.214	-1.65629
1000.74	-1.98799
1003.27	-1.89805
1005.8	-3.95273
1008.33	0.248749
1010.86	2.08812
1013.39	0.0948597
1015.92	-1.63525
1018.45	-2.10542
1020.98	-2.34947
1023.51	-3.04525
1026.04	-3.2
1028.57	-3.2
1031.1	-3.5435
1033.63	-3.45267
1036.16	-5.73586
1038.69	-5.62237
1041.22	-3.62818
1043.75	-3.75309
1046.28	-5.94797
1048.81	-5.55702
1051.34	-1.50825
1053.87	-6.23193
1056.4	-5.07043
1058.93	-3.91826
1061.46	-6.25631
1063.99	-7.50374
1066.52	-4.05984
1069.05	-7.17781
1071.58	-6.82518
1074.11	-5.98059
1076.64	-8.1871
1079.17	-8.1477
1081.7	-7.68049
1084.23	-8.5614
1086.76	-9.975
1089.29	-10.8231
1091.82	-8.00468
1094.35	-10.1272
1096.875	-13.0216
1099.4	-9.60443
1101.93	-8.48099
1104.46	-10.5926
1106.99	-10.9536
1109.52	-8.6346
1112.05	-10.4
1114.58	-10.4
1117.11	-8.51495
1119.64	-8.2
1122.17	-7.44277
1124.7	-7.1037
1127.23	-8.58109
1129.76	-11.659
1132.29	-12.9963
1134.82	-7.99667
1137.35	-12.9735
1139.88	-8.9543
1142.41	-9.677
1144.94	-10.5768
1147.47	-10.5929
1150	-11.134
1152.53	-11.9614
1155.06	-11.5892
1157.59	-12.2881
1160.12	-11.0407
1162.65	-9.44693
1165.18	-10.4071
1167.71	-11.576
1170.24	-14.9103
1172.77	-14.9851
1175.3	-11.9296
1177.83	-12.7653
1180.36	-14.8444
1182.89	-15.1801
1185.42	-11.0669
1187.95	-8.85661
1190.48	-10.8733
1193.01	-11.3021
1195.54	-11.0859
1198.07	-11.6976
1200.6	-12.1465
1203.125	-12.1308
1205.65	-12.9066
1208.18	-14.5203
1210.71	-10.5081
1213.24	-14.5967
1215.77	-11.414
1218.3	-10.323
1220.83	-10.2758
1223.36	-8.87154
1225.89	-10.3509
1228.42	-12.9911
1230.95	-10.4562
1233.48	-11.8947
1236.01	-11.6666
1238.54	-6.90803
1241.07	-7.2256
1243.6	-10.9589
1246.13	-13.9808
1248.66	-14.1295
1251.19	-12.2115
1253.72	-11.7368
1256.25	-12.6535
1258.78	-13.9158
1261.31	-12.6522
1263.84	-10.166
1266.37	-10.4355
1268.9	-11.8804
1271.43	-12.4186
1273.96	-11.9146
1276.49	-10.3584
1279.02	-8.45364
1281.55	-13.6764
1284.08	-12.0476
1286.61	-11.6487
1289.14	-11.1299
1291.67	-8.79621
1294.2	-7.44335
1296.73	-9.00097
1299.26	-11.4502
1301.79	-11.2729
1304.32	-8.49213
1306.85	-7.95702
1309.375	-11.6908
1311.9	-8.78606
1314.43	-7.92053
1316.96	-7.04246
1319.49	-8.53183
1322.02	-8.02027
1324.55	-8.74224
1327.08	-9.49949
1329.61	-7.67911
1332.14	-7.6545
1334.67	-8.74667
1337.2	-9.61738
1339.73	-4.51796
1342.26	-8.12927
1344.79	-6.04466
1347.32	-5.47073
1349.85	-6.42397
1352.38	-5.89811
1354.91	-5.62684
1357.44	-7.25629
1359.97	-7.53164
1362.5	-5.61242
1365.03	-6.55305
1367.56	-3.08139
1370.09	-5.14319
1372.62	-8.14444
1375.15	-9.37723
1377.68	-9.47268
1380.21	-7.63451
1382.74	-8.62781
1385.27	-10.7879
1387.8	-9.85973
1390.33	-9.35571
1392.86	-7.1841
1395.39	-8.56324
1397.92	-11.6823
1400.45	-12.5059
1402.98	-11.4797
1405.51	-9.90687
1408.04	-7.99985
1410.57	-8.19881
1413.1	-8.62091
1415.625	-9.53563
1418.15	-11.5376
1420.68	-11.2147
1423.21	-10.0236
1425.74	-6.92951
1428.27	-8.58543
1430.8	-11.1557
1433.33	-12.7342
1435.86	-9.2238
1438.39	-10.7076
1440.92	-11.1617
1443.45	-9.8706
1445.98	-11.3286
1448.51	-12.9748
1451.04	-10.7952
1453.57	-10.5647
1456.1	-13.4544
1458.63	-13.9075
1461.16	-15.5708
1463.69	-10.5145
1466.22	-7.5001
1468.75	-6.69668
1471.28	-9.60716
1473.81	-10.7565
1476.34	-10.1721
1478.87	-10.5379
1481.4	-11.9423
1483.93	-12.2346
1486.46	-11.724
1488.99	-14.3369
1491.52	-15.3066
1494.05	-8.88611
1496.58	-12.2285
1499.11	-12.2239
1501.64	-12.2
1504.17	-12.9383
1506.7	-11.8646
1509.23	-11.0806
1511.76	-11.6323
1514.29	-11.9256
1516.82	-12.9181
1519.35	-14.2363
1521.875	-12.1012
1524.4	-10.8893
1526.93	-11.592
1529.46	-6.68419
1531.99	-4.26193
1534.52	-7.10802
1537.05	-12.4495
1539.58	-9.83647
1542.11	-11.7738
1544.64	-9.40634
1547.17	-7.16974
1549.7	-8.42758
1552.23	-9.00023
1554.76	-6.55958
1557.29	-4.45126
1559.82	-5.74809
1562.35	-7.66691
1564.88	-5.98147
1567.41	-4.37699
1569.94	-4.00243
1572.47	-6.04734
1575	-8.62911
1577.53	-11.4159
1580.06	-8.28534
1582.59	-7.95298
1585.12	-11.0005
1587.65	-10.7037
1590.18	-8.60401
1592.71	-8.26152
1595.24	-9.42559
1597.77	-10.3588
1600.3	-10.0629
1602.83	-11.0619
1605.36	-9.67538
1607.89	-9.67538
1610.42	-9.67538
1612.95	-9.67538
1615.48	-7.22462
1618.01	-10.3498
1620.54	-11.3857
1623.07	-10.5803
1625.6	-8.05136
1628.125	-7.73779
1630.65	-10.3222
1633.18	-11.5983
1635.71	-10.0405
1638.24	-8.75618
1640.77	-10.3408
1643.3	-11.5988
1645.83	-8.85723
1648.36	-11.3549
1650.89	-9.12978
1653.42	-8.82751
1655.95	-12.1981
1658.48	-12.0086
1661.01	-7.47995
1663.54	-13.4699
1666.07	-11.2447
1668.6	-10.1013
1671.13	-11.5296
1673.66	-12.8439
1676.19	-13.7926
1678.72	-11.4906
1681.25	-11.1657
1683.78	-13.1118
1686.31	-11.9052
1688.84	-11.0195
1691.37	-11.6071
1693.9	-10.0753
1696.43	-12.7612
1698.96	-12.8335
1701.49	-13.6931
1704.02	-9.08975
1706.55	-10.7919
1709.08	-7.74442
1711.61	-10.6876
1714.14	-13.068
1716.67	-11.7702
1719.2	-13.7067
1721.73	-14.5447
1724.26	-12.7017
1726.79	-13.4455
1729.32	-15.4586
1731.85	-14.7866
1734.375	-14.4984
1736.9	-14.8542
1739.43	-13.4598
1741.96	-11.4437
1744.49	-10.06
1747.02	-10.1478
1749.55	-10.0085
1752.08	-12.8834
1754.61	-12.0055
1757.14	-14.0857
1759.67	-13.3604
1762.2	-15.3299
1764.73	-13.2183
1767.26	-10.7269
1769.79	-10.2356
1772.32	-9.67703
1774.85	-10.0992
1777.38	-11.6268
1779.91	-8.53128
1782.44	-8.68781
1784.97	-8.65809
1787.5	-9.80662
1790.03	-10.7204
1792.56	-9.4453
1795.09	-11.3537
1797.62	-15.9639
1800.15	-16.7274
1802.68	-15.0327
1805.21	-14.3408
1807.74	-13.3917
1810.27	-11.6908
1812.8	-10.1296
1815.33	-13.2119
1817.86	-11.7082
1820.39	-11.2279
1822.92	-13.8071
1825.45	-11.4428
1827.98	-11.8592
1830.51	-12.4925
1833.04	-10.0196
1835.57	-12.1489
1838.1	-10.4991
1840.625	-13.1402
1843.15	-14.2822
1845.68	-15.0814
1848.21	-13.065
1850.74	-11.6511
1853.27	-14.4427
1855.8	-13.646
1858.33	-12.0175
1860.86	-13.8873
1863.39	-12.296
1865.92	-13.2623
1868.45	-14.6825
1870.98	-12.4729
1873.51	-10.0548
1876.04	-11.722
1878.57	-12.1841
1881.1	-10.5613
1883.63	-11.8508
1886.16	-13
1888.69	-12.4769
1891.22	-11.1126
1893.75	-11.8167
1896.28	-15.4389
1898.81	-14.2469
1901.34	-10.4
1903.87	-12.2568
1906.4	-10.0752
1908.93	-9.15965
1911.46	-10.9878
1913.99	-12.4826
1916.52	-14.9064
1919.05	-9.814
1921.58	-13.8769
1924.11	-12.3508
1926.64	-15.2486
1929.17	-9.61397
1931.7	-12.1609
1934.23	-17.7999
1936.76	-9.48872
1939.29	-10.1114
1941.82	-8.38608
1944.35	-9.97601
1946.875	-10.548
1949.4	-11.2813
1951.93	-13.7341
1954.46	-11.9141
1956.99	-11.0804
1959.52	-9.27987
1962.05	-13.5463
1964.58	-14.1011
1967.11	-12.7734
1969.64	-12.5435
1972.17	-12.6
1974.7	-12.875
1977.23	-11.9238
1979.76	-10.7418
1982.29	-11.1727
1984.82	-12.1041
1987.35	-10.9195
1989.88	-13.1404
1992.41	-12.8349
1994.94	-10.6215
1997.47	-13.0309
2000	-12.539
2002.53	-12.5716
2005.06	-12.5921
2007.59	-12.4584
2010.12	-13.5959
2012.65	-12.7
2015.18	-12.196
2017.71	-13.1685
2020.24	-12.2105
2022.77	-10.2924
2025.3	-11.0347
2027.83	-11.9781
2030.36	-12.2874
2032.89	-13.2582
2035.42	-11.9535
2037.95	-10.3426
2040.48	-13.1263
2043.01	-12.5562
2045.54	-10.209
2048.07	-9.31171
2050.6	-10.7143
2053.125	-11.4237
2055.65	-11.2092
2058.18	-12.9496
2060.71	-11.7629
2063.24	-10.1778
2065.77	-11.5006
2068.3	-14.0388
2070.83	-15.0486
2073.36	-11.7398
2075.89	-9.77466
2078.42	-9.24615
2080.95	-12.5664
2083.48	-13.2427
2086.01	-12.1468
2088.54	-13.5585
2091.07	-13.0017
2093.6	-15.8123
2096.13	-16.3242
2098.66	-11.3634
2101.19	-12.1872
2103.72	-12.9102
2106.25	-13.3559
2108.78	-12.171
2111.31	-12.2973
2113.84	-12.3384
2116.37	-13.2829
2118.9	-14.8824
2121.43	-12.3132
2123.96	-10.6863
2126.49	-11.7354
2129.02	-14.0182
2131.55	-12.9985
2134.08	-10.2723
2136.61	-9.95114
2139.14	-9.52009
2141.67	-8.44858
2144.2	-10.1835
2146.73	-10.1333
2149.26	-11.6545
2151.79	-9.42565
2154.32	-10.0625
2156.85	-9.70921
2159.375	-9.6841
2161.9	-10.0256
2164.43	-9.43007
2166.96	-9.76743
2169.49	-9.99162
2172.02	-10.9634
2174.55	-11.508
2177.08	-12.8122
2179.61	-13.1233
2182.14	-13.0473
2184.67	-12.0313
2187.2	-13.244
2189.73	-11.4484
2192.26	-12.3259
2194.79	-14.0539
2197.32	-13.7513
2199.85	-12.9013
2202.38	-11.7114
2204.91	-8.77103
2207.44	-10.8552
2209.97	-10.7793
2212.5	-9.33697
2215.03	-9.71958
2217.56	-12.7564
2220.09	-10.2399
2222.62	-12.2539
2225.15	-12.4372
2227.68	-10.6844
2230.21	-10.6308
2232.74	-11.8032
2235.27	-12.6992
2237.8	-12.9238
2240.33	-11.5212
2242.86	-8.20801
2245.39	-10.6495
2247.92	-8.74176
2250.45	-14.6169
2252.98	-15.7686
2255.51	-9.81572
2258.04	-9.01174
2260.57	-12.2117
2263.1	-11.5579
2265.625	-8.49928
2268.15	-9.66069
2270.68	-8.62604
2273.21	-9.78172
2275.74	-9.74291
2278.27	-11.1614
2280.8	-8.25808
2283.33	-12.2863
2285.86	-11.6124
2288.39	-10.5351
2290.92	-11.9421
2293.45	-11.658
2295.98	-9.76987
2298.51	-7.54597
2301.04	-9.56776
2303.57	-11.0767
2306.1	-11.1387
2308.63	-10.9971
2311.16	-10.871
2313.69	-9.65707
2316.22	-10.9706
2318.75	-9.72768
2321.28	-9.40167
2323.81	-10.249
2326.34	-9.83377
2328.87	-9.86408
2331.4	-5.41578
2333.93	-3.50331
2336.46	-4.14297
2338.99	-6.90061
2341.52	-8.28806
2344.05	-10.5482
2346.58	-10.7355
2349.11	-9.72233
2351.64	-9.83403
2354.17	-13.0897
2356.7	-12.5938
2359.23	-10.7077
2361.76	-7.36151
2364.29	-7.59943
2366.82	-10.5302
2369.35	-10.0776
2371.875	-8.93487
2374.4	-10.0893
2376.93	-7.48297
2379.46	-8.27895
2381.99	-10.2284
2384.52	-8.27352
2387.05	-7.14554
2389.58	-7.63607
2392.11	-8.12617
2394.64	-6.39629
2397.17	-5.55339
2399.7	-6.62873
2402.23	-5.53217
2404.76	-4.51909
2407.29	-5.74542
2409.82	-7.27517
2412.35	-5.40484
2414.88	-2.29786
2417.41	-3.81251
2419.94	-2.18766
2422.47	-1.6305
2425	2.97464
2427.53	6.21214
2430.06	9.59536
2432.59	13.9602
2435.12	16.2612
2437.65	24.8704
2440.18	29.3985
2442.71	29.5515
2445.24	30.8284
2447.77	22.5647
2450.3	18.6488
2452.83	12.0088
2455.36	8.40632
2457.89	5.72554
2460.42	4.72071
2462.95	2.89068
2465.48	1.58167
2468.01	4.90439
2470.54	-1.31493
2473.07	-0.0468116
2475.6	-1.94108
2478.125	1.25829
2480.65	0.506057
2483.18	1.84038
2485.71	-1.06555
2488.24	0.126388
2490.77	0.694359
2493.3	0.104473
2495.83	-0.956561
2498.36	-0.749862
2500.89	-0.560097
2503.42	-1.37658
2505.95	0.840402
2508.48	0.800565
2511.01	3.00973
2513.54	-1.27058
2516.07	-1.85265
2518.6	0.892997
2521.13	-0.285111
2523.66	-2.63209
2526.19	-2.20994
2528.72	-1.22571
2531.25	-0.928012
2533.78	-3.03709
2536.31	-3.9543
2538.84	-3.30964
2541.37	-3.70792
2543.9	-2.26101
2546.43	-1.98504
2548.96	-1.81538
2551.49	-4.75638
2554.02	-1.70213
2556.55	-1.44627
2559.08	-1.34119
2561.61	-1.99039
2564.14	-3.50017
2566.67	-4.87342
2569.2	-5.235
2571.73	-4.19584
2574.26	-5.12048
2576.79	-4.20125
2579.32	-4.85548
2581.85	-3.90456
2584.375	-2.02839
2586.9	-4.80838
2589.43	-5.63575
2591.96	-5.79747
2594.49	-4.41428
2597.02	-5.32674
2599.55	-6.15873
2602.08	-5.18593
2604.61	-3.30425
2607.14	-4.90163
2609.67	-4.97825
2612.2	-5.14314
2614.73	-3.39345
2617.26	-2.72947
2619.79	-5.43618
2622.32	-5.63732
2624.85	-3.97149
2627.38	-6.35211
2629.91	-5.1665
2632.44	-5.56106
2634.97	-4.02079
2637.5	-4.97393
2640.03	-3.13259
2642.56	-5.33434
2645.09	-4.46577
2647.62	-2.8703
2650.15	-1.92691
2652.68	-4.87669
2655.21	-3.88401
2657.74	-3.57693
2660.27	-0.814906
2662.8	-3.99248
2665.33	-2.79615
2667.86	-4.19352
2670.39	-2.38414
2672.92	-3.04391
2675.45	-3.63862
2677.98	-4.46694
2680.51	-1.88416
2683.04	-2.16662
2685.57	-1.81656
2688.1	-0.941649
2690.625	-2.26009
2693.15	-1.0243
2695.68	-2.02673
2698.21	-1.93956
2700.74	-3.71091
2703.27	-3.35936
2705.8	-2.42077
2708.33	-1.2019
2710.86	-0.353359
2713.39	-2.58517
2715.92	-1.40026
2718.45	-1.19709
2720.98	-1.61546
2723.51	-2.32108
2726.04	-2.02274
2728.57	-4.97126
2731.1	-2.1742
2733.63	-2.36316
2736.16	1.05951
2738.69	-1.01871
2741.22	-0.404736
2743.75	-2.37432
2746.28	-1.65827
2748.81	-3.60877
2751.34	-4.02517
2753.87	-4.11378
2756.4	-1.15926
2758.93	-1.38777
2761.46	-4.60753
2763.99	-2.95589
2766.52	0.0215622
2769.05	-3.71886
2771.58	-3.11299
2774.11	-1.49934
2776.64	-2.28666
2779.17	-2.5532
2781.7	-1.80006
2784.23	-2.19731
2786.76	1.03103
2789.29	-1.91007
2791.82	-1.57667
2794.35	1.43446
2796.875	-0.590463
2799.4	-1.47865
2801.93	-0.119811
2804.46	-2.08902
2806.99	-1.31042
2809.52	-0.279693
2812.05	-2.50614
2814.58	-2.47633
2817.11	-1.44198
2819.64	-1.54728
2822.17	-0.34741
2824.7	-0.447854
2827.23	-0.500876
2829.76	-2.85674
2832.29	-0.753112
2834.82	-1.28176
2837.35	-0.868827
2839.88	-2.30482
2842.41	-0.443278
2844.94	-2.46269
2847.47	-3.91353
2850	-3.06224
2852.53	-2.78332
2855.06	-2.96346
2857.59	-2.01292
2860.12	-0.622995
2862.65	0.28284
2865.18	-1.95861
2867.71	-3.26627
2870.24	-1.38501
2872.77	-0.149932
2875.3	-1.80238
2877.83	-1.15593
2880.36	-0.901205
2882.89	1.10717
2885.42	0.622611
2887.95	-2.02311
2890.48	-1.12965
2893.01	-1.20205
2895.54	-1.6262
2898.07	-1.63476
2900.6	4.45541
2903.125	1.89712
2905.65	1.10412
2908.18	1.56482
2910.71	-0.908992
2913.24	-1.45885
2915.77	-0.285233
2918.3	-0.980578
2920.83	-1.22053
2923.36	0.66744
2925.89	1.72698
2928.42	1.22607
2930.95	0.983316
2933.48	-1.32852
2936.01	-2.1541
2938.54	1.43213
2941.07	1.81824
2943.6	2.64926
2946.13	0.417779
2948.66	1.78291
2951.19	3.15557
2953.72	1.27026
2956.25	4.30619
2958.78	2.61517
2961.31	1.20283
2963.84	1.71748
2966.37	4.55012
2968.9	1.48557
2971.43	2.68451
2973.96	0.696941
2976.49	-1.78608
2979.02	-2.10418
2981.55	0.288761
2984.08	-1.13293
2986.61	-1.19478
2989.14	2.23287
2991.67	-3.0761
2994.2	1.80753
2996.73	-2.42869
2999.26	-3.96607
3001.79	-2.64181
3004.32	-1.84231
3006.85	-1.37943
3009.375	-1.228
3011.9	1.38281
3014.43	-2.41089
3016.96	-2.63012
3019.49	0.503066
3022.02	-1.18493
3024.55	-2.6243
3027.08	-0.824823
3029.61	-1.13853
3032.14	-5.66251
3034.67	-5.54748
3037.2	-0.168318
3039.73	-0.128288
3042.26	-1.50199
3044.79	-3.69589
3047.32	-4.41531
3049.85	-4.26242
3052.38	-1.15887
3054.91	-4.53175
3057.44	-4.30785
3059.97	-1.75815
3062.5	-4.82473
3065.03	-3.98934
3067.56	0.833875
3070.09	-3.31451
3072.62	-1.35835
3075.15	-1.60552
3077.68	2.8364
3080.21	-1.47679
3082.74	-2.99134
3085.27	-2.7198
3087.8	-4.37971
3090.33	-2.23971
3092.86	-2.00808
3095.39	-3.228
3097.92	-3.78338
3100.45	-3.45936
3102.98	-1.49542
3105.51	-3.9133
3108.04	-3.31602
3110.57	-3.81339
3113.1	-3.37645
3115.625	-1.45651
3118.15	0.759266
3120.68	-1.68719
3123.21	-0.692262
3125.74	-2.34333
3128.27	-2.3837
3130.8	-1.61641
3133.33	-3.55443
3135.86	-1.27306
3138.39	-1.92767
3140.92	-1.62575
3143.45	-0.979521
3145.98	-2.41597
3148.51	-1.9254
3151.04	-2.30607
3153.57	-1.75954
3156.1	-3.20058
3158.63	0.41732
3161.16	-1.34045
3163.69	-0.432521
3166.22	-0.762011
3168.75	-0.552089
3171.28	-1.19522
3173.81	-2.41484
3176.34	-1.67847
3178.87	3.19795
3181.4	-2.32091
3183.93	-0.143325
3186.46	-0.559991
3188.99	-0.33035
3191.52	-2.26588
3194.05	-2.64161
3196.58	-2.80233
3199.11	0.206232
3201.64	0.00479126
3204.17	-1.20912
3206.7	-0.873609
3209.23	-1.84172
3211.76	0.328825
3214.29	-3.79948
3216.82	5.95007
3219.35	1.23194
3221.875	1.372
3224.4	0.886282
3226.93	-3.84593
3229.46	1.36795
3231.99	0.500597
3234.52	-0.655186
3237.05	-0.661406
3239.58	0.571996
3242.11	-0.959024
3244.64	0.590298
3247.17	-0.636582
3249.7	-0.955366
3252.23	1.6337
3254.76	1.10291
3257.29	-0.802075
3259.82	1.99021
3262.35	2.965
3264.88	-0.952801
3267.41	-1.1715
3269.94	-1.14945
3272.47	-0.411477
3275	1.50091
3277.53	0.131508
3280.06	-2.52787
3282.59	0.668575
3285.12	-2.10513
3287.65	0.324239
3290.18	-0.0291538
3292.71	1.05501
3295.24	0.97521
3297.77	-0.980665
3300.3	0.351188
3302.83	0.592009
3305.36	0.171996
3307.89	-1.29084
3310.42	0.610885
3312.95	-2.52888
3315.48	-0.41378
3318.01	-2.05044
3320.54	-2.77936
3323.07	2.54598
3325.6	-1.4022
3328.125	-1.53094
3330.65	1.52022
3333.18	-0.315965
3335.71	-1.09715
3338.24	1.06145
3340.77	-0.494184
3343.3	3.85208
3345.83	1.22556
3348.36	0.30144
3350.89	1.52198
3353.42	2.17033
3355.95	1.772
3358.48	-0.0306664
3361.01	-2.48725
3363.54	-0.229937
3366.07	1.42333
3368.6	-3.49033
3371.13	-0.520194
3373.66	-0.299575
3376.19	-0.66704
3378.72	-2.79843
3381.25	2.97952
3383.78	3.34783
3386.31	2.86907
3388.84	3.62471
3391.37	3.10456
3393.9	-0.974656
3396.43	-2.38093
3398.96	-0.489601
3401.49	1.71842
3404.02	0.514953
3406.55	1.61578
3409.08	0.493801
3411.61	0.805418
3414.14	-0.893773
3416.67	0.780018
3419.2	-2.228
3421.73	4.21159
3424.26	5.85155
3426.79	6.19876
3429.32	3.172
3431.85	3.04832
3434.375	2.00452
3436.9	5.35336
3439.43	2.61882
3441.96	5.71088
3444.49	2.92276
3447.02	2.76768
3449.55	5.39053
3452.08	2.69457
3454.61	3.07737
3457.14	0.607576
3459.67	-0.700299
3462.2	1.62196
3464.73	-1.9019
3467.26	0.188006
3469.79	-2.13135
3472.32	-0.266359
3474.85	-2.91661
3477.38	0.158416
3479.91	0.446023
3482.44	2.41491
3484.97	1.59788
3487.5	0.942544
3490.03	0.612346
3492.56	0.975311
3495.09	0.574887
3497.62	-0.74873
3500.15	0.165954
3502.68	-0.44501
3505.21	2.84249
3507.74	2.87982
3510.27	2.03438
3512.8	3.86152
3515.33	1.20893
3517.86	4.82381
3520.39	0.377846
3522.92	2.05186
3525.45	-0.545688
3527.98	2.35966
3530.51	1.90613
3533.04	0.607385
3535.57	0.782575
3538.1	3.81651
3540.625	4.49238
3543.15	2.74625
3545.68	4.17149
3548.21	2.772
3550.74	-0.888858
3553.27	0.270457
3555.8	0.441023
3558.33	-0.519837
3560.86	0.172136
3563.39	-1.74031
3565.92	1.46111
3568.45	4.41031
3570.98	2.58453
3573.51	1.88239
3576.04	4.30807
3578.57	0.810053
3581.1	3.41298
3583.63	3.71023
3586.16	4.43959
3588.69	1.92294
3591.22	2.91343
3593.75	4.93524
3596.28	0.900311
3598.81	0.34911
3601.34	1.92223
3603.87	2.19093
3606.4	1.35252
3608.93	2.89639
3611.46	3.62964
3613.99	4.43189
3616.52	4.23771
3619.05	6.87421
3621.58	-1.41822
3624.11	1.57426
3626.64	3.66587
3629.17	3.94939
3631.7	2.6981
3634.23	6.90813
3636.76	1.981
3639.29	6.34913
3641.82	6.31465
3644.35	4.06771
3646.875	0.823465
3649.4	3.0777
3651.93	2.64088
3654.46	-0.388752
3656.99	0.607725
3659.52	2.84816
3662.05	3.36301
3664.58	0.99824
3667.11	4.17399
3669.64	2.60537
3672.17	2.06037
3674.7	2.34537
3677.23	4.19704
3679.76	3.10316
3682.29	1.8695
3684.82	4.15391
3687.35	3.43813
3689.88	3.78045
3692.41	4.04933
3694.94	4.51822
3697.47	6.58294
3700	9.36812