File: Example Data/Raman/Kara/12-20-10/Si-Graphene/7bulk/SGbulk_3.txt
300	56.6541
302.53	60.1699
305.06	61.3896
307.589	63.6266
310.119	67.5502
312.649	72.2589
315.179	73.7192
317.708	74.5389
320.238	76.7803
322.768	72.0425
325.298	74.6945
327.827	75.2422
330.357	78.985
332.887	86.6852
335.417	85.0653
337.946	97.553
340.476	94.5899
343.006	91.7659
345.536	92.3622
348.065	84.6099
350.595	86.1167
353.125	90.0146
355.655	91.9349
358.185	92.3924
360.714	93.8227
363.244	93.4745
365.774	88.692
368.304	91.9718
370.833	94.3475
373.363	89.0996
375.893	88.0536
378.423	94.0709
380.952	93.6775
383.482	92.2002
386.012	92.1625
388.542	91.6923
391.071	91.1102
393.601	91.0944
396.131	89.9854
398.661	88.4636
401.19	88.2751
403.72	91.4247
406.25	89.2787
408.78	87.0732
411.31	84.5532
413.839	83.2957
416.369	88.1429
418.899	88.1429
421.429	87.2211
423.958	94.7889
426.488	104.183
429.018	104.816
431.548	109.142
434.077	107.357
436.607	113.261
439.137	117.764
441.667	117.467
444.196	121.778
446.726	124.943
449.256	137.316
451.786	140.696
454.315	141.814
456.845	151.772
459.375	154.119
461.905	160.285
464.435	163.648
466.964	163.433
469.494	162.13
472.024	164.201
474.554	167.375
477.083	168.855
479.613	172.042
482.143	178.022
484.673	182.4
487.202	171.806
489.732	171.364
492.262	157.352
494.792	145.84
497.321	140.239
499.851	134.657
502.381	118.15
504.911	110.965
507.44	102.694
509.97	95.8252
512.5	89.4367
515.03	79.8063
517.56	74.3696
520.089	69.6618
522.619	61.884
525.149	56.4205
527.679	53.1662
530.208	43.5605
532.738	43.3239
535.268	38.1244
537.798	37.8025
540.327	36.4459
542.857	31.0784
545.387	32.6449
547.917	27.7862
550.446	23.2113
552.976	25.0129
555.506	28.9036
558.036	28.8725
560.565	25.3125
563.095	23.0459
565.625	25.4786
568.155	27
570.685	26.9085
573.214	26.0847
575.744	22.6354
578.274	26.892
580.804	26.1856
583.333	26.0449
585.863	26.2691
588.393	25.6445
590.923	29.2187
593.452	26.7146
595.982	24.6516
598.512	24.1355
601.042	23.1865
603.571	21.0429
606.101	23.549
608.631	25.9376
611.161	27.5669
613.69	26.5722
616.22	24.6643
618.75	24.886
621.28	29.1248
623.81	27.4507
626.339	24.312
628.869	20.8424
631.399	21.4196
633.929	25.3524
636.458	22.7193
638.988	22.8391
641.518	23.1624
644.048	21.7108
646.577	21.2092
649.107	22.9535
651.637	24.3581
654.167	20.0362
656.696	22.3563
659.226	22.9485
661.756	24.9901
664.286	25.7505
666.815	19.8918
669.345	21.2137
671.875	22.536
674.405	20.8528
676.935	21.2226
679.464	21.8443
681.994	20.2096
684.524	22.6812
687.054	19.0665
689.583	17.5358
692.113	17.4503
694.643	20.3333
697.173	23.3129
699.702	19.0805
702.232	20.0454
704.762	22.0965
707.292	22.0228
709.821	22.5364
712.351	23.2073
714.881	21.6356
717.411	19.4596
719.94	21.573
722.47	19.6667
725	20.5308
727.53	23.7846
730.06	25.017
732.589	20.4924
735.119	19.5233
737.649	18.3354
740.179	20.5422
742.708	22.8693
745.238	23.4032
747.768	22.7372
750.298	22.8531
752.827	22.4889
755.357	21.8209
757.887	20.7728
760.417	20.903
762.946	23.225
765.476	25.6871
768.006	17.7851
770.536	22.6542
773.065	19.3963
775.595	20.1658
778.125	23.684
780.655	25.8987
783.185	29.0998
785.714	23.6184
788.244	26.5926
790.774	27.1196
793.304	29.0104
795.833	29.7321
798.363	25.745
800.893	21.9776
803.423	26.6155
805.952	24.3294
808.482	25.792
811.012	26.8176
813.542	24.945
816.071	22.6817
818.601	25.067
821.131	23.2313
823.661	26.9559
826.19	29.4964
828.72	28.172
831.25	26.5361
833.78	28.3364
836.31	28.5056
838.839	26.9127
841.369	29.9357
843.899	29.8663
846.429	31.1536
848.958	31.4601
851.488	28.6613
854.018	33.7566
856.548	29.3337
859.077	29.7338
861.607	29.1933
864.137	30.5273
866.667	30.9823
869.196	28.1655
871.726	28.155
874.256	33.4482
876.786	31.0165
879.315	32.3524
881.845	35.1372
884.375	31.6848
886.905	24.238
889.435	26.3479
891.964	26.8412
894.494	29.1257
897.024	25.8731
899.554	26.0577
902.083	27.1227
904.613	25.5423
907.143	22.2619
909.673	19.8504
912.202	19.6032
914.732	21.5113
917.262	25.0689
919.792	24.4221
922.321	21.7562
924.851	21.4457
927.381	21.0999
929.911	22.0908
932.44	17.9166
934.97	19.4636
937.5	20.0136
940.03	20.302
942.56	19.7272
945.089	16.2803
947.619	17.733
950.149	18.2296
952.679	22.585
955.208	18.3561
957.738	16.09
960.268	17.13
962.798	18.4019
965.327	20.5929
967.857	18.7257
970.387	18.0955
972.917	18.4218
975.446	16.3936
977.976	14.2428
980.506	13.1754
983.036	12.6494
985.565	12.3283
988.095	11.4549
990.625	14.2123
993.155	12.5511
995.685	12.8188
998.214	12.7678
1000.74	10.6309
1003.27	8.90897
1005.8	11.1961
1008.33	11.6963
1010.86	10.3879
1013.39	10.9661
1015.92	13.4165
1018.45	11.817
1020.98	9.47697
1023.51	11.5255
1026.04	11.4587
1028.57	8.0749
1031.1	8.61339
1033.63	7.97764
1036.16	4.64079
1038.69	5.46106
1041.22	6.47975
1043.75	4.93476
1046.28	8.96403
1048.81	5.86916
1051.34	7.0008
1053.87	5.27431
1056.4	3.69302
1058.93	4.20373
1061.46	5.96538
1063.99	6.6415
1066.52	4.41152
1069.05	-0.388948
1071.58	0.240757
1074.11	3.32923
1076.64	1.79344
1079.17	1.60879
1081.7	2.07607
1084.23	1.29825
1086.76	0.100445
1089.29	0.495868
1091.82	0.992756
1094.35	-2.29215
1096.875	-2.49398
1099.4	0.193657
1101.93	2.57521
1104.46	1.11644
1106.99	-1.86646
1109.52	-1.51499
1112.05	-1.32159
1114.58	-1.70149
1117.11	-2.57113
1119.64	-1.97047
1122.17	-2.88619
1124.7	-3.05294
1127.23	-2.22325
1129.76	-3.10105
1132.29	-6.06381
1134.82	-4.08452
1137.35	0.232157
1139.88	-1.26971
1142.41	-3.47043
1144.94	-3.33543
1147.47	-3.67075
1150	-4.19557
1152.53	-3.77194
1155.06	-4.46317
1157.59	-7.7492
1160.12	-1.76656
1162.65	-2.31099
1165.18	-2.96745
1167.71	-2.68095
1170.24	-4.66137
1172.77	-4.72325
1175.3	-2.332
1177.83	-2.58387
1180.36	-3.26974
1182.89	-4.28201
1185.42	-3.51556
1187.95	-3.54178
1190.48	-4.25845
1193.01	-3.98985
1195.54	-4.11601
1198.07	-4.23605
1200.6	-3.73448
1203.125	-4.59479
1205.65	-4.68891
1208.18	-4.30469
1210.71	-2.82432
1213.24	-3.10678
1215.77	-4.48684
1218.3	-5.68679
1220.83	-4.81864
1223.36	-4.59755
1225.89	-5.69654
1228.42	-0.863298
1230.95	-5.27307
1233.48	-1.29141
1236.01	-4.92943
1238.54	-6.86633
1241.07	-5.47714
1243.6	-2.06764
1246.13	-0.557711
1248.66	-2.05096
1251.19	-4.41311
1253.72	-6.20465
1256.25	-0.520484
1258.78	-6.05931
1261.31	-5.82687
1263.84	-4.43769
1266.37	-4.92451
1268.9	-4.17086
1271.43	-3.85553
1273.96	-4.76525
1276.49	-4.33636
1279.02	-2.85714
1281.55	-3.00432
1284.08	-4.94339
1286.61	-4.4982
1289.14	-3.64509
1291.67	-4.80594
1294.2	-5.08891
1296.73	-3.35633
1299.26	-2.03131
1301.79	-2.91188
1304.32	-4.53704
1306.85	-5.13921
1309.375	-2.8992
1311.9	3.5847
1314.43	1.81598
1316.96	-2.79201
1319.49	0.805221
1322.02	0.739791
1324.55	-1.00458
1327.08	-0.23951
1329.61	0.23935
1332.14	-0.978335
1334.67	-1.30635
1337.2	-0.414595
1339.73	-0.0243336
1342.26	2.92865
1344.79	0.148411
1347.32	3.68728
1349.85	3.08254
1352.38	2.07303
1354.91	3.94496
1357.44	4.40107
1359.97	3.01473
1362.5	4.29852
1365.03	3.57143
1367.56	3.57143
1370.09	1.02001
1372.62	0.598973
1375.15	1.18989
1377.68	1.42857
1380.21	0.798039
1382.74	-1.51513
1385.27	-2.15045
1387.8	-0.113135
1390.33	-0.683605
1392.86	-0.402353
1395.39	0.631978
1397.92	-0.940646
1400.45	-0.369705
1402.98	-0.857303
1405.51	-1.10263
1408.04	-1.50653
1410.57	-1.47647
1413.1	-3.45195
1415.625	-4.11746
1418.15	-2.76536
1420.68	-5.78048
1423.21	-4.76483
1425.74	1.64947
1428.27	-4.65879
1430.8	-4.19272
1433.33	-2.23691
1435.86	-4.23075
1438.39	-4.12971
1440.92	-4.22754
1443.45	-4.12486
1445.98	-3.58758
1448.51	-3.89935
1451.04	-4.17731
1453.57	-2.52336
1456.1	-1.67411
1458.63	-3.96376
1461.16	-1.19153
1463.69	1.97071
1466.22	2.04763
1468.75	2.54164
1471.28	-2.46038
1473.81	-3.20452
1476.34	-2.29569
1478.87	-3.08738
1481.4	-5.35132
1483.93	-6.54767
1486.46	-4.96532
1488.99	-7.39836
1491.52	-4.42857
1494.05	-4.40123
1496.58	-3.34014
1499.11	-3.15992
1501.64	-6.49646
1504.17	-2.96152
1506.7	-4.19466
1509.23	-4.46252
1511.76	-4.46703
1514.29	-6.71074
1516.82	-7.18683
1519.35	-5.8182
1521.875	-7.46455
1524.4	-6.44534
1526.93	-3.14096
1529.46	-1.98727
1531.99	-1.72109
1534.52	-5.60895
1537.05	-4.19661
1539.58	-6.07052
1542.11	-6.61314
1544.64	-6.38808
1547.17	-5.29887
1549.7	-5.15412
1552.23	-4.88913
1554.76	-3.04488
1557.29	-0.45799
1559.82	2.60633
1562.35	2.59332
1564.88	-2.02647
1567.41	-4.01453
1569.94	0.399915
1572.47	0.960349
1575	-1.23081
1577.53	-3.75721
1580.06	-2.26918
1582.59	1.15137
1585.12	1.54406
1587.65	1
1590.18	0.503345
1592.71	-0.747199
1595.24	-3.10814
1597.77	-5.06845
1600.3	-4.54067
1602.83	-4.33643
1605.36	-0.447965
1607.89	-0.703257
1610.42	-2.31188
1612.95	-3.65628
1615.48	-3.97182
1618.01	-3.63843
1620.54	-3.12246
1623.07	-0.19061
1625.6	-3.45933
1628.125	-4.34178
1630.65	-3.81078
1633.18	-4.64553
1635.71	-2.99221
1638.24	-1.76042
1640.77	-4.90822
1643.3	-5.70248
1645.83	-4.50698
1648.36	-4.1879
1650.89	-3.68085
1653.42	-3.68136
1655.95	-7.38736
1658.48	-3.32723
1661.01	-6.11318
1663.54	-5.33404
1666.07	-4.57223
1668.6	-6.56201
1671.13	-5.29918
1673.66	-5.16444
1676.19	-4.97886
1678.72	-3.95213
1681.25	-3.56898
1683.78	-3.84027
1686.31	-4.27929
1688.84	-4.37281
1691.37	-4.79897
1693.9	-6.52546
1696.43	-4.15819
1698.96	-6.39608
1701.49	-8.35225
1704.02	-5.12821
1706.55	-7.56671
1709.08	-5.7981
1711.61	-4.41698
1714.14	-6.2552
1716.67	-5.29086
1719.2	-6.42794
1721.73	-6.6505
1724.26	-5.79663
1726.79	-7.1464
1729.32	-6.37853
1731.85	-5.22052
1734.375	-6.92556
1736.9	-7.46681
1739.43	-5.61417
1741.96	-6.48608
1744.49	-9.00718
1747.02	-8.50932
1749.55	-7.61661
1752.08	-4.79305
1754.61	-7.40629
1757.14	-7.05711
1759.67	-5.09822
1762.2	-2.73703
1764.73	-3.42263
1767.26	-4.51566
1769.79	-4.18101
1772.32	-2.64866
1774.85	-2.54743
1777.38	-3.13761
1779.91	-2.20847
1782.44	-3.59467
1784.97	-4.57602
1787.5	-4.9883
1790.03	-4.1971
1792.56	-3.16824
1795.09	-4.6655
1797.62	-5.65445
1800.15	-5.19479
1802.68	-6.32488
1805.21	-6.80602
1807.74	-5.37304
1810.27	-5.4453
1812.8	-6.90343
1815.33	-7.65769
1817.86	-6.32151
1820.39	-6.42687
1822.92	-4.03499
1825.45	-6.30579
1827.98	-8.55051
1830.51	-4.85604
1833.04	-8.12888
1835.57	-6.60796
1838.1	-9.13624
1840.625	-8.11133
1843.15	-8.88215
1845.68	-6.5664
1848.21	-4.73513
1850.74	-8.15641
1853.27	-5.88285
1855.8	-4.75274
1858.33	-7.42114
1860.86	-7.70647
1863.39	-6.91782
1865.92	-7.24192
1868.45	-7.57143
1870.98	-7.57143
1873.51	-6.50689
1876.04	-6.7252
1878.57	-8.67637
1881.1	-10.5392
1883.63	-9.64814
1886.16	-7.88394
1888.69	-8.14747
1891.22	-6.44761
1893.75	-7.28571
1896.28	-6.43252
1898.81	-5.05467
1901.34	-6.14284
1903.87	-5.13996
1906.4	-7.65844
1908.93	-8.10276
1911.46	-8.23604
1913.99	-7.06054
1916.52	-10.3438
1919.05	-4.12857
1921.58	-5.4188
1924.11	-5.3463
1926.64	-6.42596
1929.17	-1.00614
1931.7	-2.12565
1934.23	-4.62557
1936.76	-3.63349
1939.29	-1.18979
1941.82	-2.55479
1944.35	-3.22172
1946.875	-5.89553
1949.4	-5.79905
1951.93	-6.07155
1954.46	-5.79298
1956.99	-6.05674
1959.52	-6.36625
1962.05	-8.50643
1964.58	-6.25358
1967.11	-7.48556
1969.64	-8.6957
1972.17	-7.45264
1974.7	-6.85714
1977.23	-6.85714
1979.76	-6.01084
1982.29	-5.01947
1984.82	-5.97458
1987.35	-6.18552
1989.88	-7.84148
1992.41	-7.2001
1994.94	-6.76626
1997.47	-6.21535
2000	-7.97839
2002.53	-9.1346
2005.06	-8.96938
2007.59	-8.45532
2010.12	-6.9183
2012.65	-5.64287
2015.18	-5.76713
2017.71	-5.8223
2020.24	-7.2117
2022.77	-7.87798
2025.3	-6.67237
2027.83	-8.3816
2030.36	-7.92073
2032.89	-6.77559
2035.42	-5.83274
2037.95	-5.13985
2040.48	-5.15223
2043.01	-4.80399
2045.54	-6.20258
2048.07	-5.80148
2050.6	-6.077
2053.125	-8.1465
2055.65	-10.6483
2058.18	-8.19673
2060.71	-6.43978
2063.24	-8.72007
2065.77	-6.23524
2068.3	-8.97414
2070.83	-7.6087
2073.36	-9.05065
2075.89	-8.92212
2078.42	-5.25879
2080.95	-5.31299
2083.48	-6.86554
2086.01	-7.82212
2088.54	-6.21998
2091.07	-7.25514
2093.6	-6.30503
2096.13	-6.07052
2098.66	-6.69749
2101.19	-5.82755
2103.72	-4.81361
2106.25	-4.9405
2108.78	-4.44622
2111.31	-4.25034
2113.84	-8.07267
2116.37	-6.29658
2118.9	-4.75947
2121.43	-8.51221
2123.96	-6.27937
2126.49	-3.10958
2129.02	-4.09331
2131.55	-6.77806
2134.08	-5.68767
2136.61	-2.97338
2139.14	-5.69213
2141.67	-6.43823
2144.2	-5.70051
2146.73	-7.46933
2149.26	-6.79021
2151.79	-4.6914
2154.32	-5.11747
2156.85	-5.75182
2159.375	-6.01438
2161.9	-7.73554
2164.43	-7.1957
2166.96	-6.97099
2169.49	-7.33232
2172.02	-4.53771
2174.55	-5.00202
2177.08	-6.17469
2179.61	-6.01873
2182.14	-6.92517
2184.67	-4.86267
2187.2	-4.0105
2189.73	-5.00703
2192.26	-6.85033
2194.79	-7.06016
2197.32	-5.81604
2199.85	-5.80438
2202.38	-3.82664
2204.91	-5.17373
2207.44	-6.42928
2209.97	-5.57756
2212.5	-3.56825
2215.03	-6.77581
2217.56	-6.13803
2220.09	-6.57865
2222.62	-6.39758
2225.15	-3.5739
2227.68	-5.87826
2230.21	-6.25824
2232.74	-5.52983
2235.27	-6.75232
2237.8	-4.96845
2240.33	-6.38805
2242.86	-1.57314
2245.39	-4.3541
2247.92	-6.88614
2250.45	-4.06257
2252.98	-5.47542
2255.51	-6.21521
2258.04	-3.63461
2260.57	-4.54001
2263.1	-4.03247
2265.625	-4.83414
2268.15	-6.78125
2270.68	-3.19811
2273.21	-3.9565
2275.74	-5.91181
2278.27	-6.5544
2280.8	-8.72371
2283.33	-7.73434
2285.86	-5.55928
2288.39	-5.72857
2290.92	-4.96971
2293.45	-4.14391
2295.98	-3.78411
2298.51	-2.55637
2301.04	-3.22306
2303.57	-3.02471
2306.1	-3.49002
2308.63	-4.617
2311.16	-5.73431
2313.69	-5.11236
2316.22	-4.49903
2318.75	-3.51075
2321.28	-2.62817
2323.81	-3.08172
2326.34	-3.6946
2328.87	-2.91553
2331.4	-0.785261
2333.93	4.1132
2336.46	3.66201
2338.99	1.6825
2341.52	-0.860293
2344.05	-1.88028
2346.58	-0.360671
2349.11	-1.86245
2351.64	-0.141399
2354.17	-3.54349
2356.7	-2.56964
2359.23	-1.77987
2361.76	-1.82561
2364.29	-0.636042
2366.82	-2.08208
2369.35	-2.72925
2371.875	-2.16571
2374.4	-0.969489
2376.93	-0.0138076
2379.46	0.180849
2381.99	-0.244948
2384.52	-1.25355
2387.05	-0.852059
2389.58	-0.458301
2392.11	1.26301
2394.64	1.39977
2397.17	-0.70427
2399.7	0.860259
2402.23	2.16896
2404.76	2.58316
2407.29	4.49009
2409.82	3.47102
2412.35	3.80131
2414.88	4.04317
2417.41	6.85352
2419.94	8.41872
2422.47	9.91564
2425	12.3139
2427.53	16.617
2430.06	22.0408
2432.59	30.2251
2435.12	33.9029
2437.65	42.428
2440.18	47.5314
2442.71	47.987
2445.24	47.7015
2447.77	39.6992
2450.3	35.1276
2452.83	28.9601
2455.36	26.6042
2457.89	20.3303
2460.42	17.9191
2462.95	16.464
2465.48	12.5742
2468.01	10.4585
2470.54	11.6469
2473.07	9.76273
2475.6	9.10674
2478.125	9.8709
2480.65	10.2802
2483.18	10.3389
2485.71	10.1717
2488.24	10.5785
2490.77	9.03844
2493.3	8.38325
2495.83	9.91263
2498.36	8.38398
2500.89	7.02311
2503.42	7.4543
2505.95	6.37461
2508.48	6.62284
2511.01	6.16975
2513.54	6.69952
2516.07	10.3637
2518.6	6.94362
2521.13	5.52672
2523.66	5.01878
2526.19	7.63248
2528.72	9.54703
2531.25	8.71959
2533.78	7.1529
2536.31	7.56074
2538.84	7.04236
2541.37	7.66893
2543.9	4.97201
2546.43	2.31483
2548.96	5.35018
2551.49	4.45378
2554.02	3.41773
2556.55	3.1528
2559.08	5.56861
2561.61	2.55746
2564.14	3.0034
2566.67	1.87124
2569.2	2.9895
2571.73	3.48863
2574.26	1.86005
2576.79	2.86959
2579.32	3.46824
2581.85	1.62436
2584.375	4.54944
2586.9	2.45552
2589.43	1.79363
2591.96	3.0599
2594.49	-1.24807
2597.02	1.46397
2599.55	2.9265
2602.08	1.21196
2604.61	2.54119
2607.14	4.09274
2609.67	4.55075
2612.2	1.85205
2614.73	2.32024
2617.26	3.0714
2619.79	3.43575
2622.32	2.09265
2624.85	4.04673
2627.38	4.73197
2629.91	-1.42485
2632.44	4.70444
2634.97	2.3776
2637.5	2.91246
2640.03	4.31584
2642.56	4.07467
2645.09	3.55921
2647.62	2.94246
2650.15	3.66732
2652.68	3.37938
2655.21	4.29997
2657.74	3.73803
2660.27	3.63936
2662.8	5.38663
2665.33	5.17273
2667.86	4.93101
2670.39	4.35568
2672.92	7.47095
2675.45	5.81261
2677.98	4.57012
2680.51	3.84174
2683.04	4.94306
2685.57	5.77426
2688.1	4.24484
2690.625	6.3129
2693.15	6.43385
2695.68	5.99196
2698.21	6.84174
2700.74	3.45721
2703.27	5.02478
2705.8	3.09573
2708.33	4.78709
2710.86	5.53823
2713.39	6.10405
2715.92	5.91946
2718.45	4.65801
2720.98	4.19437
2723.51	4.85543
2726.04	4.52879
2728.57	1.81874
2731.1	5.68694
2733.63	4.21061
2736.16	4.88599
2738.69	3.30984
2741.22	4.09871
2743.75	7.33977
2746.28	6.25493
2748.81	5.377
2751.34	4.2628
2753.87	1.60534
2756.4	3.46088
2758.93	2.85796
2761.46	6.47484
2763.99	2.97966
2766.52	7.88972
2769.05	4.73323
2771.58	3.76412
2774.11	4.85205
2776.64	4.8446
2779.17	2.83196
2781.7	3.30872
2784.23	3.99682
2786.76	4.40221
2789.29	4.97348
2791.82	6.91147
2794.35	7.46827
2796.875	4.71656
2799.4	3.39451
2801.93	5.82078
2804.46	5.31222
2806.99	6.74489
2809.52	5.23321
2812.05	5.04458
2814.58	4.11225
2817.11	3.53442
2819.64	5.15717
2822.17	6.36454
2824.7	4.11167
2827.23	3.40233
2829.76	4.7091
2832.29	6.41597
2834.82	4.33182
2837.35	6.58314
2839.88	4.60239
2842.41	4.10299
2844.94	9.07095
2847.47	6.32367
2850	7.78887
2852.53	5.21093
2855.06	6.00126
2857.59	3.87978
2860.12	5.26243
2862.65	7.19647
2865.18	7.53668
2867.71	7.50106
2870.24	5.30306
2872.77	5.13205
2875.3	6.26239
2877.83	5.31753
2880.36	5.96437
2882.89	5.81248
2885.42	5.6169
2887.95	6.83365
2890.48	5.37296
2893.01	6.91455
2895.54	4.08289
2898.07	4.1237
2900.6	6.5712
2903.125	5.76972
2905.65	4.31701
2908.18	7.07317
2910.71	7.60152
2913.24	7.86478
2915.77	8.06075
2918.3	9.8223
2920.83	8.85867
2923.36	10.3853
2925.89	7.72425
2928.42	9.26595
2930.95	9.76272
2933.48	9.26942
2936.01	8.90285
2938.54	10.433
2941.07	8.45649
2943.6	8.93706
2946.13	9.46637
2948.66	9.94218
2951.19	11.4787
2953.72	11.7051
2956.25	12.383
2958.78	10.6787
2961.31	11.5254
2963.84	8.33919
2966.37	11.5412
2968.9	7.90452
2971.43	7.33844
2973.96	6.41771
2976.49	5.143
2979.02	7.04215
2981.55	6.97936
2984.08	6.82199
2986.61	7.24432
2989.14	7.11438
2991.67	7.06198
2994.2	7.11077
2996.73	5.48922
2999.26	5.36811
3001.79	5.94037
3004.32	4.29144
3006.85	5.89604
3009.375	8.56382
3011.9	7.26412
3014.43	6.09011
3016.96	4.19522
3019.49	4.94331
3022.02	4.67623
3024.55	4.5887
3027.08	8.49118
3029.61	5.81519
3032.14	3.1392
3034.67	6.72358
3037.2	6.51271
3039.73	3.92511
3042.26	3.20538
3044.79	3.34494
3047.32	2.2377
3049.85	6.57346
3052.38	5.36857
3054.91	3.70791
3057.44	5.10666
3059.97	6.16587
3062.5	6.43984
3065.03	5.05135
3067.56	7.00654
3070.09	6.51916
3072.62	4.8253
3075.15	7.96018
3077.68	7.72909
3080.21	6.45434
3082.74	6.64316
3085.27	4.68465
3087.8	3.74994
3090.33	5.29399
3092.86	3.67925
3095.39	3.73911
3097.92	3.74558
3100.45	6.99355
3102.98	4.20927
3105.51	4.04746
3108.04	3.37351
3110.57	5.70224
3113.1	7.30854
3115.625	6.83221
3118.15	6.39451
3120.68	6.36603
3123.21	6.36603
3125.74	6.36603
3128.27	6.36603
3130.8	6.36603
3133.33	6.36603
3135.86	6.36603
3138.39	6.36603
3140.92	5.8281
3143.45	3.30163
3145.98	8.17557
3148.51	2.57251
3151.04	5.6187
3153.57	5.76027
3156.1	6.96387
3158.63	7.49156
3161.16	4.91821
3163.69	6.49059
3166.22	2.68454
3168.75	3.82765
3171.28	5.17135
3173.81	4.49951
3176.34	3.98256
3178.87	3.70453
3181.4	1.34368
3183.93	5.54878
3186.46	5.32428
3188.99	4.68667
3191.52	8.95277
3194.05	9.17825
3196.58	5.53086
3199.11	6.71414
3201.64	5.55614
3204.17	5.86496
3206.7	4.43281
3209.23	6.63635
3211.76	4.05501
3214.29	6.28394
3216.82	7.73023
3219.35	7.55897
3221.875	7.61212
3224.4	7.46493
3226.93	9.62753
3229.46	4.16266
3231.99	7.94467
3234.52	3.9183
3237.05	5.08508
3239.58	6.51574
3242.11	8.41945
3244.64	8.40257
3247.17	6.32464
3249.7	8.39629
3252.23	8.62614
3254.76	8.06011
3257.29	7.55033
3259.82	8.04387
3262.35	6.08588
3264.88	8.51498
3267.41	5.56658
3269.94	7.38376
3272.47	11.103
3275	8.73639
3277.53	8.28267
3280.06	9.39219
3282.59	6.20617
3285.12	7.84042
3287.65	5.04082
3290.18	9.56008
3292.71	7.87387
3295.24	7.03937
3297.77	7.33699
3300.3	7.62182
3302.83	8.61879
3305.36	8.30527
3307.89	9.06083
3310.42	12.0416
3312.95	10.3021
3315.48	6.92389
3318.01	6.44968
3320.54	6.42898
3323.07	6.27018
3325.6	10.2233
3328.125	7.89147
3330.65	9.2248
3333.18	8.38766
3335.71	6.7173
3338.24	8.50841
3340.77	9.40315
3343.3	6.54447
3345.83	8.05294
3348.36	8.36039
3350.89	6.51596
3353.42	8.15048
3355.95	8.0768
3358.48	8.51309
3361.01	7.03832
3363.54	8.31691
3366.07	6.51404
3368.6	7.24114
3371.13	6.91722
3373.66	9.6197
3376.19	10.3762
3378.72	12.8094
3381.25	7.09623
3383.78	9.6936
3386.31	9.9208
3388.84	6.65253
3391.37	6.96827
3393.9	3.62548
3396.43	8.4109
3398.96	7.84552
3401.49	9.98576
3404.02	9.33363
3406.55	8.62152
3409.08	11.5562
3411.61	8.87857
3414.14	6.59882
3416.67	8.15804
3419.2	10.0087
3421.73	11.3518
3424.26	10.9299
3426.79	11.456
3429.32	11.5728
3431.85	11.6777
3434.375	8.85974
3436.9	11.8553
3439.43	10.8707
3441.96	10.6528
3444.49	10.0324
3447.02	9.01903
3449.55	11.0535
3452.08	7.27401
3454.61	9.3195
3457.14	12.6817
3459.67	11.5772
3462.2	10.7441
3464.73	10.29
3467.26	11.8808
3469.79	8.8922
3472.32	8.01128
3474.85	7.99768
3477.38	11.4181
3479.91	12.113
3482.44	9.52177
3484.97	10.0067
3487.5	6.03794
3490.03	11.4793
3492.56	9.72786
3495.09	8.86689
3497.62	10.9665
3500.15	11.4935
3502.68	9.64339
3505.21	10.4215
3507.74	9.77677
3510.27	9.9017
3512.8	10.0485
3515.33	12.3565
3517.86	10.0882
3520.39	8.9747
3522.92	11.1276
3525.45	12.3836
3527.98	11.5942
3530.51	12.9616
3533.04	7.62147
3535.57	5.40949
3538.1	9.02132
3540.625	7.86339
3543.15	12.3044
3545.68	9.65909
3548.21	12.163
3550.74	13.2653
3553.27	10.5126
3555.8	11.6367
3558.33	8.78701
3560.86	8.94497
3563.39	8.7644
3565.92	10.6057
3568.45	9.46491
3570.98	13.1972
3573.51	10.4208
3576.04	10.6715
3578.57	8.33802
3581.1	12.1047
3583.63	12.1767
3586.16	10.785
3588.69	10.9719
3591.22	10.6517
3593.75	14.6539
3596.28	12.4713
3598.81	10.3834
3601.34	9.19789
3603.87	11.6646
3606.4	13.0566
3608.93	11.8382
3611.46	9.96367
3613.99	12.6973
3616.52	11.7969
3619.05	15.9898
3621.58	15.4144
3624.11	9.59547
3626.64	13.2988
3629.17	14.1195
3631.7	12.9768
3634.23	12.5613
3636.76	10.5359
3639.29	11.6935
3641.82	12.256
3644.35	11.0098
3646.875	15.2098
3649.4	12.3187
3651.93	11.0493
3654.46	7.76227
3656.99	11.3229
3659.52	11.9061
3662.05	11.8635
3664.58	12.1588
3667.11	17.2515
3669.64	8.11176
3672.17	11.5774
3674.7	11.2678
3677.23	11.766
3679.76	10.8022
3682.29	12.3508
3684.82	12.3018
3687.35	15.9784
3689.88	9.21917
3692.41	15.7166
3694.94	15.6994
3697.47	14.1979
3700	10.4473