File: Example Data/Raman/Kara/12-20-10/Si-Graphene/7bulk/SGbulk_2.txt
300	35.8114
302.53	36.4899
305.06	38.1273
307.589	43.6649
310.119	38.6565
312.649	37.214
315.179	39.6678
317.708	43.4377
320.238	45.1683
322.768	42.0136
325.298	49.7159
327.827	53.4533
330.357	53.7176
332.887	53.7082
335.417	57.3532
337.946	57.5778
340.476	59.6583
343.006	60.5816
345.536	59.1711
348.065	56.9223
350.595	61.7093
353.125	60.1898
355.655	59.1643
358.185	59.1986
360.714	57.835
363.244	55.1539
365.774	59.3149
368.304	58.4009
370.833	57.8882
373.363	61.1444
375.893	55.775
378.423	59.6724
380.952	62.9539
383.482	61.1112
386.012	55.208
388.542	52.0164
391.071	63.0178
393.601	59.3501
396.131	57.6868
398.661	60.7673
401.19	63.7597
403.72	55.9207
406.25	53.1986
408.78	55.3463
411.31	56.8123
413.839	55.9035
416.369	57.6059
418.899	58.0963
421.429	59.3614
423.958	60.556
426.488	62.861
429.018	67.471
431.548	70.4994
434.077	68.5122
436.607	68.0345
439.137	72.1828
441.667	79.5235
444.196	83.3516
446.726	85.8949
449.256	93.8977
451.786	96.8914
454.315	96.5278
456.845	97.988
459.375	97.9058
461.905	101.947
464.435	102.556
466.964	107.238
469.494	114.125
472.024	112.283
474.554	113.6
477.083	114.708
479.613	119.272
482.143	123.376
484.673	123.68
487.202	122.609
489.732	111.405
492.262	108.836
494.792	102.924
497.321	92.8477
499.851	83.517
502.381	75.1806
504.911	71.2201
507.44	67.3487
509.97	60.947
512.5	54.8493
515.03	54.2631
517.56	45.9071
520.089	42.2088
522.619	37.4843
525.149	32.7808
527.679	29.6642
530.208	28.2317
532.738	24.5878
535.268	21.9851
537.798	18.586
540.327	16.1236
542.857	15.6908
545.387	15.1585
547.917	12.2552
550.446	13.1775
552.976	14.6025
555.506	13.9379
558.036	11.3631
560.565	12.1937
563.095	11.4573
565.625	9.0024
568.155	10.1431
570.685	13.3362
573.214	14.2009
575.744	10.3711
578.274	12.2618
580.804	11.9849
583.333	11.2135
585.863	11.2116
588.393	11.8895
590.923	10.7219
593.452	12.6634
595.982	13.1652
598.512	12.5181
601.042	12.2508
603.571	12.5085
606.101	8.83291
608.631	7.7234
611.161	7.10159
613.69	10.3483
616.22	14.1022
618.75	13.9937
621.28	10.6027
623.81	10.8538
626.339	9.73836
628.869	11.8561
631.399	13.2955
633.929	11.2438
636.458	10.1894
638.988	9.9379
641.518	7.9767
644.048	9.95607
646.577	10.1313
649.107	8.46169
651.637	13.2359
654.167	7.60547
656.696	9.09933
659.226	7.3808
661.756	7.8959
664.286	9.76833
666.815	7.24846
669.345	9.09911
671.875	8.08613
674.405	6.65206
676.935	8.59149
679.464	9.62751
681.994	6.60994
684.524	10.1838
687.054	8.41257
689.583	7.75281
692.113	7.92284
694.643	8.27639
697.173	8.49035
699.702	8.87747
702.232	9.80617
704.762	11.1156
707.292	7.38562
709.821	7.40183
712.351	10.9957
714.881	11.1189
717.411	7.6494
719.94	6.5159
722.47	6.02778
725	7.16606
727.53	8.41242
730.06	8.97744
732.589	10.1824
735.119	8.74098
737.649	8.14086
740.179	9.22728
742.708	10.1387
745.238	9.8333
747.768	9.21657
750.298	11.3905
752.827	10.5408
755.357	11.3926
757.887	10.4583
760.417	10.6689
762.946	11.9543
765.476	10.2341
768.006	8.95759
770.536	9.55031
773.065	11.2945
775.595	8.69372
778.125	6.23663
780.655	8.1186
783.185	10.5348
785.714	13.2633
788.244	11.0852
790.774	10.9061
793.304	11.1514
795.833	12.4594
798.363	13.7818
800.893	8.34365
803.423	9.11257
805.952	14.1236
808.482	14.352
811.012	12.4702
813.542	11.8502
816.071	12.5689
818.601	10.8302
821.131	16.3983
823.661	15.0793
826.19	15.5502
828.72	15.2365
831.25	14.5114
833.78	15.7774
836.31	16.4972
838.839	14.0098
841.369	14.151
843.899	13.3843
846.429	14.3014
848.958	16.3609
851.488	16.6873
854.018	14.8574
856.548	14.0834
859.077	12.7727
861.607	12.149
864.137	12.5858
866.667	14.5615
869.196	17.1
871.726	16.9063
874.256	14.5797
876.786	15.5136
879.315	14.9451
881.845	17.0481
884.375	16.7595
886.905	12.3281
889.435	11.7783
891.964	11.6056
894.494	12.4358
897.024	13.6495
899.554	13.6489
902.083	12.358
904.613	10.3675
907.143	9.21753
909.673	12.4789
912.202	11.7001
914.732	10.1666
917.262	8.45867
919.792	8.86884
922.321	10.4887
924.851	10.9359
927.381	9.93009
929.911	9.23644
932.44	9.2
934.97	6.85466
937.5	6.91565
940.03	7.11814
942.56	6.84866
945.089	8.3673
947.619	8.11798
950.149	5.94538
952.679	4.07949
955.208	7.89999
957.738	7.9969
960.268	6.06745
962.798	6.55055
965.327	6.36701
967.857	4.01442
970.387	5.81914
972.917	3.88568
975.446	2.06334
977.976	3.95395
980.506	6.09743
983.036	5.09091
985.565	5.01879
988.095	1.70021
990.625	2.19306
993.155	1.65104
995.685	1.63789
998.214	2.73755
1000.74	2.87298
1003.27	1.68898
1005.8	3.65091
1008.33	2.25042
1010.86	1.52475
1013.39	-0.544962
1015.92	0.370502
1018.45	1.21625
1020.98	-0.0435625
1023.51	-1.18908
1026.04	0.807036
1028.57	0.0174772
1031.1	-3.3491
1033.63	-1.39541
1036.16	-0.37706
1038.69	-0.940914
1041.22	-1.89745
1043.75	-2.22428
1046.28	-1.47888
1048.81	0.00186875
1051.34	0.177902
1053.87	-1.7235
1056.4	-1.26016
1058.93	-2.60958
1061.46	-4.05324
1063.99	-3.49528
1066.52	-3.06946
1069.05	-3.35007
1071.58	-2.55665
1074.11	-4.38464
1076.64	-4.09791
1079.17	-4.15077
1081.7	-5.61545
1084.23	-6.89474
1086.76	-6.86406
1089.29	-7.28223
1091.82	-6.4002
1094.35	-6.48864
1096.875	-6.5
1099.4	-6.36889
1101.93	-5.65141
1104.46	-4.97222
1106.99	-5.45437
1109.52	-6.76172
1112.05	-6.43442
1114.58	-8.9164
1117.11	-9.59979
1119.64	-9.40247
1122.17	-8.10105
1124.7	-7.86664
1127.23	-8.78744
1129.76	-8.67635
1132.29	-6.62705
1134.82	-6.27875
1137.35	-6.01213
1139.88	-7.27371
1142.41	-6.023
1144.94	-7.63518
1147.47	-9.1071
1150	-9.7893
1152.53	-10.6789
1155.06	-10.0975
1157.59	-6.07168
1160.12	-9.10119
1162.65	-10.1491
1165.18	-9.01746
1167.71	-8.27666
1170.24	-9.71685
1172.77	-9.15942
1175.3	-6.6972
1177.83	-7.50878
1180.36	-9.63339
1182.89	-9.10173
1185.42	-9.4594
1187.95	-10.2925
1190.48	-9.33207
1193.01	-9.09079
1195.54	-8.72819
1198.07	-9.47626
1200.6	-11.3717
1203.125	-10.1836
1205.65	-10.1296
1208.18	-10.5779
1210.71	-9.57702
1213.24	-11.1988
1215.77	-8.43684
1218.3	-7.95984
1220.83	-9.62969
1223.36	-9.07805
1225.89	-7.48451
1228.42	-9.8637
1230.95	-9.02107
1233.48	-9.56052
1236.01	-9.68335
1238.54	-7.50064
1241.07	-9.92831
1243.6	-9.9341
1246.13	-8.43013
1248.66	-9.20263
1251.19	-10.0465
1253.72	-9.40624
1256.25	-12.5083
1258.78	-10.3443
1261.31	-9.86305
1263.84	-9.20425
1266.37	-8.87057
1268.9	-8.91005
1271.43	-8.27437
1273.96	-8.2205
1276.49	-9.46565
1279.02	-8.86585
1281.55	-9.1794
1284.08	-8.90793
1286.61	-8.72437
1289.14	-7.68148
1291.67	-7.88208
1294.2	-8.04056
1296.73	-7.79989
1299.26	-8.04702
1301.79	-8.35561
1304.32	-7.57801
1306.85	-7.91777
1309.375	-10.6431
1311.9	-6.46745
1314.43	-7.04934
1316.96	-6.36671
1319.49	-5.10087
1322.02	-5.23237
1324.55	-5.79679
1327.08	-6.60747
1329.61	-6.88397
1332.14	-5.21209
1334.67	-6.23222
1337.2	-7.80869
1339.73	-5.25898
1342.26	-4.67291
1344.79	-4.75307
1347.32	-3.37866
1349.85	-4.05367
1352.38	-4.09845
1354.91	-3.86147
1357.44	-5.58221
1359.97	-6.77034
1362.5	-5.47586
1365.03	-5.77653
1367.56	-4.04069
1370.09	-5.0716
1372.62	-6.00719
1375.15	-3.96324
1377.68	-3.67292
1380.21	-4.71723
1382.74	-6.42053
1385.27	-7.85303
1387.8	-7.50269
1390.33	-6.03557
1392.86	-5.86575
1395.39	-6.54967
1397.92	-11.32
1400.45	-4.79366
1402.98	-6.30067
1405.51	-8.12129
1408.04	-7.39078
1410.57	-7.58783
1413.1	-9.81637
1415.625	-10.2822
1418.15	-8.49358
1420.68	-8.95483
1423.21	-9.39045
1425.74	-7.38062
1428.27	-10.9684
1430.8	-7.53161
1433.33	-7.70031
1435.86	-9.23496
1438.39	-8.21084
1440.92	-7.91916
1443.45	-8.8773
1445.98	-8.56874
1448.51	-7.1803
1451.04	-7.75416
1453.57	-10.2699
1456.1	-10.7641
1458.63	-9.82239
1461.16	-8.62109
1463.69	-9.3265
1466.22	-4.23354
1468.75	-4.4891
1471.28	-8.18054
1473.81	-11.5875
1476.34	-9.64407
1478.87	-6.71553
1481.4	-7.66214
1483.93	-9.97113
1486.46	-11.1207
1488.99	-11.3484
1491.52	-10.6
1494.05	-10.5402
1496.58	-8.21906
1499.11	-8.89247
1501.64	-10.3761
1504.17	-8.41134
1506.7	-9.6698
1509.23	-9.14752
1511.76	-8.52154
1514.29	-9.63168
1516.82	-9.95724
1519.35	-8.5909
1521.875	-8.24817
1524.4	-9.95748
1526.93	-7.36489
1529.46	-6.25546
1531.99	-5.32382
1534.52	-7.20839
1537.05	-8.57822
1539.58	-10.117
1542.11	-9.50873
1544.64	-8.84331
1547.17	-7.95164
1549.7	-6.3803
1552.23	-6.3775
1554.76	-8.43393
1557.29	-8.82637
1559.82	-6.45063
1562.35	-5.55196
1564.88	-5.08211
1567.41	-6.38274
1569.94	-6.10182
1572.47	-4.79714
1575	-6.34832
1577.53	-5.79471
1580.06	-6.78869
1582.59	-8.96982
1585.12	-8.43786
1587.65	-7.87886
1590.18	-6.11338
1592.71	-5.53836
1595.24	-7.85032
1597.77	-8.28489
1600.3	-6.91162
1602.83	-5.42769
1605.36	-7.46424
1607.89	-6.45389
1610.42	-4.70732
1612.95	-5.08376
1615.48	-6.54219
1618.01	-9.06224
1620.54	-8.95002
1623.07	-6.83343
1625.6	-7.77863
1628.125	-9.15334
1630.65	-9.27661
1633.18	-9.60208
1635.71	-10.3676
1638.24	-10.6219
1640.77	-9.86313
1643.3	-8.43186
1645.83	-8.13535
1648.36	-8.85677
1650.89	-10.1351
1653.42	-10.3115
1655.95	-9.01442
1658.48	-10.4355
1661.01	-7.60717
1663.54	-9.0026
1666.07	-8.50113
1668.6	-11.2868
1671.13	-11.7438
1673.66	-10.1478
1676.19	-9.57777
1678.72	-8.2911
1681.25	-6.80514
1683.78	-8.35204
1686.31	-10.3872
1688.84	-10.4464
1691.37	-11.7044
1693.9	-11.9812
1696.43	-11.4554
1698.96	-12.0416
1701.49	-11.7292
1704.02	-11.9003
1706.55	-9.99721
1709.08	-8.94964
1711.61	-8.17351
1714.14	-8.87548
1716.67	-9.57043
1719.2	-10.1613
1721.73	-10.734
1724.26	-9.6119
1726.79	-10.5822
1729.32	-9.26519
1731.85	-7.91745
1734.375	-9.49744
1736.9	-10.0358
1739.43	-9.74016
1741.96	-10.7632
1744.49	-10.765
1747.02	-10.5326
1749.55	-10.1763
1752.08	-11.7625
1754.61	-10.8468
1757.14	-10.8714
1759.67	-9.07083
1762.2	-8.77961
1764.73	-11.1792
1767.26	-8.53663
1769.79	-7.58012
1772.32	-6.54122
1774.85	-5.31836
1777.38	-6.36825
1779.91	-9.56546
1782.44	-9.35528
1784.97	-8.96774
1787.5	-8.80819
1790.03	-7.73705
1792.56	-8.79337
1795.09	-10.1
1797.62	-10.2473
1800.15	-9.80914
1802.68	-10.8568
1805.21	-12.0753
1807.74	-9.71811
1810.27	-9.24937
1812.8	-9.9108
1815.33	-10.4668
1817.86	-10.9248
1820.39	-9.90119
1822.92	-11.3089
1825.45	-8.63178
1827.98	-11.4074
1830.51	-11.3884
1833.04	-8.82312
1835.57	-11.3396
1838.1	-12.2504
1840.625	-10.2905
1843.15	-11.9525
1845.68	-11.4334
1848.21	-11.4642
1850.74	-8.49514
1853.27	-11.3512
1855.8	-10.746
1858.33	-12.2053
1860.86	-11.8891
1863.39	-11.8151
1865.92	-11.7922
1868.45	-11.4825
1870.98	-11.7918
1873.51	-12.7387
1876.04	-11.18
1878.57	-9.67346
1881.1	-10.7968
1883.63	-11.2724
1886.16	-10.1417
1888.69	-9.52204
1891.22	-10.9696
1893.75	-10.6473
1896.28	-9.81945
1898.81	-10.4835
1901.34	-10.9
1903.87	-9.25845
1906.4	-9.96242
1908.93	-10.4741
1911.46	-10.1191
1913.99	-11.4877
1916.52	-12.2749
1919.05	-9.107
1921.58	-11.1863
1924.11	-10.8728
1926.64	-8.33394
1929.17	-9.61773
1931.7	-12.8503
1934.23	-10.1001
1936.76	-10.662
1939.29	-9.03286
1941.82	-8.26513
1944.35	-8.644
1946.875	-11.2228
1949.4	-10.3225
1951.93	-7.01564
1954.46	-8.44096
1956.99	-11.457
1959.52	-7.17417
1962.05	-7.56071
1964.58	-8.17491
1967.11	-9.88655
1969.64	-11.8632
1972.17	-12.7511
1974.7	-12.2812
1977.23	-12.3363
1979.76	-11.6443
1982.29	-10.7492
1984.82	-10.311
1987.35	-10.6935
1989.88	-11.4227
1992.41	-11.4635
1994.94	-11.5893
1997.47	-12.3662
2000	-11.2478
2002.53	-10.7601
2005.06	-11.4
2007.59	-10.775
2010.12	-10.6592
2012.65	-11.95
2015.18	-10.693
2017.71	-10.2771
2020.24	-9.46871
2022.77	-8.61666
2025.3	-10.8373
2027.83	-10.1774
2030.36	-8.98232
2032.89	-8.65821
2035.42	-11.0233
2037.95	-11.9117
2040.48	-11.2079
2043.01	-10.8365
2045.54	-9.20226
2048.07	-9.05585
2050.6	-9.54865
2053.125	-9.70509
2055.65	-9.86547
2058.18	-11.1851
2060.71	-11.0827
2063.24	-10.5968
2065.77	-11.7386
2068.3	-11.1589
2070.83	-10.9683
2073.36	-11.367
2075.89	-10.6433
2078.42	-9.4502
2080.95	-9.83312
2083.48	-11.5687
2086.01	-10.6157
2088.54	-10.0174
2091.07	-9.06788
2093.6	-10.7018
2096.13	-11.9239
2098.66	-12.2743
2101.19	-10.7943
2103.72	-10.7198
2106.25	-10.1927
2108.78	-10.7679
2111.31	-10.8633
2113.84	-9.986
2116.37	-10.5837
2118.9	-10.5286
2121.43	-8.9996
2123.96	-9.28153
2126.49	-10.5979
2129.02	-10.3091
2131.55	-8.33669
2134.08	-8.53973
2136.61	-9.5928
2139.14	-9.30002
2141.67	-10.3304
2144.2	-9.91878
2146.73	-9.53044
2149.26	-10.093
2151.79	-10.0927
2154.32	-9.44688
2156.85	-9.43928
2159.375	-9.34336
2161.9	-8.70928
2164.43	-9.14463
2166.96	-8.83889
2169.49	-9.66727
2172.02	-10.1789
2174.55	-9.49125
2177.08	-8.90788
2179.61	-8.80647
2182.14	-9.11025
2184.67	-9.61681
2187.2	-9.68865
2189.73	-10.3894
2192.26	-10.3751
2194.79	-10.1069
2197.32	-10.4965
2199.85	-9.50722
2202.38	-9.98459
2204.91	-8.92836
2207.44	-9.44428
2209.97	-10.339
2212.5	-8.31316
2215.03	-8.31253
2217.56	-9.77549
2220.09	-9.96562
2222.62	-9.71991
2225.15	-8.90235
2227.68	-8.63295
2230.21	-8.05257
2232.74	-8.71435
2235.27	-10.7463
2237.8	-8.90744
2240.33	-9.05076
2242.86	-9.73364
2245.39	-9.81144
2247.92	-9.43018
2250.45	-10.0233
2252.98	-9.31313
2255.51	-8.9464
2258.04	-11.5959
2260.57	-7.7727
2263.1	-8.87147
2265.625	-7.933
2268.15	-8.05116
2270.68	-9.21413
2273.21	-8.5105
2275.74	-8.03133
2278.27	-10.4099
2280.8	-10.1633
2283.33	-7.55763
2285.86	-7.73992
2288.39	-7.53716
2290.92	-8.60498
2293.45	-8.70287
2295.98	-8.46167
2298.51	-8.3792
2301.04	-8.70792
2303.57	-8.59955
2306.1	-7.68468
2308.63	-9.1903
2311.16	-8.80069
2313.69	-8.24153
2316.22	-9.15554
2318.75	-8.07469
2321.28	-6.50649
2323.81	-8.32304
2326.34	-10.7567
2328.87	-7.25289
2331.4	-5.4538
2333.93	-1.95675
2336.46	-1.86998
2338.99	-4.82355
2341.52	-6.77757
2344.05	-7.43129
2346.58	-5.96016
2349.11	-6.42078
2351.64	-7.28885
2354.17	-7.08008
2356.7	-8.05204
2359.23	-8.19313
2361.76	-6.1724
2364.29	-7.65416
2366.82	-5.88037
2369.35	-5.42794
2371.875	-6.53034
2374.4	-5.16989
2376.93	-4.22938
2379.46	-6.22335
2381.99	-6.22261
2384.52	-5.07311
2387.05	-4.53537
2389.58	-5.39132
2392.11	-4.59658
2394.64	-4.69439
2397.17	-5.48445
2399.7	-5.26028
2402.23	-4.77899
2404.76	-5.27645
2407.29	-3.91647
2409.82	-1.33952
2412.35	-2.08787
2414.88	-0.761834
2417.41	-1.93557
2419.94	2.68195
2422.47	2.3967
2425	4.60416
2427.53	6.18257
2430.06	8.78218
2432.59	14.2595
2435.12	21.0246
2437.65	25.8314
2440.18	33.1079
2442.71	31.6386
2445.24	27.4859
2447.77	25.1556
2450.3	19.6141
2452.83	15.7292
2455.36	11.0593
2457.89	8.24061
2460.42	5.79871
2462.95	6.04303
2465.48	5.48855
2468.01	1.49482
2470.54	0.583325
2473.07	0.824373
2475.6	1.69472
2478.125	2.25942
2480.65	2.9868
2483.18	1.68329
2485.71	1.22862
2488.24	0.677914
2490.77	2.79249
2493.3	1.44308
2495.83	-0.358825
2498.36	0.241177
2500.89	-0.654562
2503.42	0.76805
2505.95	-0.100818
2508.48	-0.707121
2511.01	-0.744938
2513.54	-0.801591
2516.07	-1.41943
2518.6	-1.62855
2521.13	0.983045
2523.66	0.266745
2526.19	0.545793
2528.72	0.657906
2531.25	0.452194
2533.78	1.41206
2536.31	2.0446
2538.84	-0.391781
2541.37	-0.471019
2543.9	-0.969534
2546.43	-0.923752
2548.96	-1.28498
2551.49	-0.976216
2554.02	-1.57879
2556.55	-1.04092
2559.08	-1.42907
2561.61	-2.87244
2564.14	-3.09555
2566.67	-3.56401
2569.2	-2.7666
2571.73	-2.7247
2574.26	-2.62212
2576.79	-4.83515
2579.32	-4.99219
2581.85	-4.01292
2584.375	-1.63535
2586.9	-2.92448
2589.43	-4.16276
2591.96	-4.26651
2594.49	-2.01695
2597.02	-5.03002
2599.55	-2.14615
2602.08	-2.92597
2604.61	-3.84992
2607.14	-2.816
2609.67	-1.53357
2612.2	-3.20594
2614.73	-3.53862
2617.26	-3.68405
2619.79	-3.76163
2622.32	-3.47921
2624.85	-3.29842
2627.38	-2.1421
2629.91	-2.93412
2632.44	-1.6659
2634.97	-1.91494
2637.5	-2.32313
2640.03	-1.57918
2642.56	-1.08126
2645.09	-2.85595
2647.62	-3.26886
2650.15	-2.30552
2652.68	-2.96785
2655.21	-2.42922
2657.74	-2.59276
2660.27	-1.72142
2662.8	-2.74273
2665.33	-0.828988
2667.86	-0.013077
2670.39	-2.25252
2672.92	0.276589
2675.45	-0.424539
2677.98	-1.36113
2680.51	-0.932734
2683.04	-0.913028
2685.57	-0.550098
2688.1	-0.256833
2690.625	-0.210296
2693.15	-0.193345
2695.68	-1.55514
2698.21	0.391428
2700.74	-0.88057
2703.27	0.267723
2705.8	0.166221
2708.33	-2.10846
2710.86	-0.895071
2713.39	-0.53808
2715.92	-1.27502
2718.45	-2.18336
2720.98	-1.1634
2723.51	-0.682583
2726.04	-1.30357
2728.57	-1.24835
2731.1	-1.25295
2733.63	-2.47669
2736.16	-2.29636
2738.69	-1.0228
2741.22	-1.42305
2743.75	-1.22949
2746.28	-2.35748
2748.81	-1.14681
2751.34	-0.31755
2753.87	-0.6939
2756.4	0.342389
2758.93	-1.01293
2761.46	-1.58409
2763.99	-0.769074
2766.52	-1.41541
2769.05	-1.30104
2771.58	-0.546043
2774.11	-0.505639
2776.64	-1.42958
2779.17	-1.32833
2781.7	0.547353
2784.23	1.25275
2786.76	-0.034151
2789.29	-0.775911
2791.82	-0.69545
2794.35	0.636189
2796.875	-0.379728
2799.4	-1.41757
2801.93	-0.663278
2804.46	0.678443
2806.99	-0.113325
2809.52	-0.3004
2812.05	0.171454
2814.58	2.8427
2817.11	-0.173547
2819.64	-2.527
2822.17	-1.34037
2824.7	-0.07962
2827.23	0.0574363
2829.76	-0.807608
2832.29	0.243457
2834.82	-0.213313
2837.35	0.537075
2839.88	2.24675
2842.41	1.83897
2844.94	0.123597
2847.47	0.900857
2850	0.659058
2852.53	-1.54899
2855.06	-2.66072
2857.59	0.0639364
2860.12	-1.67087
2862.65	-0.618063
2865.18	0.849978
2867.71	2.08812
2870.24	2.131
2872.77	-0.982772
2875.3	1.95675
2877.83	0.509283
2880.36	1.19798
2882.89	0.470872
2885.42	1.79446
2887.95	1.29829
2890.48	2.01628
2893.01	0.857144
2895.54	1.15383
2898.07	-0.465685
2900.6	0.154175
2903.125	1.36507
2905.65	2.33032
2908.18	3.55813
2910.71	2.01291
2913.24	1.12535
2915.77	1.52803
2918.3	1.98746
2920.83	1.18444
2923.36	1.39435
2925.89	3.39087
2928.42	5.24692
2930.95	3.84674
2933.48	5.07782
2936.01	2.92392
2938.54	2.17111
2941.07	-0.926768
2943.6	2.52531
2946.13	1.7333
2948.66	5.13877
2951.19	5.11185
2953.72	6.55103
2956.25	4.15117
2958.78	4.17279
2961.31	2.9756
2963.84	4.65957
2966.37	3.29343
2968.9	3.9608
2971.43	4.12548
2973.96	1.5647
2976.49	1.11533
2979.02	0.544385
2981.55	0.53036
2984.08	0.894314
2986.61	-1.86373
2989.14	-0.758638
2991.67	-0.629283
2994.2	-3.28328
2996.73	0.58215
2999.26	-1.66524
3001.79	-3.5176
3004.32	-0.605833
3006.85	-0.654613
3009.375	-2.31534
3011.9	-2.38849
3014.43	1.35291
3016.96	-0.414803
3019.49	1.02418
3022.02	0.404697
3024.55	0.0423126
3027.08	0.447139
3029.61	-0.153393
3032.14	-1.24223
3034.67	-1.23238
3037.2	1.54519
3039.73	1.198
3042.26	-1.31545
3044.79	-2.45891
3047.32	-1.00782
3049.85	-1.81312
3052.38	-0.396345
3054.91	0.477526
3057.44	1.0005
3059.97	1.23515
3062.5	1.2477
3065.03	0.116416
3067.56	0.275029
3070.09	-2.36242
3072.62	-0.529456
3075.15	1.99535
3077.68	1.57403
3080.21	0.0628319
3082.74	-0.0468764
3085.27	0.0561843
3087.8	1.09571
3090.33	-1.01375
3092.86	-0.283482
3095.39	0.465012
3097.92	-0.521665
3100.45	0.787358
3102.98	0.609869
3105.51	-0.164677
3108.04	-0.40611
3110.57	-1.04192
3113.1	-1.81224
3115.625	0.423979
3118.15	-1.00588
3120.68	-0.133224
3123.21	-1.88472
3125.74	-1.46731
3128.27	-0.495122
3130.8	-1.44224
3133.33	1.56882
3135.86	-0.414355
3138.39	0.0153565
3140.92	-0.762406
3143.45	1.69928
3145.98	-0.00491238
3148.51	0.471805
3151.04	-1.42387
3153.57	-0.719846
3156.1	-1.47046
3158.63	-0.784487
3161.16	2.44842
3163.69	-0.984322
3166.22	0.523767
3168.75	-1.0378
3171.28	-0.991481
3173.81	0.418978
3176.34	1.90119
3178.87	0.480047
3181.4	-0.909758
3183.93	-2.10993
3186.46	0.679068
3188.99	0.0496602
3191.52	-0.197083
3194.05	1.2187
3196.58	-1.33245
3199.11	0.657911
3201.64	0.120526
3204.17	-0.406086
3206.7	-0.231977
3209.23	0.523021
3211.76	-1.60266
3214.29	0.856422
3216.82	-2.45627
3219.35	2.93526
3221.875	2.10304
3224.4	-0.471395
3226.93	0.664845
3229.46	2.66597
3231.99	-0.396411
3234.52	0.0431828
3237.05	-0.87487
3239.58	-0.89089
3242.11	1.51013
3244.64	0.595239
3247.17	1.16967
3249.7	0.539989
3252.23	0.95457
3254.76	2.10594
3257.29	2.71669
3259.82	4.47958
3262.35	2.45545
3264.88	1.34969
3267.41	0.0174932
3269.94	-0.140965
3272.47	1.86677
3275	0.293958
3277.53	1.82216
3280.06	1.3077
3282.59	1.5045
3285.12	2.09834
3287.65	1.31883
3290.18	2.7756
3292.71	2.96667
3295.24	1.24722
3297.77	3.00189
3300.3	3.13696
3302.83	3.43704
3305.36	1.63071
3307.89	-0.013526
3310.42	0.255584
3312.95	1.60069
3315.48	0.830263
3318.01	0.812669
3320.54	0.180467
3323.07	2.32078
3325.6	0.823426
3328.125	3.2463
3330.65	1.80769
3333.18	3.05801
3335.71	2.47132
3338.24	-0.491393
3340.77	0.890114
3343.3	1.98507
3345.83	0.365199
3348.36	-0.101361
3350.89	3.27856
3353.42	0.589184
3355.95	1.58615
3358.48	3.02036
3361.01	1.50465
3363.54	2.75271
3366.07	2.33608
3368.6	2.11739
3371.13	2.34414
3373.66	0.902045
3376.19	2.7251
3378.72	3.52183
3381.25	2.52954
3383.78	2.09957
3386.31	2.73123
3388.84	2.80599
3391.37	1.60943
3393.9	2.70931
3396.43	1.01918
3398.96	5.56353
3401.49	4.30182
3404.02	4.21041
3406.55	1.70734
3409.08	0.586102
3411.61	4.14708
3414.14	2.01877
3416.67	5.27476
3419.2	3.32204
3421.73	3.15822
3424.26	3.76366
3426.79	4.15897
3429.32	5.80289
3431.85	5.57503
3434.375	2.91447
3436.9	4.26468
3439.43	4.55669
3441.96	3.8411
3444.49	2.94387
3447.02	4.50515
3449.55	1.20186
3452.08	3.1632
3454.61	3.49513
3457.14	2.19282
3459.67	2.95907
3462.2	1.54032
3464.73	2.05317
3467.26	4.55927
3469.79	5.91818
3472.32	5.64236
3474.85	6.07047
3477.38	3.19849
3479.91	1.77575
3482.44	3.93211
3484.97	2.65032
3487.5	3.90997
3490.03	5.26494
3492.56	4.80231
3495.09	4.46568
3497.62	3.14109
3500.15	3.50954
3502.68	4.15324
3505.21	3.86956
3507.74	4.83008
3510.27	4.11508
3512.8	1.95304
3515.33	3.18451
3517.86	3.79936
3520.39	5.16541
3522.92	4.75142
3525.45	4.13189
3527.98	3.88255
3530.51	2.87382
3533.04	4.21028
3535.57	4.27238
3538.1	6.11434
3540.625	0.45076
3543.15	3.72919
3545.68	2.67521
3548.21	2.96274
3550.74	4.79698
3553.27	3.78118
3555.8	5.94494
3558.33	3.50152
3560.86	3.65026
3563.39	7.14349
3565.92	3.14099
3568.45	3.5845
3570.98	4.63422
3573.51	6.12168
3576.04	4.49481
3578.57	6.25357
3581.1	6.41978
3583.63	3.72427
3586.16	5.8778
3588.69	5.87064
3591.22	4.79039
3593.75	6.70321
3596.28	5.99312
3598.81	7.9606
3601.34	6.00888
3603.87	3.66094
3606.4	3.92464
3608.93	3.03417
3611.46	5.46551
3613.99	2.24594
3616.52	2.78862
3619.05	4.31366
3621.58	2.57634
3624.11	5.87843
3626.64	7.28116
3629.17	5.3501
3631.7	6.37569
3634.23	3.21038
3636.76	5.38494
3639.29	4.9893
3641.82	5.11769
3644.35	3.32288
3646.875	4.68496
3649.4	4.21619
3651.93	4.07036
3654.46	5.46288
3656.99	3.10778
3659.52	4.12378
3662.05	4.26492
3664.58	3.22526
3667.11	4.83271
3669.64	5.84177
3672.17	5.89829
3674.7	4.10165
3677.23	4.8126
3679.76	3.39264
3682.29	5.30373
3684.82	7.05682
3687.35	8.3073
3689.88	4.39024
3692.41	6.17503
3694.94	5.4648
3697.47	6.1586
3700	3.86091