File: Example Data/Raman/CNT - TIM/Raytheon/Al foil/2010/04-20-10/R1 - 15 microns - sideA.txt
300	111.222
301.307	108.766
302.613	110.923
303.92	107.671
305.227	104.347
306.533	110.319
307.84	102.667
309.147	102.792
310.453	108.744
311.76	110.94
313.067	109.012
314.374	104.86
315.68	104.593
316.987	110.793
318.294	114.446
319.6	107.224
320.907	114.931
322.214	108.384
323.52	105.755
324.827	108.768
326.134	104.544
327.44	103.078
328.747	104.388
330.054	104.313
331.361	103.132
332.667	96.8458
333.974	104.306
335.281	108.496
336.587	104.276
337.894	103.682
339.201	102.461
340.507	104.486
341.814	108.984
343.121	110.313
344.427	108.367
345.734	103.659
347.041	108.738
348.347	95.6769
349.654	100.555
350.961	102.356
352.267	104.163
353.574	102.643
354.881	103.36
356.188	112.636
357.494	108.775
358.801	98.4065
360.108	100.8
361.414	102.097
362.721	101.132
364.028	103.968
365.334	104.101
366.641	103.584
367.948	103.441
369.254	98.0491
370.561	94.7617
371.868	105.93
373.174	100.529
374.481	103.515
375.788	95.5724
377.095	96.8846
378.401	105.617
379.708	104.847
381.015	96.7243
382.321	98.2629
383.628	98.7787
384.935	104.951
386.241	101.044
387.548	97.9553
388.855	108.534
390.161	110.741
391.468	107.263
392.775	100.863
394.081	96.483
395.388	99.8138
396.695	98.4136
398.002	101.244
399.308	98.2391
400.615	97.1689
401.922	92.1055
403.228	95.0009
404.535	94.2511
405.842	93.2492
407.148	99.8055
408.455	107.75
409.762	105.764
411.068	93.3709
412.375	93.9728
413.682	105.223
414.988	100.603
416.295	86.7918
417.602	88.6793
418.909	96.2537
420.215	99.4882
421.522	100.947
422.829	100.585
424.135	101.529
425.442	88.3789
426.749	95.6231
428.055	96.061
429.362	92.6277
430.669	91.7524
431.975	91.8218
433.282	92.1074
434.589	92.0883
435.895	89.0571
437.202	83.7599
438.509	86.5775
439.816	94.4364
441.122	89.678
442.429	98.7116
443.736	92.3033
445.042	87.3301
446.349	86.6667
447.656	91.6874
448.962	97.2536
450.269	96.0488
451.576	100.861
452.882	95.9315
454.189	94.7205
455.496	91.4841
456.802	97.7293
458.109	97.6085
459.416	90.9126
460.723	87.168
462.029	87.6091
463.336	87.5684
464.643	87.9107
465.949	93.054
467.256	99.2089
468.563	97.0834
469.869	95.8345
471.176	95.144
472.483	90.3664
473.789	92.9832
475.096	87.7223
476.403	80.4284
477.709	83.3783
479.016	88.3344
480.323	89.2249
481.63	88.6667
482.936	88.6667
484.243	75.1875
485.55	88.2484
486.856	80.1052
488.163	78.2086
489.47	84.6033
490.776	93.7378
492.083	93.4411
493.39	82.2348
494.696	81.2021
496.003	84.895
497.31	86.6574
498.616	86.3531
499.923	88.0425
501.23	87.0521
502.536	85.0728
503.843	87.7194
505.15	88.2928
506.457	85.9552
507.763	85.1139
509.07	87.0447
510.377	88.8501
511.683	74.7402
512.99	86.013
514.297	90.8957
515.603	86.3319
516.91	83.5849
518.217	82.3348
519.523	80.6437
520.83	86.7965
522.137	91.7903
523.443	87.6719
524.75	82.7716
526.057	75.8681
527.364	85.0612
528.67	82.0047
529.977	84.4453
531.284	82.4418
532.59	88.0133
533.897	86.4263
535.204	87.6073
536.51	80.3924
537.817	78.4059
539.124	89.9447
540.43	91.4021
541.737	84.8801
543.044	82.8427
544.351	69.7814
545.657	92.7797
546.964	81.4817
548.271	83.7353
549.577	81.9833
550.884	80.4613
552.191	81.5842
553.497	86.012
554.804	82.7206
556.111	77.4898
557.417	92.2146
558.724	87.0926
560.031	87.8242
561.337	90.2816
562.644	84.9196
563.951	90.6426
565.258	83.5608
566.564	77.1108
567.871	83.3822
569.178	84.4049
570.484	84.7556
571.791	88.3973
573.098	81.8155
574.404	76.9332
575.711	78.4783
577.018	90.8824
578.324	81.9575
579.631	77.2065
580.938	85.0927
582.244	85.5218
583.551	86.7678
584.858	88.2535
586.164	86.7933
587.471	82.5345
588.778	82.3285
590.085	87.8559
591.391	87.2894
592.698	83.1539
594.005	81.4051
595.311	72.155
596.618	83.8248
597.925	87.2263
599.231	90.2009
600.538	86.6567
601.845	89.157
603.151	92.1796
604.458	89.7008
605.765	83.9323
607.071	85.4834
608.378	94.0055
609.685	82.4646
610.992	86.9524
612.298	92.3834
613.605	82.1882
614.912	82.8394
616.218	88.1165
617.525	89.3333
618.832	84.4661
620.138	85.1558
621.445	85.5996
622.752	83.7009
624.058	84.0874
625.365	87.3733
626.672	89.2639
627.978	81.4262
629.285	86.9692
630.592	86.704
631.899	88.2541
633.205	83.045
634.512	85.309
635.819	91.6886
637.125	83.3687
638.432	83.3489
639.739	86.3115
641.045	88.1639
642.352	87.1184
643.659	84.0474
644.965	87.7199
646.272	85.1879
647.579	90.2539
648.885	89.5307
650.192	87.0456
651.499	94.0049
652.806	82.5443
654.112	81.6301
655.419	81.5263
656.726	82.1908
658.032	85.162
659.339	89.5436
660.646	87.5829
661.952	83.1245
663.259	88.8
664.566	94.0329
665.872	85.067
667.179	90.5053
668.486	81.4836
669.792	91.7568
671.099	92.304
672.406	96.8463
673.713	90.902
675.019	86.3746
676.326	86.8524
677.633	93.1341
678.939	98.3885
680.246	99.0582
681.553	93.7566
682.859	85.7931
684.166	84.9657
685.473	88.8666
686.779	93.938
688.086	95.5473
689.393	93.9674
690.699	90.5351
692.006	92.0983
693.313	91.2413
694.62	85.4515
695.926	90.6025
697.233	96.6126
698.54	96.4376
699.846	92.4676
701.153	96.5173
702.46	99.9524
703.766	93.6175
705.073	95.2085
706.38	92.7244
707.686	94.8005
708.993	89.8146
710.3	95.709
711.606	98.5279
712.913	88.2428
714.22	91.1668
715.526	89.9406
716.833	89.5707
718.14	94.2335
719.447	89.1575
720.753	90.0451
722.06	94.3852
723.367	93.8866
724.673	92.4129
725.98	90.6067
727.287	94.5794
728.593	90.6532
729.9	93.1083
731.207	89.5517
732.513	98.0133
733.82	102.095
735.127	95.2269
736.434	102.64
737.74	105.879
739.047	91.0703
740.354	95.0905
741.66	101.134
742.967	98.4046
744.274	99.5657
745.58	99.2103
746.887	92.9588
748.194	94.7712
749.5	100.262
750.807	100.036
752.114	96.5841
753.42	98.5044
754.727	103.44
756.034	105.958
757.341	109.405
758.647	107.918
759.954	104.936
761.261	105.353
762.567	97.8532
763.874	92.4821
765.181	96.5457
766.487	99.4519
767.794	97.023
769.101	97.0556
770.407	100.699
771.714	101.333
773.021	101.203
774.327	106.302
775.634	106.228
776.941	101.651
778.247	106.058
779.554	102.445
780.861	108.767
782.168	95.6039
783.474	96.3414
784.781	97.206
786.088	102.133
787.394	101.076
788.701	92.5687
790.008	97.1227
791.314	101.561
792.621	98.8254
793.928	100.463
795.234	103.195
796.541	101
797.848	101.803
799.154	105.51
800.461	109.857
801.768	104.218
803.075	98.6157
804.381	103.982
805.688	103.674
806.995	105.258
808.301	99.5941
809.608	99.5724
810.915	104.258
812.221	112.189
813.528	115.047
814.835	110.234
816.141	100.663
817.448	102.61
818.755	108.379
820.061	105.691
821.368	103.38
822.675	105.539
823.982	107.117
825.288	110.187
826.595	111.015
827.902	115.511
829.208	109.547
830.515	117.128
831.822	106.919
833.128	110.968
834.435	108.421
835.742	112.632
837.048	104.819
838.355	110.315
839.662	118.484
840.969	113.413
842.275	117.507
843.582	120.551
844.889	113.361
846.195	109.42
847.502	111.564
848.809	107.271
850.115	102.879
851.422	111.323
852.729	121.478
854.035	119.745
855.342	112.683
856.649	112.646
857.955	108.647
859.262	107.134
860.569	108.493
861.875	113.3
863.182	112.528
864.489	97.5125
865.796	101.938
867.102	114.128
868.409	110.044
869.716	115.152
871.022	113.366
872.329	111.132
873.636	104.998
874.942	108.518
876.249	105.405
877.556	106.78
878.862	107.346
880.169	104.628
881.476	107.578
882.782	108.795
884.089	108.33
885.396	108.181
886.703	102.525
888.009	100.923
889.316	103.053
890.623	114.133
891.929	104.65
893.236	101.832
894.543	97.7987
895.849	111.094
897.156	97.9283
898.463	98.9239
899.769	95.072
901.076	103.357
902.383	105.777
903.689	101.757
904.996	101.173
906.303	100.127
907.61	96.9178
908.916	99.7919
910.223	103.23
911.53	105.159
912.836	106.726
914.143	104.958
915.45	100.141
916.756	98.5039
918.063	99.7303
919.37	95.137
920.676	89.9019
921.983	94.5687
923.29	97.7339
924.596	100.589
925.903	102.262
927.21	108.782
928.517	101.56
929.823	95.0307
931.13	102.022
932.437	111.048
933.743	93.3409
935.05	100.758
936.357	106.928
937.663	101.008
938.97	95.1042
940.277	98.2511
941.583	99.2692
942.89	104.765
944.197	93.9284
945.503	95.6156
946.81	99.5936
948.117	100.768
949.424	100.793
950.73	104.014
952.037	106.333
953.344	104.037
954.65	102.5
955.957	100.337
957.264	97.7738
958.57	102.718
959.877	104.289
961.184	96.7841
962.49	94.7385
963.797	95.9896
965.104	104.755
966.41	91.55
967.717	99.2929
969.024	103.358
970.331	110.385
971.637	106.415
972.944	102.431
974.251	103.589
975.557	107
976.864	106.869
978.171	99.0924
979.477	94.5102
980.784	103.068
982.091	110.642
983.397	108.097
984.704	105.953
986.011	104.282
987.317	109.37
988.624	98.9645
989.931	101.958
991.237	109.345
992.544	110.63
993.851	105.13
995.158	109.861
996.464	105.482
997.771	112.569
999.078	111.231
1000.38	102.625
1001.69	107.929
1003	109.07
1004.3	104.333
1005.61	108.351
1006.92	110.065
1008.22	108.418
1009.53	111.333
1010.84	112.324
1012.14	117.38
1013.45	122.359
1014.76	117.433
1016.06	114.688
1017.37	117.791
1018.68	110.465
1019.98	113.29
1021.29	116.37
1022.6	123.906
1023.9	119.716
1025.21	118.524
1026.52	132.591
1027.82	131.098
1029.13	121.416
1030.44	109.755
1031.74	111.832
1033.05	126.582
1034.36	120.378
1035.66	121.308
1036.97	123.245
1038.28	128.012
1039.58	134.143
1040.89	125.076
1042.2	139.838
1043.51	130.222
1044.81	131.147
1046.12	120.923
1047.43	131.053
1048.73	128.469
1050.04	130.092
1051.35	132.764
1052.65	133.087
1053.96	133.722
1055.27	132.118
1056.57	137.307
1057.88	137.757
1059.19	130.764
1060.49	136.83
1061.8	136.174
1063.11	133.479
1064.41	132.219
1065.72	134.083
1067.03	137.084
1068.33	137.484
1069.64	135.026
1070.95	133.69
1072.25	131.647
1073.56	130.306
1074.87	135.787
1076.17	139.411
1077.48	135.797
1078.79	132.956
1080.09	135.717
1081.4	139.543
1082.71	140.596
1084.01	145.958
1085.32	145.644
1086.63	136.799
1087.93	146.323
1089.24	146.331
1090.55	147.56
1091.85	147.025
1093.16	145.839
1094.47	145.522
1095.77	147.12
1097.08	145.404
1098.39	147.595
1099.69	156.895
1101	160.049
1102.31	162.035
1103.61	151.619
1104.92	147.6
1106.23	147.9
1107.53	150.692
1108.84	154.094
1110.15	163.097
1111.45	163.863
1112.76	156.851
1114.07	164.401
1115.37	166.333
1116.68	161.978
1117.99	163.899
1119.29	160.903
1120.6	165.012
1121.91	155.446
1123.21	157.285
1124.52	164.271
1125.83	160.145
1127.13	177.104
1128.44	177.914
1129.75	184.803
1131.05	176.192
1132.36	174.752
1133.67	182.812
1134.97	176.014
1136.28	180.506
1137.59	160.399
1138.89	179.173
1140.2	182.775
1141.51	180.367
1142.81	174.104
1144.12	191.473
1145.43	191.535
1146.73	196.308
1148.04	189.732
1149.35	192.348
1150.65	187.103
1151.96	187.526
1153.27	199.511
1154.57	190.912
1155.88	179.943
1157.19	205.379
1158.49	210.385
1159.8	193.356
1161.11	189.14
1162.41	211.829
1163.72	210.214
1165.03	210.216
1166.33	212.14
1167.64	199.774
1168.95	211.5
1170.25	214.506
1171.56	209.187
1172.87	214.875
1174.17	209.805
1175.48	223.932
1176.79	214.397
1178.09	214.723
1179.4	209.62
1180.71	213.713
1182.01	217.776
1183.32	216.031
1184.63	208.602
1185.93	212.294
1187.24	212.621
1188.55	216.101
1189.85	225.471
1191.16	222.666
1192.47	228.409
1193.77	222.139
1195.08	231.553
1196.39	227.422
1197.69	226.57
1199	234.413
1200.31	232.097
1201.61	230.66
1202.92	241.085
1204.23	223.036
1205.53	230.612
1206.84	226.814
1208.15	234.384
1209.45	234.037
1210.76	238.644
1212.07	238.528
1213.37	247.966
1214.68	249.686
1215.99	237.366
1217.29	255.03
1218.6	253.389
1219.91	236.689
1221.21	252.754
1222.52	244.716
1223.83	256.862
1225.13	271.119
1226.44	266.98
1227.75	252.776
1229.05	257.131
1230.36	268.737
1231.67	256.28
1232.97	273.44
1234.28	268.913
1235.59	279.237
1236.89	276.593
1238.2	279.878
1239.51	283.712
1240.81	282.492
1242.12	285.397
1243.43	290.389
1244.73	284.371
1246.04	285.412
1247.35	296.999
1248.65	293.398
1249.96	284.866
1251.27	307.546
1252.57	303.231
1253.88	303.795
1255.19	319.488
1256.49	314.901
1257.8	317.098
1259.11	305.59
1260.42	314.927
1261.72	322.672
1263.03	328.641
1264.34	330.254
1265.64	324.843
1266.95	338.989
1268.26	338.55
1269.56	335.25
1270.87	337.321
1272.18	347.056
1273.48	354.18
1274.79	362.864
1276.1	375.789
1277.4	373.924
1278.71	369.867
1280.02	373.974
1281.32	367.493
1282.63	371.081
1283.94	385.384
1285.24	392.208
1286.55	398.658
1287.86	402.574
1289.16	404.023
1290.47	406.594
1291.78	410.726
1293.08	432.423
1294.39	427.862
1295.7	425.8
1297	433.663
1298.31	441.59
1299.62	447.475
1300.92	449.493
1302.23	454.032
1303.54	471.978
1304.84	474.73
1306.15	466.661
1307.46	473.12
1308.76	481.662
1310.07	489.434
1311.38	514.946
1312.68	519.905
1313.99	525.783
1315.3	515.318
1316.6	520.415
1317.91	541.698
1319.22	552.392
1320.52	543.238
1321.83	549.765
1323.14	569.103
1324.44	577.408
1325.75	552.679
1327.06	567.894
1328.36	574.154
1329.67	575.274
1330.98	586.385
1332.28	582.744
1333.59	577.066
1334.9	587.757
1336.2	597.874
1337.51	598.406
1338.82	608.458
1340.12	601.417
1341.43	612.031
1342.74	601.47
1344.04	612.466
1345.35	607.041
1346.66	606.087
1347.96	609.691
1349.27	597.781
1350.58	587.081
1351.88	585.724
1353.19	600.492
1354.5	591.897
1355.8	591.92
1357.11	585.735
1358.42	559.345
1359.72	570.688
1361.03	565.148
1362.34	549.36
1363.64	547.903
1364.95	539.189
1366.26	548.966
1367.56	543.219
1368.87	533.088
1370.18	533.077
1371.48	535.778
1372.79	528.269
1374.1	522.903
1375.4	518.874
1376.71	506.278
1378.02	510.59
1379.32	488.908
1380.63	486.755
1381.94	488.606
1383.24	475.561
1384.55	467.442
1385.86	463.799
1387.16	465.638
1388.47	457.913
1389.78	457.505
1391.08	447.862
1392.39	439.853
1393.7	437.738
1395	432.612
1396.31	422.059
1397.62	428.641
1398.92	433.59
1400.23	426.829
1401.54	417.532
1402.84	410.442
1404.15	405.321
1405.46	394.764
1406.76	395.501
1408.07	396.388
1409.38	389.735
1410.68	395.773
1411.99	395.79
1413.3	388.941
1414.6	371.715
1415.91	378.71
1417.22	375.705
1418.52	378.864
1419.83	376.915
1421.14	368.784
1422.44	361.286
1423.75	359.821
1425.06	364.332
1426.36	360.765
1427.67	353.247
1428.98	358.832
1430.28	358.442
1431.59	360.619
1432.9	351.873
1434.2	342.177
1435.51	341.938
1436.82	344.933
1438.12	345.381
1439.43	341.907
1440.74	344.19
1442.04	338.262
1443.35	338.908
1444.66	336.183
1445.96	336.978
1447.27	345.034
1448.58	337.375
1449.88	335.135
1451.19	344.775
1452.5	339.407
1453.8	340.469
1455.11	332.16
1456.42	332.292
1457.72	339.789
1459.03	335.963
1460.34	336.282
1461.64	337.711
1462.95	332.768
1464.26	332.596
1465.56	334.781
1466.87	324.525
1468.18	338.842
1469.48	335.342
1470.79	343.569
1472.1	337.54
1473.41	333.11
1474.71	338.57
1476.02	324.236
1477.33	327.677
1478.63	329.765
1479.94	327.635
1481.25	334.762
1482.55	344.181
1483.86	334.434
1485.17	342.271
1486.47	335.435
1487.78	324.705
1489.09	330.923
1490.39	339.708
1491.7	336.088
1493.01	335.788
1494.31	341.906
1495.62	346.301
1496.93	345.105
1498.23	344.19
1499.54	329.065
1500.85	335.91
1502.15	332.51
1503.46	331.71
1504.77	339.264
1506.07	350.82
1507.38	332.152
1508.69	344.082
1509.99	332.737
1511.3	343.086
1512.61	334.422
1513.91	325.525
1515.22	340.142
1516.53	341.526
1517.83	355.407
1519.14	363.214
1520.45	349.317
1521.75	352.148
1523.06	353.761
1524.37	353.631
1525.67	363.61
1526.98	364.066
1528.29	363.752
1529.59	354.814
1530.9	355.569
1532.21	371.353
1533.51	371.609
1534.82	367.517
1536.13	378.371
1537.43	375.698
1538.74	377.361
1540.05	383.759
1541.35	396.37
1542.66	381.34
1543.97	417.132
1545.27	411.029
1546.58	408.07
1547.89	406.048
1549.19	409.159
1550.5	419.503
1551.81	429.283
1553.11	417.611
1554.42	427.958
1555.73	434.953
1557.03	446.768
1558.34	456.102
1559.65	464.756
1560.95	470.292
1562.26	484.555
1563.57	481.76
1564.87	479.523
1566.18	485.589
1567.49	492.95
1568.79	513.058
1570.1	523.471
1571.41	532.813
1572.71	523.547
1574.02	556.313
1575.33	538.617
1576.63	556.663
1577.94	561.206
1579.25	577.769
1580.55	579.177
1581.86	593.926
1583.17	596.837
1584.47	592.049
1585.78	601.126
1587.09	606.876
1588.39	612.142
1589.7	611.119
1591.01	608.59
1592.31	617.039
1593.62	629.503
1594.93	625.704
1596.23	627.065
1597.54	610.453
1598.85	618.515
1600.15	618.914
1601.46	622.753
1602.77	623.667
1604.07	619.79
1605.38	615.026
1606.69	603.019
1607.99	601.871
1609.3	576.685
1610.61	572.43
1611.91	567.011
1613.22	560.074
1614.53	545.049
1615.83	541.749
1617.14	526.464
1618.45	508.544
1619.75	489.363
1621.06	466.502
1622.37	453.985
1623.67	436.846
1624.98	412.276
1626.29	427.5
1627.59	402.257
1628.9	397.375
1630.21	366.547
1631.51	353.224
1632.82	349.535
1634.13	339.795
1635.43	322.223
1636.74	315.699
1638.05	307.283
1639.35	309.615
1640.66	286.21
1641.97	276.932
1643.27	288.017
1644.58	264.068
1645.89	256.342
1647.19	257.059
1648.5	260.88
1649.81	248.411
1651.11	225.284
1652.42	232.084
1653.73	214.685
1655.03	211.336
1656.34	209.364
1657.65	195.053
1658.95	194.784
1660.26	197.19
1661.57	190.356
1662.87	184.181
1664.18	176.153
1665.49	179.854
1666.79	178.334
1668.1	177.667
1669.41	171.625
1670.71	161.903
1672.02	155.201
1673.33	157.486
1674.63	151.986
1675.94	136.927
1677.25	141.022
1678.55	137.313
1679.86	138.523
1681.17	136.205
1682.47	141.275
1683.78	135.005
1685.09	137.508
1686.4	130.563
1687.7	122.679
1689.01	121.372
1690.32	127.018
1691.62	127.186
1692.93	115.366
1694.24	126.508
1695.54	117.197
1696.85	116.936
1698.16	116.108
1699.46	113.133
1700.77	111.168
1702.08	108.137
1703.38	107.27
1704.69	108.101
1706	110.119
1707.3	105.649
1708.61	109.198
1709.92	105.068
1711.22	96.0644
1712.53	97.7456
1713.84	99.9238
1715.14	105.174
1716.45	101.554
1717.76	103.356
1719.06	99.2063
1720.37	100.016
1721.68	96.8249
1722.98	98.8208
1724.29	96.4044
1725.6	103.852
1726.9	94.1891
1728.21	94.2212
1729.52	90.877
1730.82	89.4697
1732.13	96.391
1733.44	89.6323
1734.74	89.2575
1736.05	93.9704
1737.36	93.8099
1738.66	96.6265
1739.97	96.4887
1741.28	96
1742.58	93.3857
1743.89	91.0325
1745.2	93.0605
1746.5	86.994
1747.81	85.3723
1749.12	81.795
1750.42	91.0446
1751.73	94.6794
1753.04	89.9647
1754.34	80.7161
1755.65	86.773
1756.96	90.3657
1758.26	91.458
1759.57	93.9242
1760.88	91.4313
1762.18	90.7497
1763.49	86.2641
1764.8	87.1363
1766.1	87.3333
1767.41	97.471
1768.72	98.8584
1770.02	89.447
1771.33	83.7057
1772.64	84.6667
1773.94	86.6776
1775.25	85.2714
1776.56	83.2823
1777.86	77.3843
1779.17	82.0422
1780.48	82.8246
1781.78	88.8889
1783.09	90.6378
1784.4	77.5658
1785.7	81.9151
1787.01	82.2956
1788.32	85.8105
1789.62	84.9696
1790.93	84.0382
1792.24	83.8406
1793.54	83.1978
1794.85	91.5161
1796.16	90.85
1797.46	88.212
1798.77	85.2393
1800.08	93.3229
1801.38	81.1636
1802.69	83.4888
1804	84.046
1805.3	80.385
1806.61	85.8744
1807.92	86.0166
1809.22	85.1435
1810.53	83.6967
1811.84	84.7124
1813.14	82.3402
1814.45	81.9663
1815.76	80.0366
1817.06	77.5923
1818.37	82.5769
1819.68	89.2018
1820.98	86.2979
1822.29	83.067
1823.6	87.3382
1824.9	86.0848
1826.21	78.5045
1827.52	76.7543
1828.82	79.1348
1830.13	70.5914
1831.44	78.9283
1832.74	79.4569
1834.05	76.7816
1835.36	77.995
1836.66	83.544
1837.97	80.5259
1839.28	82.7077
1840.58	79.6394
1841.89	80.3214
1843.2	85.9252
1844.5	80.7097
1845.81	79.9815
1847.12	78.1964
1848.42	82.9206
1849.73	77.5034
1851.04	85.4136
1852.34	85.1402
1853.65	85.7658
1854.96	79.9576
1856.26	87.7225
1857.57	84.0759
1858.88	77.1755
1860.18	80.0185
1861.49	70.1611
1862.8	83.2863
1864.1	78.0263
1865.41	81.8614
1866.72	81.4148
1868.02	83.907
1869.33	82.9224
1870.64	76.4657
1871.94	79.4214
1873.25	79.1142
1874.56	86.6781
1875.86	79.9563
1877.17	75.9572
1878.48	67.8208
1879.78	80.5301
1881.09	83.5857
1882.4	79.0135
1883.7	77.5206
1885.01	80.4364
1886.32	75.1905
1887.62	83.4243
1888.93	72.3235
1890.24	77.9386
1891.54	76.9475
1892.85	78.5094
1894.16	77.5589
1895.47	75.1033
1896.77	75.6095
1898.08	82.323
1899.39	81.6695
1900.69	76.0104
1902	82.5523
1903.31	80.3277
1904.61	78.9018
1905.92	81.066
1907.23	79.5662
1908.53	78.7344
1909.84	80.7298
1911.15	73.6045
1912.45	78.09
1913.76	75.5823
1915.07	82.2417
1916.37	75.8056
1917.68	68.4048
1918.99	74.5623
1920.29	80.3617
1921.6	76.8736
1922.91	81.4568
1924.21	79.5265
1925.52	78.8669
1926.83	79.4385
1928.13	83.7001
1929.44	69.9334
1930.75	71.802
1932.05	77
1933.36	77.6678
1934.67	74.9419
1935.97	75.3453
1937.28	76.4875
1938.59	81.2515
1939.89	76.832
1941.2	80.3628
1942.51	83.6614
1943.81	81.5767
1945.12	77.5803
1946.43	77.3569
1947.73	76.4402
1949.04	74.8213
1950.35	78.9584
1951.65	87.3599
1952.96	83.6535
1954.27	77.0116
1955.57	73.745
1956.88	86.8615
1958.19	72.8699
1959.49	77.3702
1960.8	73.4849
1962.11	73.4873
1963.41	72.3879
1964.72	77.5505
1966.03	73.082
1967.33	82.0004
1968.64	83.4051
1969.95	81.848
1971.25	75.5067
1972.56	80.3897
1973.87	80.1522
1975.17	72.8235
1976.48	74.5326
1977.79	76.288
1979.09	76.9828
1980.4	82.2225
1981.71	79.9748
1983.01	78.5809
1984.32	82.453
1985.63	77.4634
1986.93	75.8243
1988.24	70.3812
1989.55	79.1907
1990.85	85.1753
1992.16	79.088
1993.47	72.8698
1994.77	76.0698
1996.08	79.1767
1997.39	82.7085
1998.69	81.9029
2000	80.761