File: Example Data/Raman/CNT - TIM/Raytheon/Al foil/2010/04-20-10/R1 - 25 microns - sideA.txt
300	92.185
301.307	95.8939
302.613	92.1829
303.92	93.7903
305.227	99.1992
306.533	99.7796
307.84	105.522
309.147	97.6542
310.453	97.0589
311.76	98.0713
313.067	96.0121
314.374	94.0187
315.68	91.728
316.987	93.126
318.294	97.4388
319.6	93.5501
320.907	85.8902
322.214	84.1047
323.52	89.6117
324.827	96.8004
326.134	92.4946
327.44	93.7277
328.747	91.3631
330.054	85.84
331.361	93.962
332.667	91.3533
333.974	103.289
335.281	89.9541
336.587	92.7951
337.894	89.9083
339.201	85.4989
340.507	86.1891
341.814	90.2296
343.121	91.6268
344.427	91.7074
345.734	101.51
347.041	88.6615
348.347	87.7165
349.654	88.1647
350.961	91.1236
352.267	91.0441
353.574	86.6013
354.881	86.2411
356.188	92.6361
357.494	89.1213
358.801	81.3659
360.108	93.3353
361.414	92.9617
362.721	95.3101
364.028	85.3973
365.334	83.8464
366.641	89.5007
367.948	89.1946
369.254	85.2865
370.561	83.5312
371.868	90.2791
373.174	86.0779
374.481	86.7481
375.788	86.2897
377.095	87.0176
378.401	85.6242
379.708	89.82
381.015	95.2522
382.321	87.1033
383.628	84.6292
384.935	81.6894
386.241	83.4925
387.548	72.55
388.855	78.341
390.161	76.5335
391.468	81.4406
392.775	87.0444
394.081	85.5086
395.388	87.0352
396.695	83.7907
398.002	84.8449
399.308	90.8551
400.615	81.3601
401.922	78.3544
403.228	85.0013
404.535	83.9666
405.842	75.6876
407.148	74.5756
408.455	83.2431
409.762	87.3049
411.068	89.1878
412.375	92.1972
413.682	85.139
414.988	82.2088
416.295	83.6831
417.602	80.2511
418.909	78.9203
420.215	84.7212
421.522	88.4437
422.829	81.7645
424.135	76.8339
425.442	78.3314
426.749	78.0296
428.055	83.7181
429.362	82.5912
430.669	82.0857
431.975	77.344
433.282	78.2887
434.589	85.1157
435.895	84.2352
437.202	81.0533
438.509	81.4666
439.816	83.2802
441.122	85.681
442.429	82.0629
443.736	78.4531
445.042	81.9482
446.349	85.6802
447.656	87.0307
448.962	87.3478
450.269	83.9726
451.576	78.7069
452.882	86.8629
454.189	84.441
455.496	76.8108
456.802	80.3254
458.109	79.6085
459.416	80.4524
460.723	84.5233
462.029	81.5415
463.336	80.3462
464.643	91.268
465.949	78.7125
467.256	77.0178
468.563	77.3214
469.869	77.042
471.176	80.136
472.483	77.2932
473.789	81.3274
475.096	80.5163
476.403	80.9028
477.709	84.5084
479.016	77.4095
480.323	72.1851
481.63	79.6068
482.936	74.7408
484.243	75.8648
485.55	78.7003
486.856	69.217
488.163	74.2301
489.47	78.4191
490.776	77.2057
492.083	76.2931
493.39	72.9885
494.696	69.0065
496.003	79.9331
497.31	81.581
498.616	67.8913
499.923	66.4303
501.23	71.9709
502.536	72.5282
503.843	71.4025
505.15	68.9514
506.457	69.5613
507.763	72.3166
509.07	69.8876
510.377	66.0367
511.683	62.971
512.99	62.6797
514.297	67.5624
515.603	68.5557
516.91	65.6693
518.217	68.2146
519.523	63.9936
520.83	65.6358
522.137	71.1142
523.443	70.0017
524.75	69.3333
526.057	70.0476
527.364	73.1224
528.67	67.0095
529.977	71.8906
531.284	74.002
532.59	70.5751
533.897	69.5567
535.204	70.6469
536.51	67.7922
537.817	67.4453
539.124	72.8106
540.43	70.645
541.737	59.7717
543.044	67.5258
544.351	78.2497
545.657	73.9567
546.964	75.6658
548.271	72.6338
549.577	69.5782
550.884	68.4613
552.191	68.1546
553.497	69.3685
554.804	75.7693
556.111	77.7335
557.417	67.1517
558.724	78.3703
560.031	70.1758
561.337	67.7184
562.644	71.8774
563.951	68.2186
565.258	73.5387
566.564	69.6662
567.871	72.3598
569.178	71.9085
570.484	70.1165
571.791	74.6347
573.098	74.686
574.404	69.0009
575.711	70.2922
577.018	69.7823
578.324	65.4737
579.631	68.9015
580.938	79.3902
582.244	71.8119
583.551	75.8463
584.858	79.0798
586.164	75.7715
587.471	71.1146
588.778	71.542
590.085	76.9505
591.391	77.5275
592.698	76.1923
594.005	71.0992
595.311	72.6408
596.618	65.0867
597.925	75.4647
599.231	72.3448
600.538	70.2095
601.845	67.3466
603.151	73.5669
604.458	76.6168
605.765	73.1146
607.071	74.5449
608.378	75.4076
609.685	75.2987
610.992	69.5138
612.298	77.1874
613.605	71.9353
614.912	84.5671
616.218	77.7161
617.525	73.4605
618.832	68.2419
620.138	72.1145
621.445	76.6801
622.752	77
624.058	76.3716
625.365	75.8433
626.672	75.8274
627.978	72.6557
629.285	76.185
630.592	77.9477
631.899	75.7776
633.205	77.7233
634.512	69.073
635.819	74.6672
637.125	82.4823
638.432	84.1975
639.739	87.3958
641.045	84.7932
642.352	77.8686
643.659	77.8831
644.965	79.4427
646.272	83.792
647.579	88.4282
648.885	86.7007
650.192	87.3219
651.499	86.4197
652.806	89.1525
654.112	79.8112
655.419	81.7368
656.726	86.6679
658.032	83.1507
659.339	78.8246
660.646	83.3394
661.952	88.5421
663.259	84.4072
664.566	78.0453
665.872	77.1507
667.179	90.9475
668.486	82.5092
669.792	86.2449
671.099	85.4214
672.406	90.1284
673.713	87.3575
675.019	86.572
676.326	85.5816
677.633	86.7574
678.939	84.5288
680.246	80.877
681.553	80.2026
682.859	81.2011
684.166	81.7352
685.473	79.1331
686.779	88.8861
688.086	79.9769
689.393	83.9318
690.699	76.7552
692.006	79.5691
693.313	78.089
694.62	80.1887
695.926	76.6073
697.233	81.6106
698.54	84.9084
699.846	81.2944
701.153	79.3702
702.46	82.4504
703.766	81.695
705.073	77.8072
706.38	87.7446
707.686	84.6382
708.993	87.8054
710.3	77.5121
711.606	89.414
712.913	89.1065
714.22	78.1663
715.526	74.9703
716.833	71.8182
718.14	73.4938
719.447	81.5212
720.753	85.8222
722.06	88.9853
723.367	87.5494
724.673	83.892
725.98	87.5658
727.287	80.8422
728.593	83.1243
729.9	93.966
731.207	79.8786
732.513	93.318
733.82	88.6086
735.127	87.7411
736.434	87.3898
737.74	84.2413
739.047	90.4879
740.354	90.4817
741.66	86.3965
742.967	92.2781
744.274	93.7929
745.58	84.4978
746.887	81.6218
748.194	84.0921
749.5	79.5635
750.807	81.7087
752.114	92.9114
753.42	84.3555
754.727	97.3467
756.034	97.6614
757.341	99.5238
758.647	89.466
759.954	94.8266
761.261	91.488
762.567	94.7354
763.874	92.516
765.181	96.9491
766.487	95.1212
767.794	94.7777
769.101	95.8491
770.407	93.9673
771.714	98.7778
773.021	97.5046
774.327	95.6326
775.634	99.4834
776.941	86.7733
778.247	92.8377
779.554	99.7563
780.861	104.813
782.168	104.696
783.474	94.6264
784.781	90.3032
786.088	96.7394
787.394	98.7644
788.701	101.071
790.008	96.2933
791.314	90.3067
792.621	97.3706
793.928	103.892
795.234	98.3893
796.541	98.6841
797.848	104.019
799.154	99.1828
800.461	106.12
801.768	99.1889
803.075	95.2139
804.381	99.9822
805.688	99.679
806.995	102.532
808.301	99.9481
809.608	92.5113
810.915	105.917
812.221	106.54
813.528	103.289
814.835	100.56
816.141	97.6067
817.448	100.708
818.755	108.182
820.061	111.366
821.368	108.24
822.675	104.237
823.982	104.449
825.288	105.799
826.595	101.839
827.902	103.351
829.208	109.521
830.515	98.2284
831.822	106.329
833.128	111.619
834.435	107.798
835.742	112.887
837.048	95.8022
838.355	99.7047
839.662	111.226
840.969	105.844
842.275	104.394
843.582	113.058
844.889	104.548
846.195	102.922
847.502	108.869
848.809	112.213
850.115	113.988
851.422	110.453
852.729	106.652
854.035	107.729
855.342	111.404
856.649	110.885
857.955	110.843
859.262	108.523
860.569	118.149
861.875	116.148
863.182	112.673
864.489	113.312
865.796	108.395
867.102	114.192
868.409	108.815
869.716	101.782
871.022	106.934
872.329	101.791
873.636	106.256
874.942	109.027
876.249	103.271
877.556	100.226
878.862	97.5461
880.169	98.6741
881.476	102.853
882.782	101.864
884.089	100.183
885.396	100.09
886.703	101.002
888.009	98.3495
889.316	93.951
890.623	90.7602
891.929	100.519
893.236	97.1766
894.543	95.3881
895.849	90.5438
897.156	83.8007
898.463	100.954
899.769	104.417
901.076	89.6041
902.383	92.0518
903.689	92.4696
904.996	89.5487
906.303	94.698
907.61	94.9383
908.916	92.2631
910.223	92.9738
911.53	91.4888
912.836	93.2968
914.143	92.9403
915.45	95.5069
916.756	96.0007
918.063	92.1092
919.37	96.6793
920.676	91.6436
921.983	89.0091
923.29	97.6218
924.596	94.812
925.903	92.133
927.21	92.8881
928.517	93.8672
929.823	92.6015
931.13	89.0666
932.437	90.0113
933.743	90.339
935.05	95.8213
936.357	80.4003
937.663	90.1776
938.97	80.8751
940.277	88.5681
941.583	87.6413
942.89	92.4313
944.197	100.202
945.503	97.5742
946.81	90.6582
948.117	95.2857
949.424	93.2063
950.73	95.377
952.037	98.0253
953.344	99.4733
954.65	101.167
955.957	92.8354
957.264	89.1387
958.57	95.9407
959.877	95.5694
961.184	92.2201
962.49	90.8102
963.797	95.2145
965.104	93.9531
966.41	95.35
967.717	94.3333
969.024	94.2125
970.331	93.513
971.637	93.3347
972.944	98.2288
974.251	100.31
975.557	99.699
976.864	92.9891
978.171	92.341
979.477	102.916
980.784	97.718
982.091	91.268
983.397	107.142
984.704	102.195
986.011	98.507
987.317	93.4354
988.624	88.4326
989.931	92.3664
991.237	95.4576
992.544	97.1725
993.851	97.8929
995.158	97.3459
996.464	101.197
997.771	108.508
999.078	105.082
1000.38	102.747
1001.69	99.5142
1003	104.179
1004.3	110.727
1005.61	107.097
1006.92	107.134
1008.22	106.498
1009.53	102.343
1010.84	103.934
1012.14	111.714
1013.45	115.493
1014.76	109.826
1016.06	107.16
1017.37	106.122
1018.68	111.766
1019.98	107.135
1021.29	114.357
1022.6	108.661
1023.9	112.665
1025.21	110.967
1026.52	123.29
1027.82	119.245
1029.13	109.415
1030.44	119.159
1031.74	121.978
1033.05	121.02
1034.36	98.1628
1035.66	112.615
1036.97	128.29
1038.28	125.257
1039.58	116.132
1040.89	115.633
1042.2	116.547
1043.51	119.252
1044.81	130.076
1046.12	129.245
1047.43	125.705
1048.73	130.794
1050.04	137.229
1051.35	127.832
1052.65	122.363
1053.96	128.408
1055.27	133.823
1056.57	133.162
1057.88	130.987
1059.19	136.891
1060.49	135.858
1061.8	138.119
1063.11	136.33
1064.41	127.003
1065.72	138.082
1067.03	139.204
1068.33	133.524
1069.64	134.801
1070.95	131.4
1072.25	131.689
1073.56	134.993
1074.87	141.514
1076.17	147.718
1077.48	147.448
1078.79	138.587
1080.09	133.203
1081.4	143.887
1082.71	151.969
1084.01	159.887
1085.32	153.928
1086.63	148.073
1087.93	150.554
1089.24	157.776
1090.55	158.027
1091.85	153.379
1093.16	145.111
1094.47	145.756
1095.77	152.12
1097.08	152.942
1098.39	158.162
1099.69	157.075
1101	163.899
1102.31	162.211
1103.61	163.587
1104.92	157.665
1106.23	161.404
1107.53	166.599
1108.84	169.617
1110.15	171.376
1111.45	171.508
1112.76	164.365
1114.07	179.462
1115.37	159.834
1116.68	168.35
1117.99	172.7
1119.29	185.896
1120.6	176.777
1121.91	157.687
1123.21	184.812
1124.52	163.178
1125.83	170.791
1127.13	183.062
1128.44	189.333
1129.75	184.107
1131.05	184.968
1132.36	187.858
1133.67	184.457
1134.97	188.429
1136.28	193.236
1137.59	193.066
1138.89	204.828
1140.2	200.95
1141.51	201.389
1142.81	192.821
1144.12	204.711
1145.43	202.268
1146.73	200.965
1148.04	211.374
1149.35	206.5
1150.65	210.439
1151.96	219.968
1153.27	210.24
1154.57	220.118
1155.88	223.712
1157.19	222.166
1158.49	215.382
1159.8	223.059
1161.11	213.785
1162.41	221.893
1163.72	229.196
1165.03	224.07
1166.33	235.986
1167.64	232.672
1168.95	218.552
1170.25	229.326
1171.56	232.184
1172.87	238.013
1174.17	242.876
1175.48	228.542
1176.79	230.264
1178.09	236.588
1179.4	233.505
1180.71	226.355
1182.01	235.426
1183.32	240.692
1184.63	241.765
1185.93	246.831
1187.24	233.083
1188.55	233.993
1189.85	247.532
1191.16	241.603
1192.47	248.599
1193.77	243.399
1195.08	247.455
1196.39	245.388
1197.69	239.18
1199	249.166
1200.31	247.578
1201.61	256.581
1202.92	240.829
1204.23	254.348
1205.53	253.253
1206.84	250.636
1208.15	249.139
1209.45	252.929
1210.76	252.832
1212.07	262.23
1213.37	266.51
1214.68	258.467
1215.99	269.946
1217.29	278.857
1218.6	271.041
1219.91	267.051
1221.21	279.834
1222.52	274.163
1223.83	274.394
1225.13	278.494
1226.44	275.887
1227.75	292.084
1229.05	290.803
1230.36	296.45
1231.67	283.048
1232.97	289.894
1234.28	284.588
1235.59	298.671
1236.89	300.332
1238.2	299.595
1239.51	295.039
1240.81	319.941
1242.12	303.94
1243.43	307.822
1244.73	323.14
1246.04	316.41
1247.35	314.273
1248.65	322.502
1249.96	323.743
1251.27	324.196
1252.57	338.331
1253.88	346.305
1255.19	342.09
1256.49	344.966
1257.8	346.992
1259.11	349.285
1260.42	349.087
1261.72	356.017
1263.03	357.465
1264.34	359.966
1265.64	372.746
1266.95	369.569
1268.26	375.836
1269.56	378.711
1270.87	372.907
1272.18	384.888
1273.48	393.417
1274.79	399.616
1276.1	408.311
1277.4	416.313
1278.71	426.281
1280.02	432.478
1281.32	426.447
1282.63	429.637
1283.94	448.59
1285.24	454.138
1286.55	450.071
1287.86	447.438
1289.16	455.323
1290.47	461.957
1291.78	466.821
1293.08	480.545
1294.39	486.743
1295.7	497.492
1297	500.323
1298.31	501.441
1299.62	520.291
1300.92	528.436
1302.23	528.419
1303.54	543.631
1304.84	545.809
1306.15	555.267
1307.46	569.411
1308.76	574.222
1310.07	575.626
1311.38	595.951
1312.68	604.372
1313.99	618.325
1315.3	633.309
1316.6	630.489
1317.91	653.244
1319.22	653.13
1320.52	683.009
1321.83	669.284
1323.14	680.74
1324.44	680.45
1325.75	698.237
1327.06	696.231
1328.36	728.012
1329.67	741.473
1330.98	750.161
1332.28	734.135
1333.59	770.672
1334.9	772.13
1336.2	773.86
1337.51	776.708
1338.82	771.938
1340.12	769.765
1341.43	784.19
1342.74	795.209
1344.04	789.607
1345.35	786.763
1346.66	800.591
1347.96	804.737
1349.27	791.225
1350.58	785.249
1351.88	792.018
1353.19	787.472
1354.5	773.431
1355.8	782.631
1357.11	784.076
1358.42	780.794
1359.72	774.102
1361.03	758.675
1362.34	766.269
1363.64	750.511
1364.95	755.198
1366.26	733.418
1367.56	726.323
1368.87	712.825
1370.18	708.624
1371.48	698.275
1372.79	679.036
1374.1	655.516
1375.4	668.22
1376.71	652.531
1378.02	640.417
1379.32	655.408
1380.63	653.759
1381.94	630.466
1383.24	619.038
1384.55	615.028
1385.86	596.012
1387.16	596.583
1388.47	584.14
1389.78	572.55
1391.08	576.779
1392.39	571.852
1393.7	557.479
1395	556.164
1396.31	550.866
1397.62	535.768
1398.92	518.013
1400.23	515.254
1401.54	512.585
1402.84	504.091
1404.15	512.003
1405.46	511.124
1406.76	501.862
1408.07	481.873
1409.38	481.318
1410.68	469.709
1411.99	460.889
1413.3	453.897
1414.6	462.821
1415.91	460.699
1417.22	443.492
1418.52	434.107
1419.83	456.46
1421.14	446.565
1422.44	440.346
1423.75	431.759
1425.06	434.3
1426.36	432.618
1427.67	427.106
1428.98	429.312
1430.28	422.962
1431.59	420.58
1432.9	416.335
1434.2	418.291
1435.51	414.075
1436.82	411.784
1438.12	409.799
1439.43	404.849
1440.74	406.241
1442.04	405.549
1443.35	403.434
1444.66	407.823
1445.96	403.975
1447.27	399.544
1448.58	398.087
1449.88	406.634
1451.19	403.561
1452.5	395.466
1453.8	391.685
1455.11	384.224
1456.42	394.056
1457.72	395.37
1459.03	396.359
1460.34	385.94
1461.64	385.079
1462.95	386.57
1464.26	388.528
1465.56	377.861
1466.87	386.923
1468.18	399.016
1469.48	386.946
1470.79	393.214
1472.1	396.076
1473.41	397.525
1474.71	395.513
1476.02	378.222
1477.33	379.908
1478.63	389.371
1479.94	388.396
1481.25	389.28
1482.55	383.485
1483.86	384.167
1485.17	388.715
1486.47	387.679
1487.78	398.487
1489.09	398.367
1490.39	404.495
1491.7	398.858
1493.01	390.989
1494.31	394.019
1495.62	396.304
1496.93	403.181
1498.23	395.024
1499.54	395.699
1500.85	398.707
1502.15	390.347
1503.46	382.464
1504.77	395.826
1506.07	411.211
1507.38	392.556
1508.69	396.499
1509.99	409.27
1511.3	389.138
1512.61	402.584
1513.91	398.737
1515.22	392.427
1516.53	387.237
1517.83	402.187
1519.14	392.486
1520.45	396.187
1521.75	411.092
1523.06	405.806
1524.37	401.672
1525.67	403.41
1526.98	408.292
1528.29	413.875
1529.59	411.575
1530.9	419.094
1532.21	427.11
1533.51	421.987
1534.82	422.789
1536.13	431.398
1537.43	426.669
1538.74	442.884
1540.05	442.421
1541.35	444.155
1542.66	449.114
1543.97	453.455
1545.27	451.964
1546.58	465.769
1547.89	463.657
1549.19	475.105
1550.5	484.597
1551.81	480.353
1553.11	484.546
1554.42	487.043
1555.73	491.172
1557.03	503.569
1558.34	514.042
1559.65	522.764
1560.95	521.68
1562.26	531.92
1563.57	536.153
1564.87	559.192
1566.18	573.853
1567.49	580.185
1568.79	587.785
1570.1	584.24
1571.41	600.541
1572.71	613.248
1574.02	607.56
1575.33	640.276
1576.63	631.164
1577.94	654.168
1579.25	672.501
1580.55	682.973
1581.86	684.138
1583.17	704.692
1584.47	720.554
1585.78	709.487
1587.09	724.505
1588.39	744.785
1589.7	755.986
1591.01	763.916
1592.31	772.101
1593.62	799.354
1594.93	790.755
1596.23	797.824
1597.54	803.971
1598.85	762.87
1600.15	783.72
1601.46	802.161
1602.77	790.212
1604.07	793.133
1605.38	776.318
1606.69	783.227
1607.99	768.103
1609.3	763.666
1610.61	763.379
1611.91	766.765
1613.22	748.627
1614.53	739.425
1615.83	742.073
1617.14	710.185
1618.45	684.285
1619.75	691.194
1621.06	678.454
1622.37	643.501
1623.67	628.442
1624.98	618.89
1626.29	611.566
1627.59	563.154
1628.9	561.371
1630.21	523.544
1631.51	510.974
1632.82	500.603
1634.13	482.732
1635.43	469.534
1636.74	459.685
1638.05	430.672
1639.35	410.834
1640.66	397.153
1641.97	390.439
1643.27	383.308
1644.58	375.998
1645.89	349.73
1647.19	349.777
1648.5	345.358
1649.81	325.366
1651.11	303.39
1652.42	312.092
1653.73	289.297
1655.03	273.518
1656.34	272.962
1657.65	268.346
1658.95	250.872
1660.26	244.35
1661.57	241.72
1662.87	235.895
1664.18	227.019
1665.49	222.333
1666.79	218.445
1668.1	187.016
1669.41	194.78
1670.71	209.376
1672.02	187.889
1673.33	177.112
1674.63	170.124
1675.94	171.345
1677.25	162.355
1678.55	152.657
1679.86	149.517
1681.17	151.507
1682.47	149.156
1683.78	147.421
1685.09	143.732
1686.4	143.01
1687.7	141.417
1689.01	138.643
1690.32	125.07
1691.62	133.905
1692.93	125.465
1694.24	122.207
1695.54	118.628
1696.85	121.514
1698.16	116.78
1699.46	114.213
1700.77	109.939
1702.08	109.628
1703.38	110.497
1704.69	111.572
1706	106.067
1707.3	104.862
1708.61	101.28
1709.92	92.3446
1711.22	95.9678
1712.53	102.765
1713.84	103.368
1715.14	97.826
1716.45	102.231
1717.76	102.535
1719.06	99.9785
1720.37	96.2968
1721.68	98.6239
1722.98	90.6514
1724.29	97.3915
1725.6	89.2622
1726.9	90.0577
1728.21	87.2337
1729.52	89.1931
1730.82	84.3274
1732.13	84.058
1733.44	84.404
1734.74	83
1736.05	85.0888
1737.36	86.1855
1738.66	80.3995
1739.97	83.0376
1741.28	84.0844
1742.58	80.6167
1743.89	83.3537
1745.2	85.532
1746.5	77.2533
1747.81	82.5907
1749.12	84.0143
1750.42	85.2616
1751.73	85.9698
1753.04	75.8781
1754.34	78.8943
1755.65	82.5546
1756.96	81.1229
1758.26	78.1949
1759.57	79.2689
1760.88	77.4115
1762.18	77.3346
1763.49	74.6399
1764.8	82.1135
1766.1	80.3957
1767.41	81.0623
1768.72	86.769
1770.02	77.8231
1771.33	84.6276
1772.64	82.3649
1773.94	74.6855
1775.25	71.8979
1776.56	80.6774
1777.86	80.4692
1779.17	79.652
1780.48	79.1842
1781.78	72.1464
1783.09	77.4838
1784.4	73.5683
1785.7	66.7346
1787.01	77.5706
1788.32	79.1115
1789.62	72.455
1790.93	80.0176
1792.24	81.9858
1793.54	77.7995
1794.85	76.759
1796.16	72.2772
1797.46	67.3557
1798.77	74.9487
1800.08	73.0062
1801.38	80.006
1802.69	74.4868
1804	65.8956
1805.3	67.4742
1806.61	67.8408
1807.92	72.8126
1809.22	71.009
1810.53	68.7828
1811.84	68.6667
1813.14	78.1903
1814.45	77.0374
1815.76	79.6118
1817.06	77.4844
1818.37	77.5775
1819.68	68.5333
1820.98	77.4735
1822.29	73.2705
1823.6	71.5662
1824.9	72.9625
1826.21	66.6618
1827.52	71.1246
1828.82	69.279
1830.13	72.5685
1831.44	68.7
1832.74	70.472
1834.05	76.6553
1835.36	77.838
1836.66	69.2054
1837.97	69.7848
1839.28	73.7893
1840.58	74.3114
1841.89	70.8748
1843.2	73.2081
1844.5	73.2371
1845.81	74.5742
1847.12	76.4315
1848.42	79.2534
1849.73	78.1799
1851.04	73.9537
1852.34	70.3917
1853.65	67.3429
1854.96	68.0368
1856.26	77.9191
1857.57	74.5522
1858.88	68.2317
1860.18	63.9552
1861.49	71.0345
1862.8	73.8641
1864.1	73.693
1865.41	77.0561
1866.72	75.7889
1868.02	77.2015
1869.33	71.474
1870.64	70.3562
1871.94	71.2607
1873.25	70.1678
1874.56	68.1512
1875.86	71.2732
1877.17	67.4856
1878.48	66.4698
1879.78	69.6123
1881.09	69.9517
1882.4	69.6728
1883.7	75.9156
1885.01	74.2136
1886.32	64.0318
1887.62	68.7586
1888.93	74.7537
1890.24	75.3749
1891.54	68.9121
1892.85	69.2428
1894.16	76.1306
1895.47	69.5788
1896.77	72.8857
1898.08	71.491
1899.39	67.9046
1900.69	65.2982
1902	67.0834
1903.31	71.0147
1904.61	74.3256
1905.92	67.5114
1907.23	74.1735
1908.53	70.3081
1909.84	69.5536
1911.15	71.3768
1912.45	75.3528
1913.76	61.0276
1915.07	70.5399
1916.37	73.6425
1917.68	64.2699
1918.99	67.5737
1920.29	68.9463
1921.6	68.7817
1922.91	67.6527
1924.21	62.7896
1925.52	63.7602
1926.83	70.6846
1928.13	69.3562
1929.44	71.2909
1930.75	74.2782
1932.05	73.5433
1933.36	72.9046
1934.67	73.0541
1935.97	75.4622
1937.28	76.1492
1938.59	74.6395
1939.89	77.2557
1941.2	77.4004
1942.51	73.0127
1943.81	76.5062
1945.12	70.5148
1946.43	65.441
1947.73	70.1676
1949.04	69.4227
1950.35	68.7085
1951.65	66.1713
1952.96	79.473
1954.27	74.5072
1955.57	75.7765
1956.88	71.1002
1958.19	71.8367
1959.49	71.009
1960.8	71.4718
1962.11	70.6487
1963.41	66.5338
1964.72	75.6948
1966.03	77.1426
1967.33	70.9982
1968.64	65.7179
1969.95	71.5232
1971.25	71.2152
1972.56	70.6616
1973.87	68.2557
1975.17	69.0588
1976.48	64.9638
1977.79	68.5175
1979.09	73.8795
1980.4	65.6916
1981.71	76.8078
1983.01	76.7034
1984.32	77.3732
1985.63	77.7398
1986.93	71.7523
1988.24	74.0187
1989.55	73.7734
1990.85	71.7274
1992.16	71.9182
1993.47	74.6894
1994.77	71.9407
1996.08	70.58
1997.39	72.4633
1998.69	67.2265
2000	66.4081