File: Example Data/Raman/CNT - TIM/Raytheon/Al foil/2010/04-20-10/R1 - 25 microns - sideB.txt
300	93.1483
301.307	93.2294
302.613	94.3333
303.92	92.2236
305.227	90.8107
306.533	94.7999
307.84	98.9704
309.147	87.4644
310.453	93.7147
311.76	97.0116
313.067	93.9527
314.374	92.3333
315.68	91.8517
316.987	93.459
318.294	96.016
319.6	92.9574
320.907	91.1831
322.214	94.1589
323.52	88.441
324.827	87.3333
326.134	89.6417
327.44	92.0471
328.747	96.0669
330.054	96.0557
331.361	87.0819
332.667	87.5164
333.974	77.3712
335.281	87.4421
336.587	79.2181
337.894	83.0316
339.201	89.463
340.507	90.4235
341.814	86.0844
343.121	84.7576
344.427	91.8833
345.734	84.8118
347.041	92.2821
348.347	86.9973
349.654	83.2606
350.961	88.5578
352.267	87.1323
353.574	86.5033
354.881	89.1011
356.188	86.4179
357.494	90.0433
358.801	90.3333
360.108	90.3333
361.414	80.1834
362.721	88.3333
364.028	86.9685
365.334	84.7026
366.641	85.3887
367.948	82.2661
369.254	78.7591
370.561	87.3284
371.868	84.6899
373.174	86.4904
374.481	85.0445
375.788	86.7977
377.095	85.0208
378.401	81.2909
379.708	79.1966
381.015	84.4838
382.321	93.3569
383.628	81.1483
384.935	82.2689
386.241	77.1601
387.548	85.8854
388.855	79.4207
390.161	78.4639
391.468	80
392.775	81.1175
394.081	82.6667
395.388	81.7761
396.695	79.2457
398.002	83.467
399.308	87.9746
400.615	81.9615
401.922	89.2321
403.228	91.0604
404.535	84.5808
405.842	78.7824
407.148	79.0463
408.455	80.7551
409.762	78.2541
411.068	79.3287
412.375	73.9118
413.682	81.1487
414.988	80.0303
416.295	77.765
417.602	76.808
418.909	80.5073
420.215	79.149
421.522	73.2329
422.829	80.2033
424.135	80.302
425.442	86.0152
426.749	88.4299
428.055	82.404
429.362	79.5547
430.669	80.6761
431.975	77.7465
433.282	76.8308
434.589	78.3806
435.895	75.3333
437.202	76.1865
438.509	80.7555
439.816	81.9646
441.122	78.772
442.429	74.3962
443.736	73.5649
445.042	73.0647
446.349	73.5169
447.656	71.6835
448.962	70.7175
450.269	75.7875
451.576	73.7158
452.882	72.3427
454.189	78.3974
455.496	73.1694
456.802	76.2157
458.109	80.5349
459.416	79.2222
460.723	74.9808
462.029	70.5982
463.336	69.6087
464.643	72.8114
465.949	69.8084
467.256	68.5067
468.563	65.7739
469.869	80.5263
471.176	73.7813
472.483	75.7352
473.789	73.4212
475.096	74.4606
476.403	73.8589
477.709	71.9574
479.016	80.0032
480.323	80.8309
481.63	69.3226
482.936	65.0648
484.243	63.2028
485.55	73.5312
486.856	71.1827
488.163	69.5452
489.47	72.5921
490.776	69.4679
492.083	65.9883
493.39	68.3218
494.696	63.1369
496.003	69.3425
497.31	72.0559
498.616	73.8811
499.923	65.7392
501.23	69.7147
502.536	69.0564
503.843	72.9796
505.15	68.9925
506.457	65.8419
507.763	68.7219
509.07	66.0447
510.377	70.3128
511.683	67.2902
512.99	70.2959
514.297	56.2582
515.603	64.1693
516.91	66.7494
518.217	72.3219
519.523	73.45
520.83	73.6598
522.137	73.757
523.443	71.0052
524.75	67.5938
526.057	64.3773
527.364	70.1565
528.67	75.6581
529.977	65.5799
531.284	61.3294
532.59	63.9238
533.897	64.5533
535.204	67.274
536.51	67.3099
537.817	66.4649
539.124	66.1697
540.43	64.1474
541.737	68.3333
543.044	68.5321
544.351	70.2736
545.657	67.2071
546.964	59.5746
548.271	60.9227
549.577	61.6667
550.884	66.8018
552.191	69.1065
553.497	66.9648
554.804	61.4426
556.111	58.461
557.417	65.7954
558.724	63.6852
560.031	69.4485
561.337	60.8477
562.644	74.5018
563.951	69.4164
565.258	73.2125
566.564	68.5551
567.871	64.9407
569.178	63.8157
570.484	64.4411
571.791	67.9896
573.098	69.5191
574.404	65.6667
575.711	66.2019
577.018	70.1555
578.324	73.233
579.631	61.4394
580.938	70.0569
582.244	66.9132
583.551	67.8726
584.858	70.7026
586.164	71.4964
587.471	71.3333
588.778	70.2551
590.085	71.929
591.391	81.4176
592.698	81.7436
594.005	73.4089
595.311	69.4005
596.618	63.8757
597.925	65.8379
599.231	67.6004
600.538	71.8861
601.845	74.0749
603.151	72.1787
604.458	68.7848
605.765	69.7344
607.071	72.6251
608.378	70.3188
609.685	73.0173
610.992	75.9098
612.298	72.0257
613.605	72.9526
614.912	71.534
616.218	69.9869
617.525	71.1375
618.832	70.3392
620.138	70.2584
621.445	71.3602
622.752	74.243
624.058	72.0984
625.365	63.898
626.672	65.3865
627.978	70.5082
629.285	69.6031
630.592	85.0717
631.899	74.2216
633.205	75.1357
634.512	68.2999
635.819	65.9247
637.125	73.726
638.432	68.0368
639.739	66.1061
641.045	70.6183
642.352	71.2019
643.659	72.2986
644.965	76.3654
646.272	78.6453
647.579	71.9691
648.885	76.3948
650.192	71.4245
651.499	73.4652
652.806	75.922
654.112	72.7024
655.419	72.8509
656.726	74.6196
658.032	77.4448
659.339	78.8304
660.646	75.5747
661.952	71.5417
663.259	73.3874
664.566	76.873
665.872	73.5667
667.179	74.1948
668.486	70.8463
669.792	81.7421
671.099	79.2641
672.406	76.1794
673.713	76.187
675.019	79.6748
676.326	72.3195
677.633	77.2347
678.939	82.9586
680.246	83.3691
681.553	83.0385
682.859	77.4886
684.166	71.7188
685.473	71.5999
686.779	78.7236
688.086	82.8083
689.393	76.083
690.699	84.8198
692.006	82.0975
693.313	80.0286
694.62	75.127
695.926	70.6611
697.233	76.0668
698.54	79.4313
699.846	80.3506
701.153	79.4449
702.46	76.9215
703.766	77.1193
705.073	76.7532
706.38	78.0537
707.686	81.148
708.993	73.5147
710.3	71.7655
711.606	78.3428
712.913	77.7732
714.22	71.2776
715.526	88.7923
716.833	85.5505
718.14	78.9554
719.447	77.3333
720.753	77.3333
722.06	81.4421
723.367	81.4359
724.673	76.4235
725.98	81.471
727.287	86.3074
728.593	82.3468
729.9	79.6524
731.207	81.7139
732.513	77.3559
733.82	84.263
735.127	84.9628
736.434	83.0618
737.74	84.9857
739.047	76.3658
740.354	79.4668
741.66	86.0041
742.967	87.4563
744.274	87.4874
745.58	86.275
746.887	88.2449
748.194	91.4116
749.5	81.6904
750.807	78.8266
752.114	81.5988
753.42	80.2475
754.727	88.9334
756.034	87.3597
757.341	91.6666
758.647	85.2967
759.954	92.5252
761.261	82.0925
762.567	92.3029
763.874	90.7909
765.181	91.21
766.487	92.1729
767.794	87.5364
769.101	87.5636
770.407	92.4407
771.714	90.4439
773.021	84.8411
774.327	86.3951
775.634	85.4384
776.941	90.2596
778.247	88.0669
779.554	97.7983
780.861	86.4199
782.168	87.5223
783.474	89.101
784.781	91.2211
786.088	88.3829
787.394	92.0445
788.701	99.6827
790.008	98.8413
791.314	93.5697
792.621	87.4835
793.928	87.7323
795.234	93.871
796.541	97.4232
797.848	97.5534
799.154	91.339
800.461	93.2576
801.768	91.2305
803.075	103.461
804.381	101.205
805.688	93.0439
806.995	103.188
808.301	93.6984
809.608	91.808
810.915	91.1265
812.221	95.3165
813.528	100.709
814.835	97.0119
816.141	92.4793
817.448	96.4689
818.755	98.4164
820.061	89.8563
821.368	91.6116
822.675	97.5118
823.982	87.8918
825.288	90.338
826.595	93.8537
827.902	97.5191
829.208	89.6146
830.515	95.0344
831.822	95.6047
833.128	99.8652
834.435	89.0393
835.742	88.3596
837.048	92.4239
838.355	98.2633
839.662	100.644
840.969	105.449
842.275	105.373
843.582	100.093
844.889	100.102
846.195	98.278
847.502	96.1881
848.809	96.1892
850.115	97.8346
851.422	98.7135
852.729	96.5942
854.035	102.707
855.342	105.237
856.649	89.5843
857.955	106.921
859.262	99.975
860.569	97.9747
861.875	100.697
863.182	95.0148
864.489	96.6121
865.796	100.061
867.102	104.756
868.409	96.0552
869.716	91.1235
871.022	91.6026
872.329	95.6044
873.636	99.0408
874.942	97.8673
876.249	102.862
877.556	96.3719
878.862	91.2939
880.169	92.8906
881.476	92.0686
882.782	92.4646
884.089	92.0293
885.396	93.0989
886.703	92.8599
888.009	90.9838
889.316	93.1706
890.623	90.7356
891.929	93.7644
893.236	89.5925
894.543	85.7595
895.849	87.2514
897.156	82.756
898.463	83.9239
899.769	84.6043
901.076	86.4046
902.383	91.6627
903.689	90.28
904.996	90.9324
906.303	93.0221
907.61	90.6887
908.916	86.0766
910.223	91.5105
911.53	88.2733
912.836	87.2043
914.143	91.6786
915.45	85.8617
916.756	82.4711
918.063	89.3561
919.37	92.7036
920.676	92.2145
921.983	88.7973
923.29	85.6442
924.596	83.3458
925.903	79.7981
927.21	83.9411
928.517	88.7109
929.823	88.6679
931.13	85.9553
932.437	89.955
933.743	88.668
935.05	89.9579
936.357	84.3841
937.663	84.9037
938.97	87.0336
940.277	91.8108
941.583	88.3594
942.89	90.6956
944.197	90.9224
945.503	84.2418
946.81	78.2518
948.117	85.1399
949.424	84.0799
950.73	84.9986
952.037	86.692
953.344	87.61
954.65	85.8366
955.957	81.3936
957.264	81.8015
958.57	85.5848
959.877	89.2246
961.184	90.9015
962.49	88.2104
963.797	86.0852
965.104	94.1876
966.41	87.5708
967.717	88.1246
969.024	88.2396
970.331	91.155
971.637	85.126
972.944	88.366
974.251	88.0848
975.557	81.1791
976.864	99.9401
978.171	96.3757
979.477	82.2226
980.784	84.1624
982.091	89.4889
983.397	84.7044
984.704	90.2821
986.011	80.2532
987.317	85.5182
988.624	86.8132
989.931	95.4745
991.237	97.8475
992.544	95.7907
993.851	92.9639
995.158	89.6018
996.464	88.7531
997.771	92.6314
999.078	91.1266
1000.38	89.6329
1001.69	88.3569
1003	91.4329
1004.3	93.4111
1005.61	89.8698
1006.92	91.0941
1008.22	96.1132
1009.53	98.9495
1010.84	94.8564
1012.14	93.9303
1013.45	97.4927
1014.76	89.491
1016.06	86.5795
1017.37	96.7995
1018.68	98.8829
1019.98	95.5511
1021.29	97.0561
1022.6	101.053
1023.9	104.869
1025.21	98.4878
1026.52	98.8411
1027.82	110.107
1029.13	104.425
1030.44	101.263
1031.74	100.141
1033.05	104.369
1034.36	106.981
1035.66	99.8551
1036.97	112.408
1038.28	105.202
1039.58	112.311
1040.89	116.297
1042.2	114.614
1043.51	116.919
1044.81	117.896
1046.12	102.298
1047.43	113.54
1048.73	109.889
1050.04	108.773
1051.35	111.52
1052.65	116.029
1053.96	107.462
1055.27	110.018
1056.57	111.977
1057.88	108.975
1059.19	114.225
1060.49	113.405
1061.8	110.376
1063.11	105.939
1064.41	108.675
1065.72	120.234
1067.03	121.123
1068.33	127.19
1069.64	128.055
1070.95	112.348
1072.25	109.208
1073.56	122.178
1074.87	123.185
1076.17	114.591
1077.48	113.632
1078.79	121.964
1080.09	130.511
1081.4	131.12
1082.71	129.89
1084.01	122.271
1085.32	124.333
1086.63	125.403
1087.93	128.824
1089.24	133.216
1090.55	132.175
1091.85	123.744
1093.16	129.605
1094.47	138.387
1095.77	129.269
1097.08	126.504
1098.39	128.989
1099.69	122.525
1101	129.023
1102.31	131.669
1103.61	125.819
1104.92	143.135
1106.23	138.848
1107.53	135.393
1108.84	134.531
1110.15	130.129
1111.45	135.239
1112.76	132.705
1114.07	142.599
1115.37	139.708
1116.68	139.573
1117.99	151.504
1119.29	131.636
1120.6	138.414
1121.91	147.642
1123.21	133.644
1124.52	142.054
1125.83	151.229
1127.13	144.868
1128.44	151.355
1129.75	154.115
1131.05	145.876
1132.36	144.708
1133.67	156.97
1134.97	155.105
1136.28	156.484
1137.59	153.45
1138.89	150.559
1140.2	145.682
1141.51	144.076
1142.81	162.353
1144.12	163.339
1145.43	149.77
1146.73	166.236
1148.04	158.361
1149.35	175.676
1150.65	169.703
1151.96	158.634
1153.27	176.106
1154.57	169.322
1155.88	179.196
1157.19	176.465
1158.49	181.208
1159.8	179.543
1161.11	168.859
1162.41	182.048
1163.72	180.889
1165.03	178.479
1166.33	174.618
1167.64	169.1
1168.95	183.953
1170.25	178.916
1171.56	179.068
1172.87	172.033
1174.17	182.516
1175.48	177.829
1176.79	182.036
1178.09	182.983
1179.4	193.48
1180.71	177.005
1182.01	189.025
1183.32	191.808
1184.63	185.273
1185.93	203.436
1187.24	183.327
1188.55	194.885
1189.85	190.095
1191.16	184.432
1192.47	190.289
1193.77	196.214
1195.08	191.526
1196.39	204.699
1197.69	194.863
1199	189.381
1200.31	183.713
1201.61	195.804
1202.92	209.472
1204.23	197.634
1205.53	202.941
1206.84	213.719
1208.15	203.54
1209.45	206.443
1210.76	211.152
1212.07	201.819
1213.37	210.613
1214.68	221.368
1215.99	204.123
1217.29	203.386
1218.6	217.255
1219.91	215.664
1221.21	202.42
1222.52	211.652
1223.83	220.659
1225.13	225.007
1226.44	226.611
1227.75	221.4
1229.05	224.221
1230.36	227.877
1231.67	223.196
1232.97	221.558
1234.28	222.55
1235.59	230.04
1236.89	228.113
1238.2	235.848
1239.51	235.868
1240.81	234.101
1242.12	243.79
1243.43	233.228
1244.73	235.472
1246.04	247.11
1247.35	255.566
1248.65	249.147
1249.96	247.361
1251.27	250.338
1252.57	266.41
1253.88	272.433
1255.19	268.113
1256.49	266.314
1257.8	269.091
1259.11	269.761
1260.42	267.213
1261.72	275.722
1263.03	289.207
1264.34	290.4
1265.64	285.95
1266.95	280.723
1268.26	290.147
1269.56	304.231
1270.87	299.034
1272.18	307.076
1273.48	309.016
1274.79	305.771
1276.1	314.833
1277.4	314.313
1278.71	317.465
1280.02	321.667
1281.32	327.505
1282.63	331.447
1283.94	332.448
1285.24	340.746
1286.55	349.546
1287.86	353.87
1289.16	345.765
1290.47	351.103
1291.78	363.529
1293.08	366.965
1294.39	374.375
1295.7	385.589
1297	394.441
1298.31	394.87
1299.62	393
1300.92	412.851
1302.23	407.34
1303.54	425.557
1304.84	424.903
1306.15	420.095
1307.46	437.109
1308.76	440.374
1310.07	441.745
1311.38	453.238
1312.68	459.956
1313.99	457.639
1315.3	469.298
1316.6	486.413
1317.91	491.336
1319.22	489.402
1320.52	510.722
1321.83	499.418
1323.14	507.54
1324.44	505.724
1325.75	510.252
1327.06	529.062
1328.36	540.27
1329.67	532.837
1330.98	541.569
1332.28	542.82
1333.59	549.965
1334.9	552.526
1336.2	559.061
1337.51	551.823
1338.82	557.473
1340.12	559.602
1341.43	559.63
1342.74	561.99
1344.04	566.929
1345.35	581.877
1346.66	568.924
1347.96	561.746
1349.27	556.967
1350.58	551.838
1351.88	547.457
1353.19	547.751
1354.5	560.129
1355.8	556.948
1357.11	547.015
1358.42	542.831
1359.72	534.358
1361.03	529.92
1362.34	523.13
1363.64	527.646
1364.95	504.779
1366.26	504.986
1367.56	494.14
1368.87	495.06
1370.18	494.34
1371.48	489.115
1372.79	478.853
1374.1	473.513
1375.4	467.025
1376.71	454.764
1378.02	453.369
1379.32	449.696
1380.63	444.756
1381.94	429.023
1383.24	429.159
1384.55	425.7
1385.86	424.94
1387.16	425.722
1388.47	414.174
1389.78	407.517
1391.08	400.26
1392.39	405.44
1393.7	403.257
1395	400.416
1396.31	392.224
1397.62	373.788
1398.92	376.075
1400.23	369.95
1401.54	359.695
1402.84	363.335
1404.15	356.578
1405.46	353.998
1406.76	346.403
1408.07	350.385
1409.38	350.595
1410.68	338.227
1411.99	334.596
1413.3	333.858
1414.6	335.843
1415.91	331.765
1417.22	336.587
1418.52	326.094
1419.83	327.986
1421.14	314.703
1422.44	326.026
1423.75	330.564
1425.06	314.065
1426.36	314.555
1427.67	303.568
1428.98	314.204
1430.28	310.034
1431.59	306.34
1432.9	307.109
1434.2	301.192
1435.51	303.176
1436.82	299.252
1438.12	299.246
1439.43	294.84
1440.74	294.16
1442.04	298.02
1443.35	293.07
1444.66	292.386
1445.96	293.061
1447.27	297.47
1448.58	298.016
1449.88	295.385
1451.19	292.031
1452.5	292.365
1453.8	289.554
1455.11	287.712
1456.42	289.445
1457.72	286.696
1459.03	293.402
1460.34	293.907
1461.64	283.678
1462.95	273.185
1464.26	286.969
1465.56	281.328
1466.87	286.705
1468.18	288.982
1469.48	283.748
1470.79	292.497
1472.1	292.507
1473.41	285.551
1474.71	296.598
1476.02	292.649
1477.33	291.926
1478.63	290.617
1479.94	290.898
1481.25	286.085
1482.55	283.069
1483.86	295.692
1485.17	291.445
1486.47	294.425
1487.78	292.226
1489.09	283.476
1490.39	287.473
1491.7	286.388
1493.01	291.167
1494.31	284.697
1495.62	285.637
1496.93	294.248
1498.23	300.168
1499.54	294.85
1500.85	299.166
1502.15	296.663
1503.46	292.442
1504.77	308.245
1506.07	300.055
1507.38	301.032
1508.69	304.83
1509.99	290.88
1511.3	291.556
1512.61	296.614
1513.91	287.354
1515.22	295.738
1516.53	302.358
1517.83	290.779
1519.14	314.367
1520.45	303.848
1521.75	295.395
1523.06	292.188
1524.37	301.484
1525.67	316.067
1526.98	321.713
1528.29	322.864
1529.59	321.997
1530.9	321.734
1532.21	311.909
1533.51	320.621
1534.82	324.285
1536.13	333.387
1537.43	323.593
1538.74	321.008
1540.05	339.196
1541.35	344.328
1542.66	338.919
1543.97	338.921
1545.27	343.522
1546.58	349.723
1547.89	357.693
1549.19	360.511
1550.5	367.372
1551.81	369.202
1553.11	378.142
1554.42	390.447
1555.73	393.1
1557.03	389.578
1558.34	412.331
1559.65	413.482
1560.95	420.329
1562.26	423.021
1563.57	422.595
1564.87	427.171
1566.18	436.931
1567.49	448.695
1568.79	445.491
1570.1	462.567
1571.41	483.828
1572.71	488.45
1574.02	481.838
1575.33	508.774
1576.63	507.937
1577.94	533.639
1579.25	522.605
1580.55	519.959
1581.86	536.337
1583.17	528.501
1584.47	536.272
1585.78	545.859
1587.09	547.943
1588.39	540.183
1589.7	556.71
1591.01	585.105
1592.31	589.682
1593.62	573.89
1594.93	568.943
1596.23	583.672
1597.54	572.709
1598.85	577.943
1600.15	560.995
1601.46	561.17
1602.77	568.501
1604.07	572.984
1605.38	571.531
1606.69	547.077
1607.99	538.983
1609.3	540.344
1610.61	527.336
1611.91	527.484
1613.22	511.908
1614.53	504.707
1615.83	492.003
1617.14	471.341
1618.45	472.234
1619.75	463.062
1621.06	449.816
1622.37	441.875
1623.67	419.023
1624.98	405.204
1626.29	404.911
1627.59	380.844
1628.9	377.778
1630.21	360.473
1631.51	344.083
1632.82	343.705
1634.13	334.403
1635.43	313.364
1636.74	291.887
1638.05	282.64
1639.35	280.856
1640.66	274.815
1641.97	272.368
1643.27	258.974
1644.58	248.324
1645.89	226.566
1647.19	227.731
1648.5	230.228
1649.81	221.829
1651.11	216.579
1652.42	211.862
1653.73	201.762
1655.03	196.54
1656.34	187.645
1657.65	183.469
1658.95	183.853
1660.26	173.884
1661.57	167.292
1662.87	161.055
1664.18	157.142
1665.49	159.912
1666.79	163.166
1668.1	152.656
1669.41	144.974
1670.71	132.787
1672.02	141.208
1673.33	138.264
1674.63	126.633
1675.94	118.001
1677.25	123.064
1678.55	113.04
1679.86	107.513
1681.17	110.284
1682.47	112.733
1683.78	108.707
1685.09	99.269
1686.4	105.921
1687.7	103.191
1689.01	113.193
1690.32	103.298
1691.62	100.045
1692.93	104.101
1694.24	103.049
1695.54	91.3165
1696.85	99.0777
1698.16	94.331
1699.46	93.3952
1700.77	91.6691
1702.08	93.1956
1703.38	86.3101
1704.69	88.0144
1706	86.3127
1707.3	84.9872
1708.61	88.4808
1709.92	87.1507
1711.22	87.3309
1712.53	77.9825
1713.84	83.042
1715.14	83.913
1716.45	84.0666
1717.76	77.2282
1719.06	80.5664
1720.37	81.1059
1721.68	76.821
1722.98	77.5957
1724.29	74.655
1725.6	79.3391
1726.9	80.7942
1728.21	77.4455
1729.52	72.2629
1730.82	76.9466
1732.13	73.942
1733.44	72.703
1734.74	70.1666
1736.05	72.6021
1737.36	69.2057
1738.66	71.1555
1739.97	76.4436
1741.28	75.5526
1742.58	74.9238
1743.89	69.4044
1745.2	67.4007
1746.5	67.9136
1747.81	73.6491
1749.12	66.6857
1750.42	68.4651
1751.73	72.4251
1753.04	68.2115
1754.34	73.9899
1755.65	81.4778
1756.96	72.4886
1758.26	63.6103
1759.57	63.8712
1760.88	66.4708
1762.18	66.5824
1763.49	69.085
1764.8	75.9771
1766.1	70.4815
1767.41	72.1334
1768.72	63.8554
1770.02	72.1051
1771.33	67.1502
1772.64	76.645
1773.94	68.6746
1775.25	66.4469
1776.56	69.379
1777.86	65.6713
1779.17	65.5797
1780.48	63.4913
1781.78	62.404
1783.09	67.5127
1784.4	65.0498
1785.7	66.6794
1787.01	71.3333
1788.32	70.3857
1789.62	68.6063
1790.93	65.0918
1792.24	64.7242
1793.54	70.2683
1794.85	66.8092
1796.16	72.3517
1797.46	67.9387
1798.77	61.452
1800.08	66.3325
1801.38	65.6879
1802.69	69.721
1804	68.3717
1805.3	64.2006
1806.61	66.4058
1807.92	61.4745
1809.22	61.7413
1810.53	64.3785
1811.84	63.3333
1813.14	69.8638
1814.45	62.9436
1815.76	63.3089
1817.06	71.2782
1818.37	66.0149
1819.68	67.4577
1820.98	65.6667
1822.29	64.4681
1823.6	62.6667
1824.9	63.4241
1826.21	62.912
1827.52	56.9285
1828.82	64.0497
1830.13	62.3699
1831.44	68.6154
1832.74	69.4044
1834.05	66.4971
1835.36	65.3376
1836.66	59.3333
1837.97	59.1926
1839.28	57.9824
1840.58	62.5591
1841.89	63.8315
1843.2	63.4364
1844.5	62.2371
1845.81	64.2039
1847.12	59.1528
1848.42	63.5467
1849.73	62.5971
1851.04	62.0359
1852.34	61.076
1853.65	62.2476
1854.96	61.5574
1856.26	61.4085
1857.57	65.5525
1858.88	65.0035
1860.18	62.2099
1861.49	67.6705
1862.8	67.5242
1864.1	63.7182
1865.41	66.3716
1866.72	68.7506
1868.02	67.7132
1869.33	62.7346
1870.64	60.197
1871.94	67.5666
1873.25	66.1164
1874.56	62.8683
1875.86	63.0602
1877.17	65.7251
1878.48	59.4764
1879.78	64.6447
1881.09	64.6807
1882.4	68.2948
1883.7	63.5865
1885.01	66.4642
1886.32	62.127
1887.62	57.0964
1888.93	65.8571
1890.24	62.9846
1891.54	62.2454
1892.85	59.9026
1894.16	61.4385
1895.47	63.5685
1896.77	65.7251
1898.08	64.5297
1899.39	64.9032
1900.69	70.53
1902	66.229
1903.31	65.6576
1904.61	62.5969
1905.92	58.01
1907.23	58.0251
1908.53	64.658
1909.84	57.5473
1911.15	62.6539
1912.45	67.3139
1913.76	70.6598
1915.07	59.5985
1916.37	63.2367
1917.68	67.4238
1918.99	64.1259
1920.29	61.2006
1921.6	58.8622
1922.91	60.0338
1924.21	64.8772
1925.52	66.68
1926.83	70.3834
1928.13	67.2207
1929.44	66.0121
1930.75	64.6441
1932.05	58.7888
1933.36	66.0943
1934.67	61.0502
1935.97	57.1289
1937.28	58.2106
1938.59	63.2176
1939.89	62.7443
1941.2	56.9034
1942.51	57.3672
1943.81	67.7884
1945.12	66.3497
1946.43	63.9092
1947.73	59.1427
1949.04	63.6526
1950.35	63.9584
1951.65	59.9552
1952.96	61.9516
1954.27	66.4232
1955.57	54.5811
1956.88	66.3488
1958.19	61.8167
1959.49	58.3702
1960.8	59.6277
1962.11	59.556
1963.41	59.0392
1964.72	63.6683
1966.03	67.6435
1967.33	55.3367
1968.64	66.1641
1969.95	61.9283
1971.25	59.4066
1972.56	57.9691
1973.87	62.8721
1975.17	66.7843
1976.48	64.8895
1977.79	56.1784
1979.09	59.8709
1980.4	62.3592
1981.71	67.437
1983.01	60.7867
1984.32	68.8246
1985.63	63.535
1986.93	61.2984
1988.24	62.4095
1989.55	67.2176
1990.85	68
1992.16	64.8742
1993.47	62.8984
1994.77	61.2984
1996.08	61.8633
1997.39	61.8407
1998.69	62.2114
2000	62.3333