File: Example Data/Raman/CNT - TIM/Raytheon/Al foil/2010/04-20-10/R1 - 15 microns - sideB.txt
300	71.5925
301.307	74.1147
302.613	78.2163
303.92	78.4382
305.227	75.5621
306.533	75.2957
307.84	73.6361
309.147	77.9313
310.453	74.6574
311.76	70.0481
313.067	69.9285
314.374	73.081
315.68	72.7526
316.987	69.9582
318.294	72.196
319.6	78.4964
320.907	70.6667
322.214	70.6667
323.52	69.2637
324.827	67.7733
326.134	67.753
327.44	67.4764
328.747	67.697
330.054	68.2493
331.361	65.6033
332.667	60.2518
333.974	71.2922
335.281	66.279
336.587	68.2913
337.894	65.3629
339.201	63.2819
340.507	64.2612
341.814	65.7896
343.121	65.8234
344.427	63.937
345.734	57.2217
347.041	65.8872
348.347	69.4515
349.654	61.2839
350.961	64.7725
352.267	68.1531
353.574	64.0588
354.881	61.0106
356.188	63.9154
357.494	60.4199
358.801	61.0457
360.108	62.5419
361.414	57.4545
362.721	58.7364
364.028	62.5554
365.334	63.2974
366.641	63.5843
367.948	64.4921
369.254	62.5953
370.561	63.1227
371.868	69.3992
373.174	74.5006
374.481	67.9704
375.788	70.8322
377.095	65.3397
378.401	62.0283
379.708	63.1966
381.015	63
382.321	62.0845
383.628	59.0375
384.935	62.091
386.241	69.3033
387.548	58.0699
388.855	61.5295
390.161	63.1787
391.468	59.5618
392.775	56.3873
394.081	57.9232
395.388	61.8516
396.695	61.7883
398.002	65.0891
399.308	68.0942
400.615	65.0089
401.922	60.4177
403.228	62.1824
404.535	62.5619
405.842	60.5965
407.148	58.2871
408.455	55.9153
409.762	57.3781
411.068	61.277
412.375	60.3742
413.682	60.6211
414.988	60.1549
416.295	55.743
417.602	56.1624
418.909	61.8407
420.215	63.6903
421.522	58.7435
422.829	55.1465
424.135	54.3042
425.442	65.9544
426.749	58.7103
428.055	61.812
429.362	65.3164
430.669	62.7715
431.975	62.4486
433.282	62.0902
434.589	60.8234
435.895	62.5776
437.202	60.9601
438.509	58.8445
439.816	56.7287
441.122	64.5899
442.429	55.955
443.736	63.7526
445.042	60.9093
446.349	60.081
447.656	61.7686
448.962	56.9275
450.269	53.1774
451.576	53.0929
452.882	55.838
454.189	58.8654
455.496	54.3708
456.802	53.9255
458.109	51.0271
459.416	52.6429
460.723	54.3306
462.029	56.758
463.336	60.4509
464.643	58.3673
465.949	52.8084
467.256	51.7377
468.563	52.9524
469.869	59.41
471.176	57.1973
472.483	51.4681
473.789	54.994
475.096	56.5972
476.403	54.5239
477.709	54.8996
479.016	57.4212
480.323	60.6906
481.63	56.0107
482.936	60.2685
484.243	58.2366
485.55	56.6498
486.856	48.8665
488.163	49.1774
489.47	51.3657
490.776	51.6667
492.083	51.2931
493.39	50.2841
494.696	49.4002
496.003	49.1719
497.31	45.6871
498.616	57.2473
499.923	55.7212
501.23	58.4084
502.536	52.0471
503.843	51.6544
505.15	53.1545
506.457	54.9433
507.763	56.2914
509.07	51.7165
510.377	48.9163
511.683	53.1883
512.99	51.6675
514.297	51.9726
515.603	50.055
516.91	50.9156
518.217	49.5594
519.523	49.2479
520.83	48.1744
522.137	46.1142
523.443	45.6649
524.75	48.4012
526.057	54.2271
527.364	51.4013
528.67	44.6771
529.977	47.1119
531.284	44.5523
532.59	49.2616
533.897	53.4569
535.204	53.2944
536.51	51.153
537.817	48.444
539.124	44.7318
540.43	43.9313
541.737	48.8949
543.044	42.9296
544.351	48.3274
545.657	48.0207
546.964	50.2847
548.271	46.5237
549.577	47.886
550.884	45.9189
552.191	42.5704
553.497	44.6787
554.804	50.2983
556.111	52.6045
557.417	50.6502
558.724	47.5556
560.031	51.2757
561.337	55.5762
562.644	49.6514
563.951	56.9552
565.258	56.1845
566.564	55.3333
567.871	49.0513
569.178	48.9214
570.484	51.4148
571.791	52.1727
573.098	56.0375
574.404	52.3324
575.711	51.4117
577.018	54.6287
578.324	60.4761
579.631	53.8277
580.938	51.641
582.244	50.1015
583.551	48.7828
584.858	54.0062
586.164	54.2534
587.471	51.8269
588.778	53.4531
590.085	54.0452
591.391	55.2784
592.698	55.1218
594.005	47.8886
595.311	56.522
596.618	49.6931
597.925	44.8257
599.231	50.5889
600.538	48.552
601.845	51.7693
603.151	50.1521
604.458	51.2651
605.765	54.0781
607.071	50.7979
608.378	54.8297
609.685	56.1883
610.992	59.8446
612.298	55.2389
613.605	51.8405
614.912	54.0122
616.218	58.1034
617.525	54.3425
618.832	57.9764
620.138	58.1025
621.445	55.4664
622.752	55.7134
624.058	56.623
625.365	56.612
626.672	56.671
627.978	52.4973
629.285	53.3025
630.592	53.0523
631.899	55.2223
633.205	51.2202
634.512	47.9615
635.819	49.0646
637.125	50.786
638.432	57.7533
639.739	61.4673
641.045	58.2178
642.352	56.8398
643.659	58.3681
644.965	57.2881
646.272	61.4373
647.579	58.4834
648.885	54.5647
650.192	52.7009
651.499	55.1031
652.806	64.6366
654.112	56.4779
655.419	54.614
656.726	57.7868
658.032	54.5346
659.339	54.7306
660.646	59.5112
661.952	60.5002
663.259	59.4613
664.566	56.746
665.872	50.5419
667.179	54.9207
668.486	57.044
669.792	57.9779
671.099	61.0399
672.406	66.4105
673.713	59.528
675.019	53.0372
676.326	59.1458
677.633	63.9191
678.939	62.0771
680.246	58.4788
681.553	56.1436
682.859	54.6782
684.166	55.7037
685.473	61.4667
686.779	58.5427
688.086	61.2602
689.393	51.6993
690.699	55.1316
692.006	53.2742
693.313	55.73
694.62	55.8289
695.926	57.7474
697.233	58.2458
698.54	57.8104
699.846	56.9914
701.153	56.4815
702.46	54.8829
703.766	57.7786
705.073	68.2695
706.38	62.2137
707.686	57.849
708.993	58.8733
710.3	57.3663
711.606	59.5587
712.913	56.9863
714.22	61.6668
715.526	56.7458
716.833	57.1364
718.14	60.3922
719.447	60.2834
720.753	65.5562
722.06	68.4715
723.367	63.3155
724.673	61.4235
725.98	65.878
727.287	68.2814
728.593	61.5479
729.9	61.0798
731.207	61.9119
732.513	65.6697
733.82	66.6116
735.127	69.0355
736.434	58.2576
737.74	55.227
739.047	62.87
740.354	64.9032
741.66	61.3293
742.967	62.9578
744.274	62.101
745.58	60.5876
746.887	65.2485
748.194	66.1674
749.5	64.4524
750.807	66.2534
752.114	65.4691
753.42	70.2837
754.727	72.9201
756.034	71.0316
757.341	68.2143
758.647	66.5428
759.954	66.6064
761.261	69.7269
762.567	62.8532
763.874	61.8512
765.181	62.1981
766.487	67.148
767.794	70.0192
769.101	69.9484
770.407	68.5167
771.714	66.7785
773.021	72.5576
774.327	67.0926
775.634	63.3602
776.941	61.7172
778.247	71.9876
779.554	76.126
780.861	64.4315
782.168	74.0471
783.474	72.7051
784.781	69.0972
786.088	64.797
787.394	64.8445
788.701	64.4591
790.008	67.02
791.314	69
792.621	67.3262
793.928	64.7632
795.234	66.3431
796.541	73.0267
797.848	77.8996
799.154	75.6553
800.461	72.625
801.768	81.5959
803.075	67.1542
804.381	74.0668
805.688	69.3416
806.995	71.2435
808.301	71.6354
809.608	77.6772
810.915	81.3674
812.221	76.9218
813.528	74.6199
814.835	73.2247
816.141	71.6367
817.448	71
818.755	71.5228
820.061	78.0185
821.368	78.9569
822.675	72.7328
823.982	77.118
825.288	80.3742
826.595	78.806
827.902	80.2921
829.208	76.8981
830.515	82
831.822	81.7674
833.128	77.9722
834.435	75.7434
835.742	80.2724
837.048	85.3416
838.355	79.0746
839.662	79.2399
840.969	73.9821
842.275	77.3448
843.582	80.1022
844.889	82.3628
846.195	77.0777
847.502	78.0829
848.809	85.4173
850.115	83.1419
851.422	81.0522
852.729	84.7101
854.035	82.277
855.342	83.4044
856.649	82.0832
857.955	80
859.262	79.1041
860.569	73.8877
861.875	79.2659
863.182	78.065
864.489	85.0934
865.796	85.9506
867.102	76.8593
868.409	74.542
869.716	74.8683
871.022	84.139
872.329	69.9391
873.636	74.6714
874.942	77.8673
876.249	75.4676
877.556	70.0052
878.862	68.9338
880.169	75.0202
881.476	75.0296
882.782	70
884.089	77.494
885.396	85.0473
886.703	72.1932
888.009	72.5308
889.316	79.6377
890.623	69.8992
891.929	72.798
893.236	73.2905
894.543	69.4438
895.849	65.6257
897.156	63.378
898.463	71.8198
899.769	68.4053
901.076	67.131
902.383	70.0531
903.689	66.6889
904.996	74.2737
906.303	65.9023
907.61	68.0807
908.916	68.1775
910.223	62.7705
911.53	59.5607
912.836	57.3664
914.143	64.1432
915.45	72.4735
916.756	69.4882
918.063	63.7863
919.37	64.5919
920.676	67.4337
921.983	65.937
923.29	68.9551
924.596	65.2907
925.903	60.3317
927.21	62.391
928.517	60.1742
929.823	65.7995
931.13	66.7558
932.437	63.2546
933.743	61.004
935.05	64.8738
936.357	68.4319
937.663	62.9433
938.97	72.5011
940.277	65.325
941.583	68.7816
942.89	65.6032
944.197	61.108
945.503	66.9008
946.81	69.8943
948.117	65.003
949.424	66.0579
950.73	64.9859
952.037	63.4141
953.344	61.1734
954.65	59.3327
955.957	57.8073
957.264	52.8374
958.57	57.202
959.877	65.0716
961.184	58.8071
962.49	59.6614
963.797	66.1551
965.104	64.2187
966.41	65.7166
967.717	61.9012
969.024	59.9667
970.331	63.6673
971.637	61.6284
972.944	73.0327
974.251	72.7282
975.557	64.7383
976.864	66.3061
978.171	64.6859
979.477	70.7599
980.784	68.5043
982.091	58.0223
983.397	65.2376
984.704	64.3345
986.011	64.554
987.317	68.4258
988.624	67.513
989.931	67.755
991.237	62.8983
992.544	65.9245
993.851	68
995.158	71.7064
996.464	70.7287
997.771	68.7983
999.078	73.3148
1000.38	73.6963
1001.69	69.912
1003	71.3864
1004.3	74.3247
1005.61	69.8766
1006.92	67.1211
1008.22	74.2805
1009.53	73.8183
1010.84	66.0764
1012.14	70.4805
1013.45	76.7694
1014.76	75.2304
1016.06	69.1957
1017.37	69.6556
1018.68	75.1312
1019.98	75.5617
1021.29	70.8255
1022.6	81.7484
1023.9	78.8972
1025.21	78.691
1026.52	80.5477
1027.82	76.4715
1029.13	71.937
1030.44	79.8258
1031.74	82.6016
1033.05	80.6711
1034.36	80.9977
1035.66	82.9486
1036.97	91.2819
1038.28	79.5014
1039.58	79.2782
1040.89	81.1317
1042.2	89.2523
1043.51	86.8861
1044.81	80.9881
1046.12	84.1321
1047.43	92.5392
1048.73	86.1687
1050.04	83.227
1051.35	78.4645
1052.65	84.1441
1053.96	82.5736
1055.27	84.999
1056.57	83.9097
1057.88	87.3771
1059.19	90.7597
1060.49	91.5464
1061.8	82.927
1063.11	84.7726
1064.41	95.2684
1065.72	92.0111
1067.03	87.7922
1068.33	89.0317
1069.64	87.2031
1070.95	85.3333
1072.25	85.5012
1073.56	85.0135
1074.87	86.8691
1076.17	88.8981
1077.48	89.6413
1078.79	92.6803
1080.09	88.8126
1081.4	90.2118
1082.71	98.4651
1084.01	88.8221
1085.32	86.3702
1086.63	92.7822
1087.93	93.3632
1089.24	89.7722
1090.55	93.0931
1091.85	95.3358
1093.16	95.469
1094.47	89.522
1095.77	94.2183
1097.08	99.3376
1098.39	96.1727
1099.69	99.3824
1101	95.4869
1102.31	97.4621
1103.61	101.2
1104.92	97.1967
1106.23	104.152
1107.53	106.948
1108.84	105.2
1110.15	112.882
1111.45	112.631
1112.76	104.621
1114.07	103.713
1115.37	112.333
1116.68	109.144
1117.99	103.137
1119.29	106.833
1120.6	105.951
1121.91	111.774
1123.21	109.823
1124.52	115.434
1125.83	112.666
1127.13	118.355
1128.44	129.938
1129.75	117.168
1131.05	112.649
1132.36	118.224
1133.67	122.619
1134.97	114.128
1136.28	127.68
1137.59	121.281
1138.89	118.331
1140.2	130.811
1141.51	129.915
1142.81	138.665
1144.12	133.433
1145.43	121.216
1146.73	131.735
1148.04	136.842
1149.35	142.896
1150.65	141.751
1151.96	156.808
1153.27	144.625
1154.57	148.091
1155.88	140.393
1157.19	152.749
1158.49	147.47
1159.8	142.692
1161.11	155.705
1162.41	149.282
1163.72	142.346
1165.03	155.775
1166.33	161.23
1167.64	151.367
1168.95	164.934
1170.25	155.368
1171.56	152.871
1172.87	156.721
1174.17	149.173
1175.48	157.089
1176.79	159.694
1178.09	160.842
1179.4	158.594
1180.71	168.544
1182.01	157.725
1183.32	159.755
1184.63	168.289
1185.93	154.308
1187.24	171.257
1188.55	167.842
1189.85	167.441
1191.16	175.969
1192.47	165.591
1193.77	164.051
1195.08	165.691
1196.39	165.361
1197.69	168.872
1199	173.612
1200.31	176.485
1201.61	171.414
1202.92	162.282
1204.23	179.556
1205.53	176.41
1206.84	172.799
1208.15	183.127
1209.45	189.359
1210.76	171.614
1212.07	170.718
1213.37	180.277
1214.68	192.19
1215.99	187.044
1217.29	191.98
1218.6	193.01
1219.91	187.587
1221.21	184.229
1222.52	185.046
1223.83	187.455
1225.13	189.085
1226.44	188.123
1227.75	197.875
1229.05	198.511
1230.36	195.551
1231.67	193.054
1232.97	210.146
1234.28	216.299
1235.59	202.517
1236.89	211.087
1238.2	213.662
1239.51	211.203
1240.81	223.198
1242.12	223.898
1243.43	225.857
1244.73	228.602
1246.04	220.664
1247.35	224.865
1248.65	233.142
1249.96	234.878
1251.27	231.464
1252.57	229.526
1253.88	237.411
1255.19	236.218
1256.49	240.82
1257.8	251.131
1259.11	248.695
1260.42	252.533
1261.72	256.902
1263.03	270.662
1264.34	263.426
1265.64	268.958
1266.95	270.118
1268.26	272.87
1269.56	273.077
1270.87	276.811
1272.18	284.107
1273.48	290.682
1274.79	293.909
1276.1	289.873
1277.4	288.405
1278.71	296.159
1280.02	307.966
1281.32	313.307
1282.63	315.023
1283.94	324.213
1285.24	330.275
1286.55	326.22
1287.86	327.67
1289.16	335.75
1290.47	338.493
1291.78	346.08
1293.08	349.159
1294.39	359.457
1295.7	372.08
1297	371.671
1298.31	376.145
1299.62	379.945
1300.92	377.91
1302.23	384.1
1303.54	406.696
1304.84	407.66
1306.15	414.172
1307.46	420.092
1308.76	419.707
1310.07	432.468
1311.38	444.304
1312.68	439.947
1313.99	449.121
1315.3	465.367
1316.6	490.449
1317.91	482.131
1319.22	495.513
1320.52	498.332
1321.83	497.386
1323.14	523.91
1324.44	526.704
1325.75	544.6
1327.06	544.383
1328.36	562.13
1329.67	555.879
1330.98	561.171
1332.28	573.345
1333.59	577.046
1334.9	588.398
1336.2	583.309
1337.51	587.2
1338.82	598.738
1340.12	603.12
1341.43	602.833
1342.74	611.083
1344.04	602.388
1345.35	613.792
1346.66	617.225
1347.96	621.966
1349.27	624.293
1350.58	631.799
1351.88	628.697
1353.19	611.079
1354.5	623.901
1355.8	615.641
1357.11	624.11
1358.42	626.625
1359.72	599.548
1361.03	600.007
1362.34	595.714
1363.64	582.217
1364.95	572.309
1366.26	560.534
1367.56	567.127
1368.87	550.782
1370.18	559.069
1371.48	536.916
1372.79	534.605
1374.1	532.006
1375.4	523.974
1376.71	510.354
1378.02	500.679
1379.32	495.197
1380.63	485.71
1381.94	486.886
1383.24	482.052
1384.55	464.461
1385.86	451.234
1387.16	455.818
1388.47	454.74
1389.78	448.16
1391.08	437.192
1392.39	432.278
1393.7	427.071
1395	418.499
1396.31	412.68
1397.62	409.202
1398.92	400.989
1400.23	395.927
1401.54	394.411
1402.84	385.285
1404.15	377.096
1405.46	376.51
1406.76	366.735
1408.07	358.136
1409.38	353.622
1410.68	357.132
1411.99	350.721
1413.3	340.661
1414.6	351.798
1415.91	340.581
1417.22	346.973
1418.52	334.147
1419.83	331.106
1421.14	339.441
1422.44	317.217
1423.75	319.143
1425.06	309.29
1426.36	315.79
1427.67	316.456
1428.98	313.221
1430.28	303.434
1431.59	298.736
1432.9	305.401
1434.2	310.866
1435.51	306.896
1436.82	302.841
1438.12	293.031
1439.43	298.465
1440.74	301.009
1442.04	292.577
1443.35	291.533
1444.66	293.375
1445.96	285.444
1447.27	290.858
1448.58	295.972
1449.88	298.45
1451.19	290.49
1452.5	277.137
1453.8	280.778
1455.11	286.828
1456.42	283.416
1457.72	284.353
1459.03	284.461
1460.34	275.415
1461.64	278.346
1462.95	285.36
1464.26	279.659
1465.56	274.476
1466.87	264.817
1468.18	283.885
1469.48	277.566
1470.79	283.005
1472.1	266.729
1473.41	283.866
1474.71	284.54
1476.02	277.093
1477.33	273.852
1478.63	273.943
1479.94	265.304
1481.25	267.368
1482.55	280.262
1483.86	280.58
1485.17	272.187
1486.47	273.806
1487.78	271.876
1489.09	270.18
1490.39	270.279
1491.7	266.847
1493.01	271.132
1494.31	274.693
1495.62	278.338
1496.93	276.945
1498.23	271.26
1499.54	281.256
1500.85	269.585
1502.15	283.082
1503.46	284.942
1504.77	280.885
1506.07	280.667
1507.38	275.996
1508.69	265.809
1509.99	277.203
1511.3	277.704
1512.61	277.871
1513.91	279.015
1515.22	281.95
1516.53	285.389
1517.83	281.743
1519.14	283.768
1520.45	300.307
1521.75	287.841
1523.06	287.8
1524.37	285.241
1525.67	285.14
1526.98	290.563
1528.29	293.113
1529.59	298.598
1530.9	308.453
1532.21	307.233
1533.51	300.463
1534.82	316.362
1536.13	300.096
1537.43	309.349
1538.74	293.637
1540.05	309.244
1541.35	308.006
1542.66	303.713
1543.97	320.717
1545.27	325.09
1546.58	322.57
1547.89	342.814
1549.19	335.149
1550.5	332.428
1551.81	339.583
1553.11	336.483
1554.42	351.097
1555.73	354.161
1557.03	360.543
1558.34	372.778
1559.65	391.002
1560.95	404.565
1562.26	400.191
1563.57	401.34
1564.87	399.071
1566.18	408.885
1567.49	404.912
1568.79	430.526
1570.1	413.651
1571.41	421.576
1572.71	446.633
1574.02	440.931
1575.33	461.783
1576.63	472.44
1577.94	485.607
1579.25	492.971
1580.55	493.784
1581.86	497.712
1583.17	520.652
1584.47	533.122
1585.78	519.278
1587.09	538.648
1588.39	556.977
1589.7	566.942
1591.01	576.417
1592.31	586.001
1593.62	599.129
1594.93	610.345
1596.23	604.887
1597.54	620.777
1598.85	604.163
1600.15	624.415
1601.46	631.71
1602.77	626.761
1604.07	629.433
1605.38	626.308
1606.69	636.563
1607.99	635.279
1609.3	639.891
1610.61	621.836
1611.91	624.907
1613.22	619.367
1614.53	623.365
1615.83	610.174
1617.14	590.126
1618.45	581.534
1619.75	569.118
1621.06	562.266
1622.37	555.494
1623.67	526.055
1624.98	522.434
1626.29	516.992
1627.59	500.543
1628.9	463.742
1630.21	455.735
1631.51	435.398
1632.82	417.455
1634.13	394.494
1635.43	379.545
1636.74	370.711
1638.05	356.757
1639.35	339.964
1640.66	338.068
1641.97	319.878
1643.27	308.965
1644.58	296.402
1645.89	296.319
1647.19	279.946
1648.5	264.477
1649.81	257.448
1651.11	243.803
1652.42	236.966
1653.73	227.368
1655.03	226.688
1656.34	225.887
1657.65	211.152
1658.95	209.597
1660.26	198.943
1661.57	197.643
1662.87	193.005
1664.18	175.115
1665.49	170.849
1666.79	174.611
1668.1	156.586
1669.41	174.365
1670.71	148.986
1672.02	147.347
1673.33	139.74
1674.63	140.687
1675.94	132.876
1677.25	124.219
1678.55	114.961
1679.86	118.223
1681.17	116.147
1682.47	112.392
1683.78	108.773
1685.09	107.204
1686.4	105.232
1687.7	105.762
1689.01	103.643
1690.32	99.8596
1691.62	92.6969
1692.93	95.8622
1694.24	101.261
1695.54	94.326
1696.85	89.6815
1698.16	82.6702
1699.46	83.6085
1700.77	85.187
1702.08	86.1573
1703.38	78.8822
1704.69	73.2634
1706	72.6946
1707.3	78.8794
1708.61	79.7611
1709.92	75.0433
1711.22	74.005
1712.53	63.6118
1713.84	73.5853
1715.14	74.3672
1716.45	68.6769
1717.76	64.5481
1719.06	65.799
1720.37	68.792
1721.68	69.5123
1722.98	64.926
1724.29	63.5568
1725.6	62.1869
1726.9	60.3189
1728.21	62.6355
1729.52	69.3161
1730.82	66.9585
1732.13	64.4927
1733.44	63.0869
1734.74	62.6062
1736.05	58.1078
1737.36	64.9036
1738.66	58.2127
1739.97	60.6967
1741.28	57.5362
1742.58	51.719
1743.89	53.9614
1745.2	64.9087
1746.5	65.5926
1747.81	53.0935
1749.12	58.6191
1750.42	55.217
1751.73	54.1069
1753.04	55.5228
1754.34	58.7426
1755.65	56.4955
1756.96	51.7876
1758.26	55.5025
1759.57	60.7424
1760.88	55.568
1762.18	54.0856
1763.49	51.3647
1764.8	55.7752
1766.1	53.729
1767.41	56.4086
1768.72	52.5546
1770.02	58.4641
1771.33	55.2462
1772.64	49.355
1773.94	54.74
1775.25	56.5995
1776.56	50.9691
1777.86	51.9861
1779.17	54.7244
1780.48	55.0614
1781.78	59.7677
1783.09	53.5354
1784.4	46.6667
1785.7	47.431
1787.01	51.9793
1788.32	50.0914
1789.62	50.4237
1790.93	47.9618
1792.24	50.7679
1793.54	47.5853
1794.85	50.3534
1796.16	52.8263
1797.46	57.152
1798.77	54.3191
1800.08	50.3345
1801.38	51.4485
1802.69	49.1629
1804	50.5699
1805.3	53.8511
1806.61	54.9709
1807.92	49.0747
1809.22	49.0373
1810.53	50.8989
1811.84	55.3145
1813.14	54.279
1814.45	51.8689
1815.76	54.939
1817.06	45.8081
1818.37	52.1195
1819.68	51.1694
1820.98	53.9112
1822.29	42.8685
1823.6	46.7879
1824.9	51.6292
1826.21	44.4581
1827.52	44.0358
1828.82	44.1773
1830.13	46.4201
1831.44	53.9436
1832.74	57.7827
1834.05	51.3333
1835.36	51.0007
1836.66	52.016
1837.97	53.7483
1839.28	49.4795
1840.58	50.9144
1841.89	58.1252
1843.2	52.7131
1844.5	57.1954
1845.81	46.6841
1847.12	53.9454
1848.42	51.4139
1849.73	46.4747
1851.04	50.9537
1852.34	49.836
1853.65	52.4153
1854.96	49.588
1856.26	56.1233
1857.57	46.7805
1858.88	49.042
1860.18	52.483
1861.49	52.6897
1862.8	54.6327
1864.1	53.4994
1865.41	51.1326
1866.72	52.8777
1868.02	49.6046
1869.33	53.1927
1870.64	47.617
1871.94	49.9725
1873.25	47.9509
1874.56	52.8545
1875.86	47.7049
1877.17	50.4346
1878.48	54.0671
1879.78	53.4479
1881.09	51.7212
1882.4	50.4104
1883.7	53.3139
1885.01	51.2062
1886.32	51.127
1887.62	45.7171
1888.93	47.8358
1890.24	44.7326
1891.54	52.532
1892.85	50.1385
1894.16	51.5564
1895.47	52.7546
1896.77	54.3187
1898.08	49.2653
1899.39	44.1923
1900.69	50.3581
1902	48.3749
1903.31	46.3604
1904.61	54.199
1905.92	51.284
1907.23	46.5913
1908.53	52.5232
1909.84	49.082
1911.15	46.6292
1912.45	49.3723
1913.76	48.9544
1915.07	49.5497
1916.37	54.5761
1917.68	54.5222
1918.99	54.9241
1920.29	48.0254
1921.6	54.0802
1922.91	52.3218
1924.21	45.4912
1925.52	49.0535
1926.83	53.7167
1928.13	55.5479
1929.44	52.0667
1930.75	48.0301
1932.05	46.0854
1933.36	53.2873
1934.67	54.7625
1935.97	51.3746
1937.28	48.9386
1938.59	48.2041
1939.89	52.2506
1941.2	49.1361
1942.51	51.3249
1943.81	48.1376
1945.12	43.6667
1946.43	45.6498
1947.73	51.5295
1949.04	49.8454
1950.35	46.5417
1951.65	50.5583
1952.96	53.1133
1954.27	42.6898
1955.57	50.9608
1956.88	44.5528
1958.19	53.6733
1959.49	53.222
1960.8	51.6017
1962.11	51.5187
1963.41	50.6667
1964.72	47.2604
1966.03	51.6917
1967.33	56.6654
1968.64	51.5795
1969.95	47.0549
1971.25	55.0553
1972.56	58.8103
1973.87	54.6895
1975.17	47.9804
1976.48	46.837
1977.79	48.44
1979.09	47.043
1980.4	49.5559
1981.71	48.5256
1983.01	50.8407
1984.32	54.059
1985.63	53.1447
1986.93	51.4031
1988.24	50.4191
1989.55	53.7465
1990.85	49.1945
1992.16	46.1258
1993.47	48.5364
1994.77	53.4275
1996.08	51.3533
1997.39	49.0169
1998.69	55.5372
2000	58.4926