File: Example Data/Raman/CNT - TIM/Raytheon/Al foil/2010/04-20-10/R2 - 25 microns - sideB.txt
300	89.5926
301.307	82.9786
302.613	85.4582
303.92	92.8632
305.227	93.3589
306.533	86.1015
307.84	83.29
309.147	98.975
310.453	97.7845
311.76	97.6667
313.067	96.7382
314.374	95.5483
315.68	95.6421
316.987	93.4574
318.294	88.6667
319.6	88.9889
320.907	90.5934
322.214	89.4031
323.52	93.5421
324.827	90.8985
326.134	90.9258
327.44	91.1431
328.747	93.4547
330.054	94.5164
331.361	89.4405
332.667	93.6667
333.974	93.6667
335.281	95.4506
336.587	92.5172
337.894	88.9388
339.201	89.9753
340.507	94.8198
341.814	99.44
343.121	100.539
344.427	96.9907
345.734	89.9234
347.041	88.7282
348.347	94.3361
349.654	87.3643
350.961	88.3155
352.267	89.7925
353.574	91.085
354.881	93.5567
356.188	94.8522
357.494	98.316
358.801	102.63
360.108	101.433
361.414	99.9617
362.721	98.9457
364.028	90.8257
365.334	83.4101
366.641	86.004
367.948	92.1588
369.254	89.1918
370.561	85.9021
371.868	92.9961
373.174	92.696
374.481	85.6371
375.788	83.2897
377.095	86.2564
378.401	87.4823
379.708	82.9747
381.015	82.0123
382.321	90.7512
383.628	87.7412
384.935	91.019
386.241	92.5215
387.548	91.0398
388.855	99.7226
390.161	95.5309
391.468	90.3217
392.775	91.8159
394.081	92.7307
395.388	90.7434
396.695	93.764
398.002	80.5116
399.308	86.5218
400.615	90.0474
401.922	92.135
403.228	87.787
404.535	83.3821
405.842	87.8949
407.148	92.3442
408.455	87.4125
409.762	89.2601
411.068	87.0376
412.375	87.6394
413.682	87.3789
414.988	84.0067
416.295	81.6557
417.602	83.4958
418.909	84.8533
420.215	83.9484
421.522	86.5228
422.829	91.7973
424.135	82.37
425.442	91.6591
426.749	90.4517
428.055	89.5165
429.362	88.6107
430.669	96.0854
431.975	88.3715
433.282	81.4863
434.589	88.1841
435.895	90.484
437.202	85.4536
438.509	77.8664
439.816	85.1208
441.122	91.2024
442.429	87.2754
443.736	87.8523
445.042	83.2491
446.349	84.2578
447.656	88.6667
448.962	90.1884
450.269	91.7738
451.576	86.9982
452.882	88.7772
454.189	84.8417
455.496	85.5346
456.802	91.3607
458.109	94.1434
459.416	89.7063
460.723	88.1817
462.029	88.3452
463.336	86.4316
464.643	87.9553
465.949	89.8084
467.256	88.1513
468.563	79.3455
469.869	87.4496
471.176	89.712
472.483	92.3168
473.789	88.8857
475.096	86.1725
476.403	84.1914
477.709	81.6731
479.016	81.1629
480.323	77.1244
481.63	74.6282
482.936	78.2778
484.243	86.4208
485.55	80.8526
486.856	79.3333
488.163	77.6387
489.47	76.6667
490.776	79.1254
492.083	79.7588
493.39	76.5739
494.696	77.7995
496.003	76.3911
497.31	71.9088
498.616	79.8183
499.923	86.3153
501.23	83.4895
502.536	74.8194
503.843	74.9186
505.15	75.2847
506.457	70.3452
507.763	69.5227
509.07	74.1264
510.377	71.5566
511.683	79.39
512.99	66.0244
514.297	75.1794
515.603	76
516.91	74.2515
518.217	71.6709
519.523	67.9541
520.83	71.6375
522.137	75.676
523.443	74.3281
524.75	75.0099
526.057	72.3187
527.364	79.0816
528.67	79.9986
529.977	78.7774
531.284	78.3886
532.59	71.3179
533.897	74.8073
535.204	73.9418
536.51	69.8157
537.817	69.8893
539.124	72.9151
540.43	73.186
541.737	69.5394
543.044	71.8675
544.351	70.7563
545.657	75.3559
546.964	72.2396
548.271	71.9256
549.577	76.8732
550.884	80.027
552.191	78.8797
553.497	80.3745
554.804	81.2388
556.111	77.26
557.417	76.4885
558.724	71.3519
560.031	87.8424
561.337	85.3851
562.644	76.6112
563.951	75.118
565.258	76.9857
566.564	72.9996
567.871	76.1635
569.178	78.9789
570.484	77.5677
571.791	79.6027
573.098	84.2408
574.404	81.4598
575.711	71.6627
577.018	74.311
578.324	80.4661
579.631	72.3409
580.938	83.2929
582.244	87.7246
583.551	83.9139
584.858	76.5807
586.164	75.2139
587.471	79.21875
588.778	79.8696
590.085	76.6667
591.391	78.3369
592.698	84.4423
594.005	82.8612
595.311	80.7028
596.618	77.6347
597.925	80.1162
599.231	76.8654
600.538	78.1812
601.845	74.2307
603.151	75.6683
604.458	78.7375
605.765	81.0521
607.071	83.4778
608.378	78.3116
609.685	80.1364
610.992	74.6266
612.298	77.6681
613.605	89.717
614.912	77.7261
616.218	78.6929
617.525	80.3139
618.832	79.118
620.138	84.2505
621.445	86.9463
622.752	85.0685
624.058	84.7104
625.365	84.8233
626.672	81.6341
627.978	75.6557
629.285	79.0617
630.592	79.9657
631.899	92.3658
633.205	87.1241
634.512	84.4397
635.819	82.516
637.125	82
638.432	78.79
639.739	80.3958
641.045	85.8306
642.352	83.0767
643.659	79.1121
644.965	88.8614
646.272	92.9585
647.579	93.9977
648.885	82.1255
650.192	90.5128
651.499	91.2758
652.806	92.461
654.112	89.0357
655.419	90.3684
656.726	81.0434
658.032	82.8194
659.339	86.8072
660.646	87.1002
661.952	88.5836
663.259	86.9225
664.566	85.517
665.872	84.3501
667.179	86.0363
668.486	86.9049
669.792	99.0459
671.099	88.3898
672.406	91.2822
673.713	98.2443
675.019	91.4077
676.326	83.0087
677.633	88.3392
678.939	90.7024
680.246	86.1455
681.553	84.2026
682.859	84.8735
684.166	87.9835
685.473	90.6001
686.779	86.8308
688.086	89.6182
689.393	84.6726
690.699	85.2967
692.006	84.1567
693.313	89.4601
694.62	90.4145
695.926	95.4196
697.233	89.8811
698.54	92.7267
699.846	93.2685
701.153	87.1484
702.46	87.323
703.766	88.8229
705.073	85.9007
706.38	85.6545
707.686	89.302
708.993	87.38
710.3	92.0612
711.606	96.1329
712.913	86.5052
714.22	94.2225
715.526	92.1386
716.833	88.3889
718.14	89.508
719.447	88.6906
720.753	86.9777
722.06	87.1407
723.367	89.188
724.673	87.6561
725.98	84.2617
727.287	91.4475
728.593	88.8353
729.9	86.1566
731.207	94.8506
732.513	97.6554
733.82	94.2018
735.127	94.2961
736.434	100.148
737.74	94.8916
739.047	94.9079
740.354	93.2537
741.66	94.6035
742.967	98.508
744.274	93.51
745.58	89.3521
746.887	94.7067
748.194	99.3319
749.5	101.714
750.807	96.2621
752.114	103.516
753.42	103.581
754.727	111.481
756.034	91.3375
757.341	107.405
758.647	96.7173
759.954	108.926
761.261	106.645
762.567	112.577
763.874	104.525
765.181	101.473
766.487	101.872
767.794	100.172
769.101	95.115
770.407	93.8488
771.714	101.556
773.021	102.293
774.327	100.502
775.634	99.7023
776.941	108.112
778.247	99.4938
779.554	101.65
780.861	100.702
782.168	97.9266
783.474	99.9616
784.781	110.311
786.088	106.352
787.394	105.276
788.701	104.137
790.008	105.951
791.314	104.719
792.621	104.509
793.928	105.613
795.234	100.72
796.541	101.423
797.848	113.47
799.154	112.065
800.461	102.67
801.768	104.355
803.075	106.06
804.381	104.04
805.688	110.642
806.995	104.936
808.301	110.708
809.608	117.63
810.915	112.185
812.221	108.381
813.528	109.569
814.835	117.429
816.141	112.554
817.448	108.094
818.755	107.621
820.061	107.142
821.368	107.096
822.675	108.242
823.982	110.107
825.288	108.05
826.595	110.209
827.902	113.675
829.208	112.234
830.515	111.391
831.822	109.136
833.128	111.421
834.435	118.426
835.742	113.754
837.048	116.255
838.355	127.193
839.662	117.796
840.969	116.397
842.275	118.627
843.582	118.027
844.889	119.769
846.195	118.509
847.502	115.291
848.809	114.652
850.115	114.277
851.422	113.073
852.729	113.13
854.035	118.781
855.342	126.782
856.649	117.937
857.955	115.981
859.262	117.835
860.569	111.288
861.875	120.734
863.182	121.882
864.489	109.103
865.796	112.37
867.102	116.5
868.409	114.47
869.716	118.012
871.022	117.731
872.329	111.326
873.636	111.948
874.942	108.215
876.249	106.333
877.556	112.78
878.862	111.612
880.169	110.661
881.476	113.422
882.782	107.654
884.089	105.447
885.396	106.011
886.703	98.6151
888.009	102.585
889.316	102.541
890.623	103.673
891.929	105.99
893.236	110.553
894.543	112.091
895.849	102.263
897.156	98.4099
898.463	115.621
899.769	108.811
901.076	114.083
902.383	110.837
903.689	103.105
904.996	101.333
906.303	109.536
907.61	108.772
908.916	104.177
910.223	106.768
911.53	101.22
912.836	93.8813
914.143	96.9079
915.45	101.158
916.756	96.5047
918.063	94.6486
919.37	104.086
920.676	109.893
921.983	109.396
923.29	105.845
924.596	105.246
925.903	102.465
927.21	104.67
928.517	99.7552
929.823	101.562
931.13	112.533
932.437	110.408
933.743	102.997
935.05	99.7718
936.357	106.843
937.663	103.116
938.97	106.153
940.277	102.749
941.583	108.999
942.89	102.908
944.197	106.869
945.503	105.431
946.81	105.821
948.117	114.271
949.424	107.987
950.73	104.226
952.037	103.571
953.344	106.967
954.65	108.003
955.957	105.9
957.264	106.786
958.57	103.475
959.877	98.6781
961.184	100.109
962.49	106.051
963.797	104.336
965.104	108.068
966.41	106.383
967.717	105.073
969.024	111.365
970.331	110.051
971.637	110.751
972.944	113.373
974.251	110.224
975.557	104.735
976.864	113.547
978.171	106.418
979.477	111.464
980.784	108.547
982.091	116.825
983.397	111.488
984.704	120.661
986.011	108.483
987.317	112.648
988.624	113.293
989.931	119.543
991.237	116.079
992.544	112.124
993.851	116.311
995.158	114.306
996.464	120.814
997.771	115.308
999.078	113.562
1000.38	120.861
1001.69	114.783
1003	119.239
1004.3	122.72
1005.61	120.335
1006.92	126.786
1008.22	121.775
1009.53	121.192
1010.84	128.419
1012.14	125.086
1013.45	121.302
1014.76	126.088
1016.06	127.355
1017.37	121.723
1018.68	124.867
1019.98	137.357
1021.29	126.404
1022.6	123.812
1023.9	120.573
1025.21	140.391
1026.52	130.188
1027.82	131.573
1029.13	130.425
1030.44	127.828
1031.74	136.667
1033.05	136.64
1034.36	134.681
1035.66	143.76
1036.97	142.407
1038.28	144.829
1039.58	152.033
1040.89	141.577
1042.2	138.28
1043.51	146.043
1044.81	136.08
1046.12	147.774
1047.43	157.129
1048.73	151.029
1050.04	146.166
1051.35	142.814
1052.65	153.086
1053.96	152.425
1055.27	155.371
1056.57	156.185
1057.88	152.078
1059.19	151.208
1060.49	157.633
1061.8	156.63
1063.11	158.061
1064.41	157.303
1065.72	158.083
1067.03	159.395
1068.33	152.643
1069.64	158.85
1070.95	165.043
1072.25	166.032
1073.56	170.333
1074.87	166.688
1076.17	163.743
1077.48	170.521
1078.79	180.664
1080.09	181.074
1081.4	178.379
1082.71	177.081
1084.01	176.627
1085.32	186.911
1086.63	181.195
1087.93	179.741
1089.24	184.333
1090.55	182.308
1091.85	180.774
1093.16	186.407
1094.47	183.574
1095.77	184.648
1097.08	193.238
1098.39	186.181
1099.69	198.272
1101	203.41
1102.31	202.278
1103.61	197.333
1104.92	198.597
1106.23	202.848
1107.53	198.615
1108.84	193.573
1110.15	188.603
1111.45	204.798
1112.76	194.599
1114.07	218.6
1115.37	218.374
1116.68	204.861
1117.99	208.503
1119.29	225.998
1120.6	223.062
1121.91	224.119
1123.21	227.378
1124.52	208.488
1125.83	214.667
1127.13	209.703
1128.44	214.883
1129.75	221.908
1131.05	217.477
1132.36	218.021
1133.67	234.982
1134.97	222.557
1136.28	226.979
1137.59	240.684
1138.89	235.061
1140.2	246.835
1141.51	264.288
1142.81	244.069
1144.12	251.319
1145.43	245.971
1146.73	256.761
1148.04	260.047
1149.35	266.911
1150.65	271.55
1151.96	271.605
1153.27	275.453
1154.57	278.49
1155.88	264.056
1157.19	280.492
1158.49	284.414
1159.8	280.862
1161.11	276.735
1162.41	284.586
1163.72	282.138
1165.03	295.357
1166.33	294.471
1167.64	304.123
1168.95	291.721
1170.25	311.673
1171.56	292.162
1172.87	299.372
1174.17	302.473
1175.48	301.585
1176.79	299.391
1178.09	311.383
1179.4	314.559
1180.71	303.977
1182.01	306.638
1183.32	303.311
1184.63	309.746
1185.93	310.429
1187.24	301.444
1188.55	310.414
1189.85	306.449
1191.16	306.572
1192.47	319.065
1193.77	318.825
1195.08	308.948
1196.39	326.416
1197.69	326.682
1199	335.955
1200.31	338.771
1201.61	338.991
1202.92	335.989
1204.23	338.055
1205.53	327.008
1206.84	338.572
1208.15	345.665
1209.45	340.02
1210.76	336.297
1212.07	317.52
1213.37	366.941
1214.68	352.315
1215.99	329.849
1217.29	356.982
1218.6	338.134
1219.91	367.669
1221.21	361.857
1222.52	356.52
1223.83	363.366
1225.13	381.866
1226.44	368.097
1227.75	382.657
1229.05	389.547
1230.36	380.914
1231.67	371.454
1232.97	385.18
1234.28	379.452
1235.59	392.869
1236.89	392.639
1238.2	391.793
1239.51	379.61
1240.81	395.025
1242.12	396.11
1243.43	415.61
1244.73	422.704
1246.04	419.793
1247.35	415.261
1248.65	418.39
1249.96	416.178
1251.27	438.788
1252.57	445.084
1253.88	452.86
1255.19	442.07
1256.49	440.519
1257.8	442.244
1259.11	453.713
1260.42	455.664
1261.72	452.26
1263.03	461.677
1264.34	480.71
1265.64	490.026
1266.95	490.017
1268.26	472.848
1269.56	486.986
1270.87	508.665
1272.18	509.098
1273.48	526.214
1274.79	526.75
1276.1	522.386
1277.4	536.002
1278.71	558.323
1280.02	566.562
1281.32	580.839
1282.63	574.392
1283.94	574.059
1285.24	593.038
1286.55	610.162
1287.86	620.966
1289.16	624.63
1290.47	618.599
1291.78	628.932
1293.08	644.418
1294.39	662.01
1295.7	663.563
1297	658.567
1298.31	683.843
1299.62	701.267
1300.92	701.701
1302.23	741.974
1303.54	750.985
1304.84	756.186
1306.15	750.374
1307.46	778.565
1308.76	786.944
1310.07	806.964
1311.38	822.605
1312.68	833.625
1313.99	836.554
1315.3	868.828
1316.6	907.829
1317.91	892.433
1319.22	927.094
1320.52	926.142
1321.83	938.347
1323.14	964.747
1324.44	967.54
1325.75	974.518
1327.06	1013.24
1328.36	1022.63
1329.67	1040.17
1330.98	1052.78
1332.28	1089.04
1333.59	1080.58
1334.9	1100.44
1336.2	1112.52
1337.51	1136.91
1338.82	1151.88
1340.12	1147.05
1341.43	1157.84
1342.74	1181.43
1344.04	1192.4
1345.35	1199.04
1346.66	1189.27
1347.96	1207.53
1349.27	1203.01
1350.58	1198.8
1351.88	1198.5
1353.19	1207.7
1354.5	1200.96
1355.8	1199.13
1357.11	1180.79
1358.42	1181.06
1359.72	1165.31
1361.03	1176.43
1362.34	1140.64
1363.64	1127.01
1364.95	1134.9
1366.26	1114.2
1367.56	1103.66
1368.87	1091.25
1370.18	1072.47
1371.48	1061.73
1372.79	1049.19
1374.1	1025.09
1375.4	1010.63
1376.71	986.922
1378.02	1002.61
1379.32	976.221
1380.63	956.49
1381.94	939.4
1383.24	904.515
1384.55	899.165
1385.86	882.407
1387.16	870.256
1388.47	868.05
1389.78	852.109
1391.08	831.358
1392.39	813.474
1393.7	793.353
1395	784.641
1396.31	785.898
1397.62	777.332
1398.92	763.14
1400.23	749.806
1401.54	737.831
1402.84	731.753
1404.15	719.131
1405.46	703.536
1406.76	681.929
1408.07	671.013
1409.38	674.088
1410.68	679.755
1411.99	658.768
1413.3	654.865
1414.6	635.94
1415.91	635.1
1417.22	639.379
1418.52	616.127
1419.83	629.41
1421.14	612.056
1422.44	611.905
1423.75	587.395
1425.06	588.265
1426.36	589.148
1427.67	568.817
1428.98	586.949
1430.28	583.805
1431.59	579.6
1432.9	561.814
1434.2	564.035
1435.51	571.06
1436.82	558.349
1438.12	558.152
1439.43	547.244
1440.74	551.183
1442.04	552.703
1443.35	551.106
1444.66	545.382
1445.96	548.523
1447.27	549.873
1448.58	529.528
1449.88	545.089
1451.19	547.585
1452.5	532.491
1453.8	533.936
1455.11	532.2
1456.42	525.84
1457.72	520.058
1459.03	528.258
1460.34	521.935
1461.64	512.983
1462.95	530.135
1464.26	515.363
1465.56	517.507
1466.87	528.999
1468.18	517.614
1469.48	515.062
1470.79	524.752
1472.1	523.554
1473.41	513.315
1474.71	517.55
1476.02	520.905
1477.33	516.287
1478.63	512.417
1479.94	509.925
1481.25	507.184
1482.55	517.96
1483.86	507.504
1485.17	497.911
1486.47	513.179
1487.78	516.567
1489.09	521.768
1490.39	517.874
1491.7	516.106
1493.01	516.792
1494.31	515.497
1495.62	512.729
1496.93	530.985
1498.23	524.603
1499.54	522.469
1500.85	528.003
1502.15	524.949
1503.46	521.334
1504.77	516.204
1506.07	523.337
1507.38	529.866
1508.69	507.761
1509.99	534.341
1511.3	533.389
1512.61	533.241
1513.91	523.255
1515.22	521.548
1516.53	530.47
1517.83	525.718
1519.14	534.774
1520.45	534.546
1521.75	535.799
1523.06	542.693
1524.37	535.754
1525.67	525.635
1526.98	532.539
1528.29	558.134
1529.59	557.244
1530.9	557.076
1532.21	553.553
1533.51	544.34
1534.82	559.268
1536.13	565.987
1537.43	579.367
1538.74	581.641
1540.05	583.394
1541.35	576.672
1542.66	596.648
1543.97	598.864
1545.27	603.897
1546.58	619.218
1547.89	623.539
1549.19	612.839
1550.5	629.226
1551.81	636.104
1553.11	651.952
1554.42	665.402
1555.73	682.76
1557.03	700.101
1558.34	701.559
1559.65	710.803
1560.95	726.863
1562.26	730.591
1563.57	730.179
1564.87	743.111
1566.18	759.832
1567.49	775.479
1568.79	776.909
1570.1	789.623
1571.41	820.535
1572.71	849.091
1574.02	861.719
1575.33	891.089
1576.63	880.602
1577.94	924.282
1579.25	932.36
1580.55	940.913
1581.86	985.266
1583.17	1002.55
1584.47	1017.18
1585.78	1038.49
1587.09	1052.08
1588.39	1067.19
1589.7	1093.4
1591.01	1111.8
1592.31	1134.06
1593.62	1139.62
1594.93	1158.58
1596.23	1177.65
1597.54	1177.46
1598.85	1187.64
1600.15	1191.71
1601.46	1240.84
1602.77	1200.63
1604.07	1199.56
1605.38	1211.43
1606.69	1186.27
1607.99	1208.39
1609.3	1189.84
1610.61	1193.32
1611.91	1180.83
1613.22	1161.52
1614.53	1154.5
1615.83	1158.99
1617.14	1130.83
1618.45	1099.96
1619.75	1078.03
1621.06	1042.6
1622.37	1047.92
1623.67	987.376
1624.98	986.002
1626.29	942.86
1627.59	923.605
1628.9	881.424
1630.21	863.009
1631.51	835.079
1632.82	776.838
1634.13	756.471
1635.43	718.411
1636.74	701.632
1638.05	681.638
1639.35	659.925
1640.66	626.246
1641.97	614.819
1643.27	599.458
1644.58	569.845
1645.89	552.438
1647.19	521.262
1648.5	506.776
1649.81	485.487
1651.11	481.438
1652.42	459.672
1653.73	425.75
1655.03	406.126
1656.34	400.06
1657.65	392.393
1658.95	380.472
1660.26	361.528
1661.57	359.437
1662.87	338.347
1664.18	315.964
1665.49	315.836
1666.79	303.335
1668.1	287.275
1669.41	288.528
1670.71	297.909
1672.02	245.33
1673.33	259.857
1674.63	247.806
1675.94	244.629
1677.25	231.732
1678.55	215.764
1679.86	214.824
1681.17	200.969
1682.47	194.496
1683.78	191.123
1685.09	189.843
1686.4	196.658
1687.7	180.658
1689.01	190.806
1690.32	174.035
1691.62	161.663
1692.93	161.484
1694.24	161.701
1695.54	150.849
1696.85	147.846
1698.16	150.226
1699.46	151.208
1700.77	146.845
1702.08	145.431
1703.38	141.557
1704.69	139.447
1706	131.586
1707.3	131.836
1708.61	123.511
1709.92	133.404
1711.22	125.731
1712.53	125.899
1713.84	119.042
1715.14	119.333
1716.45	115.933
1717.76	112.691
1719.06	122.624
1720.37	113.192
1721.68	103.402
1722.98	111.102
1724.29	107.044
1725.6	109.965
1726.9	104.374
1728.21	107.604
1729.52	109.597
1730.82	115.834
1732.13	106.29
1733.44	101.913
1734.74	98.4546
1736.05	96.3227
1737.36	97.6777
1738.66	96.8365
1739.97	98.7394
1741.28	99.1304
1742.58	97.1047
1743.89	97.2358
1745.2	97.2694
1746.5	90.6174
1747.81	94.6881
1749.12	94.1426
1750.42	102.401
1751.73	86.6818
1753.04	92.3113
1754.34	92.6172
1755.65	93.2833
1756.96	91.7
1758.26	88.1504
1759.57	90.2652
1760.88	87.2939
1762.18	84.9987
1763.49	91.2706
1764.8	86.9572
1766.1	95.1228
1767.41	91.1957
1768.72	87.9479
1770.02	86.2411
1771.33	96.3934
1772.64	86.5898
1773.94	87.1763
1775.25	94.6563
1776.56	92.6357
1777.86	90.784
1779.17	89.5943
1780.48	88.2456
1781.78	90.0859
1783.09	84.8302
1784.4	92.0524
1785.7	81.6072
1787.01	89.7147
1788.32	85.1538
1789.62	85.2443
1790.93	93.5242
1792.24	89.7538
1793.54	86.7967
1794.85	85.3193
1796.16	88.5491
1797.46	85.742
1798.77	85
1800.08	91.6619
1801.38	85.8636
1802.69	84.6592
1804	87.3103
1805.3	90.2249
1806.61	88.3767
1807.92	85.0249
1809.22	85.139
1810.53	85.3484
1811.84	85.2446
1813.14	91.0475
1814.45	85.7414
1815.76	95.7988
1817.06	87.2374
1818.37	89.1744
1819.68	80.6667
1820.98	83.7201
1822.29	91.3987
1823.6	87.2009
1824.9	84.0296
1826.21	92.2086
1827.52	83.7866
1828.82	87.3452
1830.13	82.9498
1831.44	85.6411
1832.74	90.7827
1834.05	83.132
1835.36	78.3305
1836.66	82.3333
1837.97	83.037
1839.28	82.4736
1840.58	78.419
1841.89	81.4429
1843.2	82.3838
1844.5	88.0043
1845.81	85.8516
1847.12	89.5575
1848.42	85.214
1849.73	75.8178
1851.04	74.9028
1852.34	82.0468
1853.65	76.8381
1854.96	83.6673
1856.26	77.079
1857.57	82.4577
1858.88	80.9019
1860.18	84.2732
1861.49	80.4523
1862.8	89.5792
1864.1	81.2188
1865.41	85.2007
1866.72	85.2013
1868.02	84.1083
1869.33	79.5588
1870.64	83.9244
1871.94	85.3333
1873.25	83.9463
1874.56	83.3585
1875.86	80.0328
1877.17	82.1811
1878.48	82.5929
1879.78	79.7107
1881.09	81.9657
1882.4	81.7755
1883.7	83.7165
1885.01	82.4401
1886.32	83.9524
1887.62	89.236
1888.93	88.4154
1890.24	88.2873
1891.54	86.2568
1892.85	80.9248
1894.16	85.4411
1895.47	84.3436
1896.77	86.7118
1898.08	84.5401
1899.39	89.1354
1900.69	87.5332
1902	78.479
1903.31	77.9898
1904.61	75.5375
1905.92	80.3993
1907.23	80.6667
1908.53	80.1434
1909.84	82.4401
1911.15	81.5453
1912.45	88.2725
1913.76	91.0982
1915.07	81.542
1916.37	85.8973
1917.68	85.5952
1918.99	81.3605
1920.29	82.4407
1921.6	80.8736
1922.91	80.1877
1924.21	81.0175
1925.52	83.3601
1926.83	81.1372
1928.13	79.4521
1929.44	79.6606
1930.75	89.9724
1932.05	88.5564
1933.36	85.5745
1934.67	88.3959
1935.97	80.5997
1937.28	77.2455
1938.59	82.2652
1939.89	79.218
1941.2	80.6982
1942.51	84.0127
1943.81	87.4356
1945.12	83.2262
1946.43	85.1246
1947.73	82.9982
1949.04	83.0984
1950.35	83.2496
1951.65	82.2432
1952.96	78.9934
1954.27	81.4638
1955.57	80.6816
1956.88	79.7978
1958.19	75.2099
1959.49	82.0278
1960.8	86.7186
1962.11	86.5501
1963.41	82.5469
1964.72	80.2372
1966.03	77.8806
1967.33	78.0008
1968.64	80.6667
1969.95	81.384
1971.25	83.8924
1972.56	82.2308
1973.87	85.0031
1975.17	82.9607
1976.48	83.9475
1977.79	83.3173
1979.09	81.3764
1980.4	78.9982
1981.71	86.5256
1983.01	88.6397
1984.32	89.3349
1985.63	83.9122
1986.93	83.0529
1988.24	84.1619
1989.55	90.3064
1990.85	84.2674
1992.16	84.8365
1993.47	90.0681
1994.77	85.6021
1996.08	83.9833
1997.39	87.5242
1998.69	83.2093
2000	79.5772