File: Example Data/Raman/CNT - TIM/Raytheon/Al foil/2010/04-20-10/R2 - 25 microns - sideA.txt
300	107.481
301.307	117.136
302.613	114.274
303.92	108.548
305.227	110.974
306.533	115.101
307.84	110.721
309.147	115.554
310.453	110.197
311.76	114.755
313.067	125.285
314.374	117.95
315.68	111.445
316.987	111.75
318.294	110.651
319.6	111.937
320.907	104.96
322.214	109.721
323.52	108.036
324.827	112.574
326.134	106.569
327.44	106.712
328.747	111.139
330.054	111.855
331.361	112.377
332.667	109.256
333.974	102.691
335.281	106.234
336.587	104.042
337.894	107.198
339.201	109.385
340.507	113.135
341.814	113.188
343.121	106.667
344.427	106.881
345.734	107.656
347.041	102.277
348.347	103.984
349.654	103.337
350.961	103
352.267	108.409
353.574	106.431
354.881	102.245
356.188	110.977
357.494	111.351
358.801	106.634
360.108	94.6647
361.414	104.64
362.721	103.155
364.028	107.238
365.334	103.07
366.641	98.502
367.948	106.416
369.254	112.005
370.561	96.3185
371.868	88.465
373.174	98.6678
374.481	90.2038
375.788	96.7609
377.095	96.6699
378.401	96.3758
379.708	98.4701
381.015	96.8042
382.321	93.3004
383.628	95.0363
384.935	90.0644
386.241	95.1732
387.548	96.7512
388.855	92.9486
390.161	92.5653
391.468	98.5082
392.775	102.635
394.081	99.2093
395.388	95.4101
396.695	98.8029
398.002	88.2852
399.308	97.9015
400.615	92.0178
401.922	93.6034
403.228	95.3031
404.535	95.8464
405.842	97.6211
407.148	97.4823
408.455	95.3223
409.762	99.0974
411.068	86.6854
412.375	86.9864
413.682	95.0576
414.988	96.8451
416.295	94.5354
417.602	94.1013
418.909	94.9867
420.215	95.205
421.522	95.8699
422.829	97.6098
424.135	95.1974
425.442	88.0133
426.749	90.1262
428.055	95.2345
429.362	99.4648
430.669	97.943
431.975	96.8679
433.282	100.418
434.589	103.871
435.895	101.395
437.202	96.56
438.509	96
439.816	96
441.122	94.2393
442.429	106.074
443.736	104.239
445.042	91.165
446.349	86.3806
447.656	90.3402
448.962	95.4928
450.269	99.4619
451.576	92.765
452.882	89.3676
454.189	89.9731
455.496	94.6292
456.802	96.8863
458.109	93.4457
459.416	90.0793
460.723	87.8237
462.029	91.2174
463.336	93.5669
464.643	88.8875
465.949	98.7921
467.256	81.9154
468.563	86.1665
469.869	90.7038
471.176	95.5147
472.483	87.6312
473.789	86.6992
475.096	88.4942
476.403	86.1914
477.709	82.9936
479.016	83.7545
480.323	87.4577
481.63	84.8141
482.936	86.6389
484.243	88.1644
485.55	86.1731
486.856	87.3527
488.163	88.2118
489.47	85.4079
490.776	85.3051
492.083	85.7588
493.39	84.4869
494.696	89.7979
496.003	85.4199
497.31	78.4823
498.616	83.3497
499.923	76.2604
501.23	86.5315
502.536	91.1385
503.843	89.874
505.15	83.2037
506.457	79.4229
507.763	84.6367
509.07	88.0907
510.377	79.6094
511.683	79.9427
512.99	86.3415
514.297	89.3931
515.603	82.1645
516.91	76.9199
518.217	79.2146
519.523	81.1938
520.83	83.6547
522.137	83.7903
523.443	83.651
524.75	88.0951
526.057	82.619
527.364	79.381
528.67	83.66
529.977	80.6101
531.284	79.499
532.59	75.3245
533.897	81.3708
535.204	82.8435
536.51	81.3333
537.817	81.6162
539.124	82.572
540.43	82.0989
541.737	79.5845
543.044	88.3002
544.351	87.779
545.657	76.4331
546.964	78.8082
548.271	79.0744
549.577	82.0167
550.884	86.8252
552.191	85.9622
553.497	83.3333
554.804	84.8394
556.111	84.0701
557.417	77.5676
558.724	82.463
560.031	85.3136
561.337	85.0065
562.644	78.0824
563.951	86.6601
565.258	90.6524
566.564	89.5554
567.871	81.992
569.178	79.8861
570.484	82.0451
571.791	82.6131
573.098	86.7399
574.404	92.0641
575.711	86.7276
577.018	75.5666
578.324	80.1829
579.631	94.0113
580.938	85.8816
582.244	85.6376
583.551	79.9252
584.858	79.6009
586.164	87.4569
587.471	86.6186
588.778	81.0889
590.085	87.3247
591.391	90.2491
592.698	88.3526
594.005	86.135
595.311	83.0517
596.618	81.484
597.925	92.743
599.231	86.3837
600.538	88.4671
601.845	89.2379
603.151	81.3308
604.458	84.4698
605.765	91.6145
607.071	83.3721
608.378	77.8152
609.685	79.8773
610.992	77.5689
612.298	76.804
613.605	81.7471
614.912	86.1047
616.218	87.7438
617.525	83.8327
618.832	79.0148
620.138	84.0395
621.445	86.9329
622.752	84.5857
624.058	84.6721
625.365	87.1493
626.672	86.8111
627.978	79.9945
629.285	81.8208
630.592	83.3857
631.899	85.5557
633.205	83.6101
634.512	86.8501
635.819	94.8392
637.125	91.9605
638.432	92.7439
639.739	87.7194
641.045	83.8064
642.352	90.3463
643.659	93.8357
644.965	87.6266
646.272	83.1668
647.579	86.1281
648.885	91.7451
650.192	87.0855
651.499	93.0912
652.806	103.816
654.112	93.9958
655.419	87.3509
656.726	92.4312
658.032	95.6161
659.339	91.6027
660.646	91.681
661.952	95.7086
663.259	93.6396
664.566	91.7358
665.872	92.8833
667.179	91.7889
668.486	87.8463
669.792	98.7421
671.099	96.2641
672.406	95.1538
673.713	97.0814
675.019	93.3705
676.326	93.6198
677.633	100.329
678.939	96.0025
680.246	91.5278
681.553	93.3719
682.859	91.7528
684.166	94.5789
685.473	94.7333
686.779	96.8308
688.086	98.95
689.393	85.4549
690.699	98.248
692.006	96.9409
693.313	101.308
694.62	103.594
695.926	96.1394
697.233	91.6146
698.54	90.2417
699.846	94.3938
701.153	97.3707
702.46	92.6577
703.766	90.2595
705.073	96.1504
706.38	100.082
707.686	94.4073
708.993	91.7813
710.3	105.235
711.606	98.6572
712.913	91.1856
714.22	92.5556
715.526	93.5149
716.833	93.4293
718.14	95.7255
719.447	96.6048
720.753	93.3108
722.06	92.721
723.367	95
724.673	97.7283
725.98	102.271
727.287	99.9128
728.593	94.3832
729.9	91.2363
731.207	100.599
732.513	104.628
733.82	92.6972
735.127	102.956
736.434	99.6262
737.74	103.047
739.047	92.1706
740.354	93.4754
741.66	98.2688
742.967	99.3333
744.274	102.42
745.58	107.823
746.887	105.922
748.194	95.9861
749.5	96.0319
750.807	107.162
752.114	102.717
753.42	103.378
754.727	106.534
756.034	95.5179
757.341	99.6666
758.647	91.548
759.954	99.3444
761.261	96.743
762.567	102.673
763.874	106.322
765.181	103.86
766.487	100.173
767.794	98.0077
769.101	97.0397
770.407	97.0537
771.714	100.667
773.021	106.199
774.327	104.773
775.634	102.779
776.941	98.0583
778.247	105.667
779.554	105.706
780.861	107.918
782.168	117.134
783.474	95.9115
784.781	112.289
786.088	112.453
787.394	106.996
788.701	102.055
790.008	104.561
791.314	109.176
792.621	102.8
793.928	103.734
795.234	113.53
796.541	111.397
797.848	107.457
799.154	102.752
800.461	103.529
801.768	103.846
803.075	115.658
804.381	112.4
805.688	107.682
806.995	111.169
808.301	113.75
809.608	110.852
810.915	104.122
812.221	109.268
813.528	113.949
814.835	112.118
816.141	106.753
817.448	105.855
818.755	108.568
820.061	111.901
821.368	112.43
822.675	111.987
823.982	111.768
825.288	107.151
826.595	111.048
827.902	113.032
829.208	110.062
830.515	121.222
831.822	100.581
833.128	109.996
834.435	109.678
835.742	104.14
837.048	108.634
838.355	109.056
839.662	110.835
840.969	111.58
842.275	105.857
843.582	110.956
844.889	106.679
846.195	109.052
847.502	117.259
848.809	114.24
850.115	108.956
851.422	111.938
852.729	112.522
854.035	110.781
855.342	121.492
856.649	120.198
857.955	117.628
859.262	118.642
860.569	115.656
861.875	108.949
863.182	108.015
864.489	109.612
865.796	119.542
867.102	113.257
868.409	110.365
869.716	113.745
871.022	111.62
872.329	115.232
873.636	107.703
874.942	106.106
876.249	108.866
877.556	103.141
878.862	110.309
880.169	120.064
881.476	115.392
882.782	107.517
884.089	100.971
885.396	103.575
886.703	105.773
888.009	97.3668
889.316	105.699
890.623	102.057
891.929	103.646
893.236	111.863
894.543	106.776
895.849	97.5673
897.156	110.411
898.463	105.638
899.769	105.635
901.076	108.274
902.383	107.279
903.689	118.138
904.996	104.799
906.303	105.457
907.61	107.209
908.916	110.908
910.223	106.438
911.53	101.754
912.836	102.422
914.143	101.976
915.45	98.7725
916.756	98.7152
918.063	96.4787
919.37	95.8748
920.676	106.329
921.983	102.394
923.29	95.2661
924.596	94.3535
925.903	100.734
927.21	100.22
928.517	102.956
929.823	102.667
931.13	102.755
932.437	103.966
933.743	103
935.05	102.677
936.357	95.1788
937.663	106.415
938.97	96.0464
940.277	92.6543
941.583	99.8711
942.89	97.2699
944.197	102.451
945.503	96.3381
946.81	103.7
948.117	108.884
949.424	103.62
950.73	98.5612
952.037	98.4545
953.344	96.86
954.65	92.3355
955.957	96.8915
957.264	103.492
958.57	102.137
959.877	98.641
961.184	99.2411
962.49	107.887
963.797	102.238
965.104	108.036
966.41	113.983
967.717	113.539
969.024	109.269
970.331	112.951
971.637	102.251
972.944	105.614
974.251	98.4414
975.557	91.1577
976.864	94.8355
978.171	104.881
979.477	100.51
980.784	106.261
982.091	110.003
983.397	105.038
984.704	100.907
986.011	100.887
987.317	103.685
988.624	109.014
989.931	103.539
991.237	107.893
992.544	108.692
993.851	110.489
995.158	105.126
996.464	102.926
997.771	104.474
999.078	105.581
1000.38	104.143
1001.69	105.687
1003	111.223
1004.3	111.078
1005.61	112.172
1006.92	113.919
1008.22	112.919
1009.53	115.162
1010.84	113.572
1012.14	116.133
1013.45	114.82
1014.76	112.871
1016.06	117.16
1017.37	116.035
1018.68	122.709
1019.98	119.231
1021.29	118.849
1022.6	122.848
1023.9	119.206
1025.21	120.02
1026.52	118.678
1027.82	123.347
1029.13	117.169
1030.44	119.263
1031.74	117.913
1033.05	115.378
1034.36	118.643
1035.66	126.786
1036.97	117.444
1038.28	121.679
1039.58	118.636
1040.89	119.532
1042.2	133.745
1043.51	135.379
1044.81	128.581
1046.12	132.567
1047.43	131.513
1048.73	136.004
1050.04	130.376
1051.35	132.113
1052.65	127.914
1053.96	132.019
1055.27	131.275
1056.57	135.284
1057.88	135.199
1059.19	136.842
1060.49	136.202
1061.8	131.046
1063.11	137.397
1064.41	131.921
1065.72	132.619
1067.03	136.228
1068.33	136.889
1069.64	144.503
1070.95	143.466
1072.25	143.877
1073.56	145.911
1074.87	143.585
1076.17	148.869
1077.48	152.851
1078.79	150.06
1080.09	146.947
1081.4	141.094
1082.71	134.363
1084.01	142.068
1085.32	141.539
1086.63	134.918
1087.93	142.822
1089.24	139.331
1090.55	141.733
1091.85	145.747
1093.16	151.148
1094.47	152.861
1095.77	149.883
1097.08	153.388
1098.39	151.499
1099.69	149.555
1101	145.691
1102.31	145.149
1103.61	141.286
1104.92	163.47
1106.23	160.23
1107.53	169.374
1108.84	153.822
1110.15	151.871
1111.45	155.275
1112.76	157.672
1114.07	152.379
1115.37	157.458
1116.68	161.406
1117.99	165.481
1119.29	154.641
1120.6	168.87
1121.91	163.937
1123.21	158.714
1124.52	149.124
1125.83	172.5
1127.13	164.796
1128.44	163.96
1129.75	166.494
1131.05	170.838
1132.36	172.236
1133.67	177.387
1134.97	158.672
1136.28	162.345
1137.59	156.492
1138.89	173.291
1140.2	188.384
1141.51	179.112
1142.81	170.739
1144.12	176.81
1145.43	179.602
1146.73	177.342
1148.04	172.078
1149.35	179.683
1150.65	172.307
1151.96	192.657
1153.27	179.81
1154.57	185.532
1155.88	193.445
1157.19	180.922
1158.49	183.083
1159.8	202.3
1161.11	195.778
1162.41	189.808
1163.72	193.892
1165.03	201.883
1166.33	195.596
1167.64	198.689
1168.95	196.474
1170.25	193.339
1171.56	216.095
1172.87	196.088
1174.17	201.204
1175.48	201.22
1176.79	194.133
1178.09	198.348
1179.4	196.756
1180.71	202.829
1182.01	193.896
1183.32	206.617
1184.63	198.899
1185.93	197.483
1187.24	196.413
1188.55	204.097
1189.85	216.392
1191.16	213.173
1192.47	198.331
1193.77	218.316
1195.08	203.116
1196.39	211.036
1197.69	212.61
1199	214.523
1200.31	213.399
1201.61	211.757
1202.92	207.963
1204.23	214.943
1205.53	209.803
1206.84	222.423
1208.15	236.79
1209.45	229.024
1210.76	222.952
1212.07	226.93
1213.37	229.588
1214.68	226.176
1215.99	223.799
1217.29	232.596
1218.6	221.588
1219.91	239.303
1221.21	237.79
1222.52	229.035
1223.83	227.38
1225.13	229.534
1226.44	245.085
1227.75	239.766
1229.05	230.079
1230.36	237.692
1231.67	239.228
1232.97	249.045
1234.28	238.645
1235.59	244.796
1236.89	252.224
1238.2	247.957
1239.51	251.239
1240.81	262.978
1242.12	271.34
1243.43	268.751
1244.73	266.453
1246.04	269.05
1247.35	280.006
1248.65	279.775
1249.96	268.016
1251.27	271.25
1252.57	276.866
1253.88	286.494
1255.19	278.171
1256.49	284.958
1257.8	294.577
1259.11	305.297
1260.42	304.181
1261.72	298.192
1263.03	296.358
1264.34	306.835
1265.64	311.277
1266.95	312.464
1268.26	313.391
1269.56	320.133
1270.87	316.787
1272.18	319.776
1273.48	330.847
1274.79	338.294
1276.1	336.785
1277.4	338.8
1278.71	343.097
1280.02	341.353
1281.32	347.53
1282.63	348.863
1283.94	356.741
1285.24	368.352
1286.55	372.266
1287.86	374.927
1289.16	378.638
1290.47	380.56
1291.78	384.424
1293.08	389.472
1294.39	401.386
1295.7	390.251
1297	400.573
1298.31	416.2
1299.62	419.621
1300.92	428.034
1302.23	429.331
1303.54	439.197
1304.84	446.343
1306.15	442.003
1307.46	463.737
1308.76	460.44
1310.07	477.488
1311.38	477.477
1312.68	489.791
1313.99	506.34
1315.3	499.389
1316.6	495.423
1317.91	521.139
1319.22	522.61
1320.52	533.437
1321.83	555.484
1323.14	544.359
1324.44	539.516
1325.75	534.637
1327.06	555.939
1328.36	564.861
1329.67	562.016
1330.98	588.548
1332.28	587.638
1333.59	598.734
1334.9	597.06
1336.2	598.045
1337.51	602.124
1338.82	607.458
1340.12	609.885
1341.43	604.934
1342.74	596.022
1344.04	601.792
1345.35	605.002
1346.66	599.812
1347.96	608.733
1349.27	599.807
1350.58	605.741
1351.88	593.872
1353.19	584.347
1354.5	593.066
1355.8	578.81
1357.11	581.017
1358.42	568.777
1359.72	571.616
1361.03	558.833
1362.34	549.558
1363.64	541.208
1364.95	540.389
1366.26	546.609
1367.56	532.392
1368.87	524.465
1370.18	508.69
1371.48	511.048
1372.79	507.501
1374.1	506.091
1375.4	492.335
1376.71	479.667
1378.02	485.067
1379.32	479.607
1380.63	476.428
1381.94	463.348
1383.24	449.237
1384.55	446.469
1385.86	440.618
1387.16	443.253
1388.47	434.48
1389.78	425.504
1391.08	422.245
1392.39	422.42
1393.7	423.013
1395	417.796
1396.31	410.429
1397.62	411.275
1398.92	399.669
1400.23	390.048
1401.54	397.266
1402.84	399.969
1404.15	389.463
1405.46	376.394
1406.76	372.077
1408.07	371.426
1409.38	371.162
1410.68	369.934
1411.99	375.882
1413.3	358.829
1414.6	358.512
1415.91	352.015
1417.22	353.707
1418.52	347.987
1419.83	347.706
1421.14	352.187
1422.44	349.161
1423.75	349.052
1425.06	331.483
1426.36	347.294
1427.67	335.322
1428.98	342.845
1430.28	331.466
1431.59	332.341
1432.9	323.534
1434.2	331.648
1435.51	326.14
1436.82	332.956
1438.12	326.63
1439.43	331.546
1440.74	331.123
1442.04	313.483
1443.35	306.783
1444.66	314
1445.96	336.956
1447.27	331.097
1448.58	323.869
1449.88	327.221
1451.19	315.387
1452.5	311.213
1453.8	306.117
1455.11	315.524
1456.42	314.701
1457.72	323.805
1459.03	314.196
1460.34	315.598
1461.64	304.456
1462.95	311.339
1464.26	319.722
1465.56	308.572
1466.87	311.867
1468.18	323.285
1469.48	318.03
1470.79	317.551
1472.1	311.545
1473.41	318.677
1474.71	326.598
1476.02	320.426
1477.33	310.787
1478.63	317.91
1479.94	319.944
1481.25	315.689
1482.55	317.325
1483.86	306.321
1485.17	309.825
1486.47	324.269
1487.78	310.102
1489.09	314.863
1490.39	323.827
1491.7	317.565
1493.01	323.803
1494.31	323.002
1495.62	312.903
1496.93	310.204
1498.23	312.661
1499.54	322.124
1500.85	330.075
1502.15	330.534
1503.46	345.551
1504.77	324.448
1506.07	335.749
1507.38	322.569
1508.69	319.423
1509.99	335.62
1511.3	327.204
1512.61	318.435
1513.91	324.061
1515.22	334.184
1516.53	331.435
1517.83	327.802
1519.14	341.897
1520.45	337.307
1521.75	336.717
1523.06	339.415
1524.37	342.894
1525.67	346.612
1526.98	351.083
1528.29	348.798
1529.59	346.423
1530.9	350.123
1532.21	344.069
1533.51	347.502
1534.82	359.607
1536.13	363.765
1537.43	376.443
1538.74	362.305
1540.05	373.506
1541.35	373.38
1542.66	389.804
1543.97	373.63
1545.27	394.243
1546.58	415.354
1547.89	403.424
1549.19	400.684
1550.5	418.2
1551.81	418.829
1553.11	434.394
1554.42	441.625
1555.73	443.993
1557.03	449.291
1558.34	455.127
1559.65	466.253
1560.95	477.673
1562.26	479.113
1563.57	479.194
1564.87	483.709
1566.18	502.076
1567.49	498.129
1568.79	506.625
1570.1	542.771
1571.41	518.012
1572.71	532.648
1574.02	548.01
1575.33	543.901
1576.63	549.302
1577.94	575.73
1579.25	577.731
1580.55	565.032
1581.86	593.277
1583.17	592.196
1584.47	581.834
1585.78	577.025
1587.09	582.011
1588.39	586.903
1589.7	598.845
1591.01	591.766
1592.31	584.31
1593.62	596.688
1594.93	580.6
1596.23	579.291
1597.54	582.55
1598.85	579.76
1600.15	593.788
1601.46	603.884
1602.77	570.258
1604.07	581.589
1605.38	557.417
1606.69	546.455
1607.99	540.502
1609.3	526.749
1610.61	527.334
1611.91	531.107
1613.22	512.82
1614.53	493.613
1615.83	479.808
1617.14	473.352
1618.45	462.271
1619.75	441.684
1621.06	421.618
1622.37	415.604
1623.67	415.182
1624.98	399.41
1626.29	384.736
1627.59	375.106
1628.9	354.074
1630.21	351.738
1631.51	332.649
1632.82	332.017
1634.13	316.536
1635.43	301.84
1636.74	303.082
1638.05	300.133
1639.35	291.526
1640.66	281.5
1641.97	258.419
1643.27	252.339
1644.58	256.224
1645.89	244.664
1647.19	236.553
1648.5	241.195
1649.81	224.588
1651.11	221.762
1652.42	204.43
1653.73	198.402
1655.03	197.469
1656.34	195.553
1657.65	185.047
1658.95	193.17
1660.26	186.238
1661.57	169.166
1662.87	169.202
1664.18	170.052
1665.49	171.836
1666.79	160.724
1668.1	161.607
1669.41	161.364
1670.71	147.653
1672.02	146.993
1673.33	149.507
1674.63	137.76
1675.94	133.162
1677.25	143.33
1678.55	135.755
1679.86	127.783
1681.17	125.889
1682.47	129.621
1683.78	125.126
1685.09	125.213
1686.4	124.313
1687.7	117.918
1689.01	121.674
1690.32	110.649
1691.62	104.451
1692.93	115.145
1694.24	119.322
1695.54	111.793
1696.85	118.631
1698.16	107.778
1699.46	108.798
1700.77	107.061
1702.08	106.137
1703.38	106.945
1704.69	104.239
1706	95.1022
1707.3	94.1128
1708.61	98.9586
1709.92	97.2009
1711.22	97
1712.53	92.7061
1713.84	93.7532
1715.14	96.7955
1716.45	95.1538
1717.76	92.7269
1719.06	98.3491
1720.37	92.2311
1721.68	91.5097
1722.98	95.6049
1724.29	88.3967
1725.6	92.2254
1726.9	86.9134
1728.21	85
1729.52	83.7368
1730.82	94.28
1732.13	92.0584
1733.44	99.5616
1734.74	97.4092
1736.05	90.6074
1737.36	88.1947
1738.66	87.7614
1739.97	85.6742
1741.28	86.1941
1742.58	80.4512
1743.89	90.6364
1745.2	87.9532
1746.5	80.1977
1747.81	79.3333
1749.12	82.1474
1750.42	92.1298
1751.73	91.0685
1753.04	95.5771
1754.34	88.8285
1755.65	82.5546
1756.96	81.7286
1758.26	81.641
1759.57	80.5871
1760.88	80.3629
1762.18	83.5862
1763.49	82.6824
1764.8	84.7373
1766.1	73.9318
1767.41	74.5677
1768.72	86.0993
1770.02	91.776
1771.33	86.009
1772.64	85.0079
1773.94	79.9297
1775.25	85.4923
1776.56	88.1183
1777.86	88.1266
1779.17	81.5806
1780.48	80.4824
1781.78	86.0303
1783.09	74.6894
1784.4	83.2337
1785.7	80.8238
1787.01	77.7458
1788.32	80.2809
1789.62	79.2716
1790.93	76.7276
1792.24	78.5654
1793.54	81.5475
1794.85	83.4116
1796.16	80.1316
1797.46	80.1743
1798.77	84.6277
1800.08	81.6585
1801.38	71.9182
1802.69	71.869
1804	74.9492
1805.3	72.5096
1806.61	77.0097
1807.92	81.5753
1809.22	77.3603
1810.53	76.5463
1811.84	78.3548
1813.14	84.2584
1814.45	76.6776
1815.76	81.8842
1817.06	80.1487
1818.37	73.761
1819.68	77.8306
1820.98	73.7201
1822.29	77.0041
1823.6	76.9937
1824.9	82.144
1826.21	81.5648
1827.52	78.1396
1828.82	76.4515
1830.13	78.4509
1831.44	76.3513
1832.74	80.88
1834.05	72.7042
1835.36	78.6652
1836.66	76.8587
1837.97	70.3184
1839.28	76.9243
1840.58	77.4336
1841.89	74.3333
1843.2	87.1616
1844.5	78.9913
1845.81	71.6476
1847.12	78.623
1848.42	78.0529
1849.73	80.4822
1851.04	71.0548
1852.34	74.8479
1853.65	72.1886
1854.96	70.9638
1856.26	75.6127
1857.57	77
1858.88	81.435
1860.18	76.1913
1861.49	74.3909
1862.8	78.2118
1864.1	70.0011
1865.41	77.0944
1866.72	79.7026
1868.02	80.1006
1869.33	76.7418
1870.64	73.6627
1871.94	76.8416
1873.25	68.403
1874.56	84.5132
1875.86	73.8688
1877.17	67.6296
1878.48	79.4565
1879.78	78.3507
1881.09	81.8006
1882.4	72.4997
1883.7	73.935
1885.01	80.3574
1886.32	76.0318
1887.62	81.0442
1888.93	72.826
1890.24	71.5944
1891.54	75.8299
1892.85	71.3403
1894.16	79.0076
1895.47	77.9949
1896.77	76.3758
1898.08	73.8725
1899.39	77.8063
1900.69	79.0631
1902	74.4686
1903.31	75.3299
1904.61	74.6357
1905.92	76.4093
1907.23	74.9246
1908.53	78.3712
1909.84	76.3144
1911.15	81.0622
1912.45	76.3479
1913.76	65.9419
1915.07	75.4794
1916.37	76.3454
1917.68	79.3158
1918.99	74.5522
1920.29	72.3982
1921.6	77.3907
1922.91	78.2296
1924.21	75.8948
1925.52	71.9332
1926.83	72.1551
1928.13	72.9604
1929.44	72.6727
1930.75	70.3033
1932.05	73.4199
1933.36	76.3399
1934.67	81.9419
1935.97	77.4484
1937.28	75.461
1938.59	72.7959
1939.89	67.6867
1941.2	69.0315
1942.51	74.9915
1943.81	72.4392
1945.12	74.942
1946.43	78.5994
1947.73	76.8094
1949.04	78.1928
1950.35	82.2929
1951.65	76.9375
1952.96	74.4466
1954.27	67.4667
1955.57	75.5121
1956.88	77.4799
1958.19	70.5698
1959.49	80.1572
1960.8	77.5758
1962.11	73.0807
1963.41	73.8387
1964.72	69.8309
1966.03	80.2407
1967.33	74.6662
1968.64	72.9282
1969.95	70.827
1971.25	68.2392
1972.56	73.6154
1973.87	77.1568
1975.17	81
1976.48	75.2083
1977.79	76.7894
1979.09	69.5399
1980.4	82.6676
1981.71	79.5767
1983.01	79.1863
1984.32	73.6268
1985.63	77.6098
1986.93	77.8941
1988.24	74.9334
1989.55	69.7824
1990.85	76.0659
1992.16	71.9623
1993.47	78.5484
1994.77	73.2688
1996.08	77.1167
1997.39	78.7797
1998.69	74.4229
2000	67.701