File: Example Data/Raman/CNT - TIM/Raytheon/Al foil/2010/11-22-10/Al - B22b - top.txt
100	69.0889
102.25	40.2383
104.5	57.1881
106.749	138.572
108.999	66.5669
111.249	39.0229
113.499	41.8115
115.748	64.2046
117.998	51.5032
120.248	42.0133
122.498	73.1768
124.747	52.8284
126.997	37.6114
129.247	46.0052
131.497	44.7253
133.746	19.31
135.996	29.3009
138.246	46.1374
140.496	42.4091
142.745	24.4981
144.995	23.4696
147.245	18.2917
149.495	8.72589
151.744	6.78977
153.994	22.1953
156.244	13.7721
158.494	8.34798
160.743	0.199151
162.993	7.45705
165.243	3.23425
167.493	7.89485
169.742	10.865
171.992	-2.09895
174.242	4.98503
176.492	0.97498
178.741	3.43631
180.991	2.13392
183.241	3.84157
185.491	1.39983
187.74	-4.0398
189.99	6.26089
192.24	-0.584335
194.49	12.9369
196.739	-1.32051
198.989	10.0627
201.239	5.59612
203.489	3.70256
205.739	-1.40539
207.988	-10.4911
210.238	-6.0281
212.488	3.07887
214.738	7.80759
216.987	1.90355
219.237	-2.68951
221.487	-3.47939
223.737	-5.33923
225.986	-1.60081
228.236	-1.0841
230.486	-3.56789
232.736	8.47025
234.985	3.21008
237.235	7.7075
239.485	13.7147
241.735	0.0236757
243.984	-4.37756
246.234	6.82505
248.484	1.68517
250.734	3.94958
252.983	0.344014
255.233	-4.23415
257.483	4.78705
259.733	5.79375
261.982	4.08011
264.232	5.91347
266.482	6.83785
268.732	1.5504
270.981	4.47674
273.231	-0.143065
275.481	9.34335
277.731	-5.97514
279.98	-6.93673
282.23	1.34801
284.48	-0.237705
286.73	6.26645
288.979	1.69442
291.229	-2.28823
293.479	-11.9739
295.729	12.073
297.978	2.90268
300.228	3.19444
302.478	-5.54454
304.728	3.42436
306.978	-3.90295
309.227	1.98219
311.477	7.49747
313.727	4.356
315.977	2.88388
318.226	-7.24502
320.476	-7.11341
322.726	1.76587
324.976	5.13366
327.225	4.58829
329.475	-3.67369
331.725	-2.13687
333.975	-4.97986
336.224	0.712983
338.474	-7.15735
340.724	7.60781
342.974	-3.75481
345.223	-1.43268
347.473	-1.82045
349.723	-2.85382
351.973	1.5382
354.222	-7.48704
356.472	-1.27533
358.722	-5.15316
360.972	3.49528
363.221	-9.31437
365.471	-0.243269
367.721	2.7321
369.971	-1.49588
372.22	-2.59179
374.47	-2.78943
376.72	-3.73733
378.97	4.28785
381.219	-5.0452
383.469	-7.72533
385.719	-1.85949
387.969	1.00888
390.218	-3.08527
392.468	7.06853
394.718	7.05197
396.968	-5.52213
399.217	-0.378011
401.467	2.55308
403.717	-0.419461
405.967	0.637684
408.216	0.447583
410.466	1.46729
412.716	2.55079
414.966	9.59469
417.216	-3.30395
419.465	2.81854
421.715	-2.82995
423.965	3.55211
426.215	-0.218482
428.464	8.19268
430.714	7.80068
432.964	8.55639
435.214	15.5408
437.463	11.2192
439.713	2.57327
441.963	5.52805
444.213	6.47179
446.462	12.6942
448.712	13.5096
450.962	10.9317
453.212	5.76481
455.461	12.9165
457.711	11.0243
459.961	5.74674
462.211	5.7424
464.46	7.80502
466.71	-2.73703
468.96	7.56588
471.21	-1.37993
473.459	0.228497
475.709	1.28667
477.959	4.64091
480.209	2.30244
482.458	2.62989
484.708	0.0318333
486.958	-3.55981
489.208	-2.4255
491.457	-0.567865
493.707	-6.75209
495.957	-6.18431
498.207	-1.5354
500.456	0.303285
502.706	-9.2989
504.956	-8.1416
507.206	0.415653
509.456	-5.93244
511.705	-6.64926
513.955	-0.290521
516.205	-12.7066
518.455	-5.59399
520.704	-15.7414
522.954	-5.78206
525.204	-5.01964
527.454	-11.3984
529.703	-6.75108
531.953	-3.92217
534.203	-12.4881
536.453	-14.6899
538.702	-6.07798
540.952	0.193154
543.202	-9.56936
545.452	-8.90848
547.701	-10.8555
549.951	-4.0621
552.201	-14.0988
554.451	-9.45739
556.7	-2.50865
558.95	-3.03052
561.2	-6.13123
563.45	0.128724
565.699	1.83862
567.949	-5.47831
570.199	-2.83584
572.449	-2.42777
574.698	-4.35039
576.948	-3.83197
579.198	-9.93733
581.448	-4.89385
583.697	-10.2133
585.947	-0.86029
588.197	2.39574
590.447	-11.2593
592.696	-8.18111
594.946	-2.21064
597.196	-0.230151
599.446	-6.12649
601.695	-4.89929
603.945	6.87798
606.195	-2.69371
608.445	-5.3756
610.695	3.56226
612.944	-6.71508
615.194	0.600932
617.444	-1.54161
619.693	-3.07231
621.943	-1.77979
624.193	4.29139
626.443	10.3228
628.693	-0.161299
630.942	-2.86691
633.192	-0.856335
635.442	-6.9252
637.692	5.83717
639.941	7.21649
642.191	4.01916
644.441	-6.092
646.691	8.23883
648.94	-0.46334
651.19	8.35116
653.44	5.15387
655.69	4.23254
657.939	-0.472752
660.189	4.13844
662.439	-0.526964
664.689	-2.27656
666.938	1.58258
669.188	-0.434477
671.438	1.05296
673.688	2.88492
675.937	-5.18139
678.187	2.36194
680.437	2.76447
682.687	-0.0702263
684.936	-7.25261
687.186	5.39086
689.436	0.0737137
691.686	-1.91997
693.935	-10.5539
696.185	7.99525
698.435	1.12002
700.685	-3.19013
702.934	1.66013
705.184	-7.59705
707.434	-4.4167
709.684	-1.23924
711.933	-4.94092
714.183	-0.567477
716.433	-7.33185
718.683	-10.873
720.932	-11.7991
723.182	-1.24733
725.432	4.41934
727.682	-3.61525
729.932	-4.08951
732.181	-4.57388
734.431	-4.05842
736.681	3.06713
738.931	2.63247
741.18	-3.02561
743.43	-3.49683
745.68	-3.72896
747.93	-2.57204
750.179	2.29705
752.429	-3.86169
754.679	8.21925
756.929	8.22939
759.178	-2.22879
761.428	2.46202
763.678	-0.24313
765.928	3.82365
768.177	-4.53123
770.427	-1.93092
772.677	4.80932
774.927	4.35352
777.176	-1.46846
779.426	-1.38093
781.676	3.95532
783.926	4.24134
786.175	-12.0432
788.425	6.93516
790.675	-4.65514
792.925	4.74415
795.174	10.7648
797.424	6.18434
799.674	3.66064
801.924	6.22948
804.173	0.539776
806.423	3.09928
808.673	4.67386
810.923	0.0973129
813.172	8.8777
815.422	2.3887
817.672	8.93502
819.922	3.6517
822.172	3.4954
824.421	3.4183
826.671	11.7142
828.921	8.57747
831.171	-2.93453
833.42	6.0035
835.67	7.81395
837.92	2.70974
840.17	1.00549
842.419	13.47
844.669	-3.65652
846.919	4.28976
849.169	11.6319
851.418	3.09813
853.668	0.948328
855.918	3.47386
858.168	-0.130313
860.417	18.7059
862.667	6.76295
864.917	-2.83063
867.167	3.01232
869.416	-3.58172
871.666	-6.20649
873.916	1.79553
876.166	3.34429
878.415	-5.07434
880.665	-1.46537
882.915	1.2329
885.165	-4.87043
887.414	-1.98844
889.664	0.0597225
891.914	-6.12189
894.164	-0.316496
896.413	1.12597
898.663	6.38979
900.913	1.12715
903.163	-0.0857012
905.412	-1.03097
907.662	-7.58886
909.912	-1.39076
912.162	-2.17324
914.411	4.29368
916.661	1.50954
918.911	-3.7098
921.161	-3.44258
923.411	0.273876
925.66	-6.40747
927.91	2.37977
930.16	2.96124
932.41	-2.83645
934.659	1.2191
936.909	-3.93081
939.159	-7.17864
941.409	-6.49853
943.658	-8.3419
945.908	-0.97843
948.158	-1.60688
950.408	-0.948124
952.657	-8.10858
954.907	-2.91491
957.157	-6.48633
959.407	0.0549081
961.656	-6.67033
963.906	-6.95413
966.156	-5.68224
968.406	-8.77287
970.655	-19.5877
972.905	-10.3994
975.155	-2.28493
977.405	-10.183
979.654	-9.45719
981.904	-3.14102
984.154	-8.0636
986.404	-4.12808
988.653	-8.42871
990.903	-5.91438
993.153	-9.43435
995.403	-9.26553
997.652	-8.82514
999.902	-11.05
1002.15	3.44776
1004.4	-7.77545
1006.65	-2.14554
1008.9	-5.4395
1011.15	-0.482702
1013.4	-2.92863
1015.65	10.8596
1017.9	-5.35107
1020.15	-1.54562
1022.4	5.49594
1024.65	2.72941
1026.9	3.66135
1029.15	0.529106
1031.4	6.32096
1033.65	-0.359721
1035.9	11.9838
1038.15	3.34873
1040.4	5.81668
1042.65	10.6475
1044.9	8.08702
1047.15	-0.676949
1049.4	-1.64929
1051.65	1.77463
1053.9	14.9131
1056.15	-6.24739
1058.4	-6.09694
1060.65	-8.3843
1062.9	1.39062
1065.15	-0.672876
1067.39	-5.81715
1069.64	-2.93614
1071.89	4.33246
1074.14	-8.59252
1076.39	5.47152
1078.64	1.41525
1080.89	-6.33116
1083.14	-8.09179
1085.39	-7.67146
1087.64	-2.32533
1089.89	3.37932
1092.14	5.5912
1094.39	3.80506
1096.64	-2.09194
1098.89	9.26383
1101.14	1.19229
1103.39	-5.51604
1105.64	3.45022
1107.89	10.0249
1110.14	-1.94493
1112.39	4.97272
1114.64	-8.27553
1116.89	3.59481
1119.14	13.3394
1121.39	-1.37282
1123.64	24.5836
1125.89	7.04042
1128.14	16.149
1130.39	12.149
1132.64	11.9641
1134.89	38.9477
1137.14	38.3124
1139.39	28.3031
1141.64	40.5071
1143.89	40.3951
1146.14	26.0028
1148.39	28.1579
1150.64	32.899
1152.89	44.0492
1155.14	63.3521
1157.39	39.7885
1159.63	55.4673
1161.88	50.5422
1164.13	57.4566
1166.38	52.4611
1168.63	50.2394
1170.88	58.3225
1173.13	49.1025
1175.38	70.284
1177.63	62.2181
1179.88	38.1404
1182.13	46.0894
1184.38	82.3546
1186.63	65.0824
1188.88	60.1037
1191.13	62.1266
1193.38	67.9878
1195.63	60.4744
1197.88	57.7418
1200.13	58.5072
1202.38	77.0278
1204.63	77.9079
1206.88	86.2167
1209.13	72.7215
1211.38	74.3885
1213.63	78.7577
1215.88	75.6032
1218.13	84.903
1220.38	94.1172
1222.63	94.3129
1224.88	105.783
1227.13	104.249
1229.38	108.243
1231.63	125.106
1233.88	116.83
1236.13	130.711
1238.38	131.696
1240.63	139.08
1242.88	133.437
1245.13	142.847
1247.38	141.557
1249.625	152.998
1251.87	167.967
1254.12	169.461
1256.37	179.88
1258.62	202.96
1260.87	189.097
1263.12	210.224
1265.37	222.539
1267.62	211.855
1269.87	248.19
1272.12	260.616
1274.37	262.343
1276.62	274.103
1278.87	262.74
1281.12	317.508
1283.37	309.626
1285.62	341.066
1287.87	379.36
1290.12	380.232
1292.37	378.247
1294.62	412.654
1296.87	414.249
1299.12	437.827
1301.37	457.604
1303.62	468.602
1305.87	480.493
1308.12	520.52
1310.37	516.952
1312.62	546.695
1314.87	550.702
1317.12	588.414
1319.37	617.486
1321.62	613.319
1323.87	661.209
1326.12	638.905
1328.37	665.688
1330.62	670.306
1332.87	698.185
1335.12	683.747
1337.37	696.038
1339.62	690.512
1341.86	683.837
1344.11	697.067
1346.36	665.815
1348.61	653.378
1350.86	652.035
1353.11	659.048
1355.36	620.731
1357.61	624.278
1359.86	570.884
1362.11	549.839
1364.36	567.525
1366.61	519.546
1368.86	495.312
1371.11	510.892
1373.36	460.377
1375.61	435.725
1377.86	395.392
1380.11	403.955
1382.36	376.433
1384.61	364.834
1386.86	327.675
1389.11	322.352
1391.36	298.166
1393.61	281.538
1395.86	286.181
1398.11	237.714
1400.36	243.062
1402.61	212.379
1404.86	187.484
1407.11	198.217
1409.36	160.855
1411.61	156.687
1413.86	158.707
1416.11	145.778
1418.36	141.02
1420.61	117.245
1422.86	112.312
1425.11	91.7825
1427.36	83.2132
1429.61	84.2264
1431.86	65.6365
1434.1	76.3005
1436.35	52.8669
1438.6	73.122
1440.85	51.9415
1443.1	64.9069
1445.35	57.4125
1447.6	35.0744
1449.85	34.0602
1452.1	31.329
1454.35	20.0619
1456.6	12.4606
1458.85	3.03506
1461.1	17.3246
1463.35	19.9029
1465.6	10.143
1467.85	16.9905
1470.1	10.7891
1472.35	5.44157
1474.6	6.94077
1476.85	7.58328
1479.1	9.02676
1481.35	0.99685
1483.6	1.28939
1485.85	-2.95421
1488.1	4.82081
1490.35	8.46491
1492.6	3.87958
1494.85	15.7316
1497.1	35.9072
1499.35	19.9614
1501.6	29.4922
1503.85	36.9422
1506.1	39.989
1508.35	49.1388
1510.6	34.3008
1512.85	56.9777
1515.1	64.5822
1517.35	81.0195
1519.6	78.13
1521.85	84.5219
1524.1	98.476
1526.34	98.9293
1528.59	136.055
1530.84	126.376
1533.09	160.363
1535.34	171.156
1537.59	174.034
1539.84	183.627
1542.09	233.676
1544.34	243.319
1546.59	253.876
1548.84	267.939
1551.09	281.931
1553.34	337.783
1555.59	351.723
1557.84	393.841
1560.09	394.444
1562.34	416.838
1564.59	469.055
1566.84	499.291
1569.09	505.107
1571.34	551.471
1573.59	563.572
1575.84	607.288
1578.09	638.221
1580.34	664.611
1582.59	700.91
1584.84	704.745
1587.09	725.847
1589.34	756.495
1591.59	747.295
1593.84	774.87
1596.09	778.361
1598.34	783.902
1600.59	750.236
1602.84	741.267
1605.09	720.807
1607.34	696.257
1609.59	670.819
1611.84	620.135
1614.09	596.206
1616.34	561.855
1618.58	671.58
1620.83	496.765
1623.08	423.859
1625.33	380.19
1627.58	354.68
1629.83	329.982
1632.08	297.561
1634.33	267.853
1636.58	246.554
1638.83	227.383
1641.08	208.908
1643.33	176.354
1645.58	162.264
1647.83	154.53
1650.08	127.648
1652.33	116.009
1654.58	95.2337
1656.83	95.3903
1659.08	78.183
1661.33	64.7846
1663.58	54.8097
1665.83	36.4048
1668.08	42.0658
1670.33	37.4366
1672.58	28.2352
1674.83	21.8636
1677.08	24.7461
1679.33	6.92176
1681.58	12.5857
1683.83	12.3857
1686.08	9.27601
1688.33	10.8977
1690.58	6.96143
1692.83	3.80392
1695.08	8.77134
1697.33	7.47101
1699.58	14.1695
1701.83	5.38544
1704.08	7.01972
1706.33	17.8466
1708.58	5.16398
1710.82	10.8454
1713.07	2.9556
1715.32	-5.62006
1717.57	-5.21595
1719.82	-2.35778
1722.07	2.80468
1724.32	-2.95986
1726.57	-5.91099
1728.82	1.65957
1731.07	6.93088
1733.32	-0.293601
1735.57	-3.60036
1737.82	-9.41946
1740.07	0.251641
1742.32	-3.79621
1744.57	-3.83109
1746.82	1.91658
1749.07	-7.94518
1751.32	-2.36682
1753.57	-4.51872
1755.82	-8.6748
1758.07	-13.1414
1760.32	-5.26747
1762.57	-5.51065
1764.82	-11.3037
1767.07	-4.00144
1769.32	-10.8611
1771.57	-4.80759
1773.82	-6.27271
1776.07	-3.67484
1778.32	-8.65849
1780.57	-6.63388
1782.82	-8.08544
1785.07	-7.53378
1787.32	-7.51087
1789.57	-11.2041
1791.82	-15.1771
1794.07	-2.11795
1796.32	-5.42468
1798.57	0.443991
1800.82	-7.50408
1803.06	3.14156
1805.31	-12.7693
1807.56	-8.94594
1809.81	-5.13984
1812.06	-8.74101
1814.31	-4.1126
1816.56	-1.94154
1818.81	-11.1352
1821.06	-1.24871
1823.31	-7.05607
1825.56	-5.08266
1827.81	-6.87013
1830.06	0.792299
1832.31	-3.09524
1834.56	2.76747
1836.81	-3.34623
1839.06	-3.24366
1841.31	-3.76089
1843.56	-1.91861
1845.81	2.61745
1848.06	-6.02077
1850.31	-0.19043
1852.56	-8.02723
1854.81	-1.37183
1857.06	-9.0736
1859.31	-4.75213
1861.56	-4.01011
1863.81	0.356298
1866.06	-4.30081
1868.31	-2.16211
1870.56	3.15956
1872.81	-2.1653
1875.06	-0.549892
1877.31	-8.77358
1879.56	1.5756
1881.81	-3.44881
1884.06	-2.90008
1886.31	-8.49502
1888.56	-2.62288
1890.81	-7.87864
1893.06	2.34721
1895.3	-9.3312
1897.55	-13.0607
1899.8	-9.837
1902.05	-11.4277
1904.3	1.85234
1906.55	-1.13063
1908.8	-9.85744
1911.05	0.277771
1913.3	-4.26627
1915.55	-4.10202
1917.8	2.53055
1920.05	-5.22373
1922.3	3.71722
1924.55	-5.8178
1926.8	-2.10388
1929.05	-0.934741
1931.3	-3.99574
1933.55	-7.37226
1935.8	0.215985
1938.05	-5.096
1940.3	-1.98201
1942.55	-0.740429
1944.8	-7.55495
1947.05	-0.330151
1949.3	-5.2815
1951.55	5.12993
1953.8	-0.830079
1956.05	-3.42978
1958.3	-2.20257
1960.55	-0.170798
1962.8	-2.29869
1965.05	2.13777
1967.3	-3.30366
1969.55	0.859007
1971.8	-0.165099
1974.05	-2.35482
1976.3	-4.19669
1978.55	-1.17756
1980.8	-5.25208
1983.05	4.87614
1985.3	3.11493
1987.54	-0.488495
1989.79	0.269641
1992.04	-3.47235
1994.29	-6.47285
1996.54	-7.75672
1998.79	-4.53951
2001.04	-3.24068
2003.29	-0.247683
2005.54	-4.70462
2007.79	-2.76413
2010.04	-0.449174
2012.29	-3.87838
2014.54	-1.5073
2016.79	1.66126
2019.04	-2.3292
2021.29	-5.32673
2023.54	1.38696
2025.79	0.467237
2028.04	1.11604
2030.29	0.342106
2032.54	0.879257
2034.79	2.30667
2037.04	-5.05017
2039.29	0.415231
2041.54	-0.696804
2043.79	-4.40038
2046.04	7.59984
2048.29	2.63927
2050.54	8.41807
2052.79	-6.16726
2055.04	-0.68603
2057.29	7.85175
2059.54	-1.75092
2061.79	-2.46076
2064.04	-1.39368
2066.29	0.19145
2068.54	-1.38883
2070.79	0.528332
2073.04	1.87479
2075.29	0.443255
2077.54	-6.6271
2079.78	4.4548
2082.03	7.89582
2084.28	-3.15667
2086.53	-3.28791
2088.78	-1.83349
2091.03	-5.40482
2093.28	-4.39474
2095.53	-1.55218
2097.78	-1.22
2100.03	-6.36044
2102.28	-6.8519
2104.53	-1.88791
2106.78	-2.86952
2109.03	-0.282156
2111.28	-7.24992
2113.53	-4.21823
2115.78	-2.20886
2118.03	0.185254
2120.28	-4.02609
2122.53	-5.52222
2124.78	-4.5739
2127.03	-8.24197
2129.28	-8.63526
2131.53	-5.58447
2133.78	-7.63372
2136.03	-5.38723
2138.28	-7.31465
2140.53	-10.5875
2142.78	-5.394
2145.03	-7.21866
2147.28	-8.54977
2149.53	-7.16037
2151.78	-13.477
2154.03	-7.72123
2156.28	-15.856
2158.53	-9.81445
2160.78	-8.90777
2163.03	-11.9788
2165.28	-10.2134
2167.53	-12.4105
2169.78	-17.0013
2172.02	-13.2671
2174.27	-11.9242
2176.52	-16.7259
2178.77	-9.14032
2181.02	-9.85117
2183.27	-13.4601
2185.52	-10.803
2187.77	-12.3065
2190.02	-12.4275
2192.27	-14.4279
2194.52	-18.2684
2196.77	-14.4349
2199.02	-15.5101
2201.27	-13.9477
2203.52	-16.5784
2205.77	-14.061
2208.02	-16.2785
2210.27	-21.4547
2212.52	-12.9699
2214.77	-15.0765
2217.02	-19.7845
2219.27	-18.6383
2221.52	-20.8582
2223.77	-16.6237
2226.02	-17.9102
2228.27	-22.6114
2230.52	-24.7668
2232.77	-18.6738
2235.02	-28.4255
2237.27	-19.4107
2239.52	-22.8076
2241.77	-19.2511
2244.02	-25.8009
2246.27	-15.5093
2248.52	-23.4012
2250.77	-25.4432
2253.02	-27.0313
2255.27	-34.3865
2257.52	-16.2228
2259.77	-22.4866
2262.01	-30.2802
2264.26	-23.87
2266.51	-31.4557
2268.76	-23.7629
2271.01	-28.446
2273.26	-33.9435
2275.51	-32.8297
2277.76	-25.2806
2280.01	-29.0191
2282.26	-18.1078
2284.51	-33.6613
2286.76	-22.3261
2289.01	-25.3555
2291.26	-35.4106
2293.51	-27.0065
2295.76	-29.0597
2298.01	-31.5673
2300.26	-24.0599
2302.51	-20.1475
2304.76	-31.8738
2307.01	-26.063
2309.26	-30.7709
2311.51	-32.7467
2313.76	-29.209
2316.01	-36.5556
2318.26	-39.6925
2320.51	-31.8289
2322.76	-29.5088
2325.01	-31.0602
2327.26	-16.7531
2329.51	10.2721
2331.76	-18.8037
2334.01	-29.8525
2336.26	-32.8772
2338.51	-32.2481
2340.76	-32.6592
2343.01	-38.1771
2345.26	-42.5207
2347.51	-34.1826
2349.76	-28.395
2352.01	-32.4625
2354.25	-41.5118
2356.5	-35.4093
2358.75	-33.7938
2361	-39.5062
2363.25	-36.088
2365.5	-34.2905
2367.75	-32.6616
2370	-29.6215
2372.25	-35.2785
2374.5	-28.6702
2376.75	-36.3532
2379	-33.4581
2381.25	-35.8274
2383.5	-30.101
2385.75	-36.4984
2388	-28.7649
2390.25	-32.5801
2392.5	-27.6231
2394.75	-37.8739
2397	-35.7632
2399.25	-36.6899
2400	-38.9713