File: Example Data/Raman/CNT - TIM/Raytheon/Al foil/2010/11-22-10/Al - B22a - top.txt
100	85.0757
102.25	55.8697
104.5	81.0964
106.749	153.776
108.999	68.1778
111.249	55.6617
113.499	48.7214
115.748	78.505
117.998	77.4934
120.248	43.2724
122.498	74.582
124.747	50.7963
126.997	48.5754
129.247	53.6864
131.497	51.434
133.746	34.8829
135.996	25.121
138.246	54.6596
140.496	38.5307
142.745	25.0067
144.995	24.2188
147.245	25.266
149.495	10.5624
151.744	27.9731
153.994	24.7386
156.244	20.057
158.494	13.226
160.743	11.5067
162.993	20.0395
165.243	-2.89491
167.493	3.96496
169.742	21.7583
171.992	2.40881
174.242	-1.00347
176.492	3.76621
178.741	4.05294
180.991	7.12486
183.241	-3.57399
185.491	16.0736
187.74	10.727
189.99	-3.90977
192.24	1.93729
194.49	9.93101
196.739	-12.9523
198.989	1.67542
201.239	2.10203
203.489	6.23731
205.739	-4.67908
207.988	-8.62322
210.238	-6.41333
212.488	-6.82419
214.738	-1.83902
216.987	-6.76588
219.237	-4.08027
221.487	-5.92996
223.737	3.5524
225.986	-6.9605
228.236	-2.31618
230.486	1.73863
232.736	-6.45869
234.985	-0.221622
237.235	-4.23437
239.485	-0.816796
241.735	-6.59743
243.984	-1.92283
246.234	-0.473488
248.484	-7.62218
250.734	-0.224958
252.983	-9.31353
255.233	-2.24182
257.483	-6.05711
259.733	3.99554
261.982	-5.41506
264.232	-4.36532
266.482	-4.17176
268.732	1.63521
270.981	-6.35261
273.231	-2.49142
275.481	-2.7077
277.731	3.32842
279.98	8.60275
282.23	-0.257982
284.48	3.26619
286.73	-13.5044
288.979	-3.90808
291.229	-9.52218
293.479	-3.66659
295.729	-0.652436
297.978	-17.2857
300.228	-5.09641
302.478	-15.0007
304.728	-10.8658
306.978	-12.019
309.227	0.989365
311.477	-1.90591
313.727	2.22448
315.977	-1.48619
318.226	-4.85914
320.476	-8.47709
322.726	-5.55966
324.976	-5.00166
327.225	-8.12185
329.475	4.03201
331.725	-3.34149
333.975	-8.20203
336.224	-6.06888
338.474	-4.67004
340.724	-4.54857
342.974	-7.26706
345.223	-1.43954
347.473	-2.02503
349.723	-4.65787
351.973	-3.80599
354.222	-0.837222
356.472	-0.64079
358.722	-14.6965
360.972	7.66555
363.221	-5.59107
365.471	-6.39949
367.721	0.849936
369.971	1.05139
372.22	-9.70558
374.47	1.84696
376.72	-5.6772
378.97	0.0661486
381.219	-1.82114
383.469	-2.22438
385.719	-9.9192
387.969	0.494285
390.218	-4.29758
392.468	4.15335
394.718	0.232216
396.968	-3.80991
399.217	4.06589
401.467	1.76235
403.717	-16.1159
405.967	-0.401715
408.216	8.47889
410.466	1.55453
412.716	-3.38664
414.966	-9.05166
417.216	-5.1387
419.465	6.54473
421.715	3.73588
423.965	0.0471028
426.215	4.45217
428.464	1.27667
430.714	1.23988
432.964	3.99007
435.214	-7.94616
437.463	-2.49823
439.713	2.88173
441.963	4.86988
444.213	4.04675
446.462	6.38041
448.712	1.48806
450.962	12.0982
453.212	-1.80567
455.461	8.45106
457.711	5.7007
459.961	-4.1946
462.211	-3.11383
464.46	1.82233
466.71	-4.55517
468.96	-1.48327
471.21	-9.63347
473.459	3.76202
475.709	5.7947
477.959	-3.53756
480.209	0.275489
482.458	-2.09572
484.708	-2.23592
486.958	-1.37466
489.208	1.77086
491.457	-9.41322
493.707	-6.98872
495.957	-1.87908
498.207	-5.18484
500.456	-3.07986
502.706	-6.13068
504.956	1.76361
507.206	-6.87658
509.456	-7.78901
511.705	-3.24842
513.955	6.09193
516.205	-3.37193
518.455	1.88031
520.704	3.67519
522.954	3.37979
525.204	-1.97576
527.454	-1.42348
529.703	-5.31927
531.953	-0.252541
534.203	4.3574
536.453	-5.426
538.702	0.57493
540.952	-1.44183
543.202	0.724153
545.452	1.63246
547.701	-6.52527
549.951	1.40536
552.201	-4.1605
554.451	-1.972
556.7	-3.92238
558.95	-5.46123
561.2	-5.38703
563.45	-2.02041
565.699	-2.50411
567.949	-5.18968
570.199	-1.81015
572.449	3.10616
574.698	2.16311
576.948	8.92189
579.198	-10.5401
581.448	-2.23985
583.697	-0.732572
585.947	-2.83875
588.197	1.26513
590.447	-2.65084
592.696	-1.59099
594.946	-7.02116
597.196	-5.15958
599.446	-0.36871
601.695	-2.59356
603.945	-5.37198
606.195	0.661635
608.445	-0.933218
610.695	-9.14208
612.944	2.1565
615.194	-5.67588
617.444	-2.67145
619.693	1.21623
621.943	-3.90391
624.193	5.58453
626.443	-5.13419
628.693	-2.16805
630.942	-1.38772
633.192	4.67708
635.442	1.46156
637.692	-6.68073
639.941	-3.01919
642.191	3.30459
644.441	-11.7835
646.691	5.77218
648.94	-1.94054
651.19	4.64068
653.44	-4.71791
655.69	-4.03884
657.939	8.39593
660.189	6.43685
662.439	1.29372
664.689	-5.83141
666.938	-9.68071
669.188	0.899286
671.438	-3.62969
673.688	-5.43976
675.937	-8.10037
678.187	4.14768
680.437	0.706554
682.687	-7.79367
684.936	10.8067
687.186	4.64742
689.436	-7.51182
691.686	-2.142
693.935	-10.6577
696.185	-2.47471
698.435	-0.362175
700.685	-4.01674
702.934	0.238296
705.184	-2.92325
707.434	-5.69071
709.684	-0.685171
711.933	3.1391
714.183	3.70015
716.433	-4.78164
718.683	11.1327
720.932	1.21174
723.182	6.79601
725.432	-1.26386
727.682	7.40439
729.932	0.846259
732.181	8.13792
734.431	-0.0506427
736.681	2.41314
738.931	4.21237
741.18	-4.53682
743.43	-2.2808
745.68	-0.181477
747.93	4.08939
750.179	1.42394
752.429	7.00398
754.679	8.28763
756.929	1.57157
759.178	1.18603
761.428	7.08362
763.678	-3.47129
765.928	11.3774
768.177	9.42827
770.427	-5.34611
772.677	0.723093
774.927	9.66942
777.176	6.301
779.426	10.3912
781.676	16.5964
783.926	-2.0999
786.175	10.9703
788.425	3.07172
790.675	4.62804
792.925	9.38139
795.174	13.2556
797.424	5.26268
799.674	4.87776
801.924	11.9006
804.173	0.838489
806.423	15.2288
808.673	11.4038
810.923	9.96741
813.172	7.1713
815.422	6.38066
817.672	13.5245
819.922	8.53454
822.172	8.84938
824.421	9.63332
826.671	4.74479
828.921	15.7904
831.171	10.5235
833.42	16.2115
835.67	13.7863
837.92	14.8451
840.17	15.3019
842.419	9.02516
844.669	18.9873
846.919	14.1953
849.169	22.7569
851.418	15.2695
853.668	13.9793
855.918	13.3135
858.168	12.2173
860.417	12.3005
862.667	6.89653
864.917	13.6252
867.167	8.79349
869.416	5.78727
871.666	-1.02437
873.916	4.04432
876.166	2.77099
878.415	5.43689
880.665	-0.342875
882.915	-2.29242
885.165	-3.22615
887.414	1.56081
889.664	1.42539
891.914	3.39644
894.164	3.0914
896.413	11.179
898.663	4.94095
900.913	0.480656
903.163	1.0838
905.412	6.2028
907.662	4.28113
909.912	5.53222
912.162	2.15539
914.411	-0.91917
916.661	5.16467
918.911	7.77858
921.161	6.09148
923.411	7.90725
925.66	10.5709
927.91	-4.9973
930.16	6.60601
932.41	4.69836
934.659	3.91918
936.909	16.4134
939.159	2.05383
941.409	6.42131
943.658	1.25399
945.908	0.782499
948.158	3.7238
950.408	1.0993
952.657	-3.78408
954.907	6.94974
957.157	-5.86286
959.407	6.35939
961.656	14.3131
963.906	4.13526
966.156	5.67174
968.406	-3.91136
970.655	-2.88219
972.905	-2.41362
975.155	1.61486
977.405	-6.87269
979.654	-2.79881
981.904	-11.3315
984.154	-5.00891
986.404	-4.67753
988.653	-7.10041
990.903	-0.709439
993.153	-8.05373
995.403	-17.4625
997.652	-18.8671
999.902	-12.6341
1002.15	-9.53109
1004.4	-15.4935
1006.65	-7.55068
1008.9	-10.2092
1011.15	-16.0319
1013.4	1.6937
1015.65	-12.4991
1017.9	-9.93544
1020.15	-0.550984
1022.4	0.268089
1024.65	-13.4717
1026.9	6.61368
1029.15	-9.79987
1031.4	0.0762261
1033.65	7.82569
1035.9	-3.15276
1038.15	-3.93702
1040.4	-5.38327
1042.65	0.461251
1044.9	-1.72932
1047.15	-3.20535
1049.4	0.504867
1051.65	-7.75468
1053.9	-13.9971
1056.15	-1.55724
1058.4	-6.93327
1060.65	4.10451
1062.9	4.40839
1065.15	-0.120294
1067.39	-8.71611
1069.64	-0.12478
1071.89	-12.1565
1074.14	-6.89552
1076.39	-0.514864
1078.64	1.49076
1080.89	-2.12932
1083.14	-0.984721
1085.39	-3.71662
1087.64	10.3342
1089.89	-2.72344
1092.14	-14.0526
1094.39	-2.23459
1096.64	-1.95025
1098.89	-9.91796
1101.14	1.96462
1103.39	12.2236
1105.64	-6.15805
1107.89	2.07697
1110.14	-7.92464
1112.39	7.1679
1114.64	-5.04859
1116.89	-0.276544
1119.14	2.59746
1121.39	3.38439
1123.64	11.5632
1125.89	7.51453
1128.14	7.69096
1130.39	16.2212
1132.64	14.1859
1134.89	13.3868
1137.14	6.53327
1139.39	17.194
1141.64	12.9356
1143.89	24.5939
1146.14	24.9009
1148.39	25.1556
1150.64	17.2954
1152.89	28.526
1155.14	40.8156
1157.39	25.0952
1159.63	27.9588
1161.88	31.473
1164.13	34.6853
1166.38	42.394
1168.63	35.6868
1170.88	50.0761
1173.13	40.9823
1175.38	41.6872
1177.63	37.0832
1179.88	43.3409
1182.13	29.8393
1184.38	48.5409
1186.63	52.9472
1188.88	39.5937
1191.13	36.421
1193.38	44.8342
1195.63	57.7251
1197.88	61.5972
1200.13	57.0445
1202.38	52.6586
1204.63	66.9346
1206.88	68.8899
1209.13	69.0824
1211.38	66.2682
1213.63	76.5568
1215.88	94.5863
1218.13	68.5359
1220.38	92.7803
1222.63	89.0812
1224.88	82.3654
1227.13	98.6093
1229.38	104.987
1231.63	102.126
1233.88	122.392
1236.13	131.21
1238.38	134.081
1240.63	134.76
1242.88	148.457
1245.13	145.077
1247.38	160.482
1249.625	158.552
1251.87	164.226
1254.12	167.895
1256.37	173.418
1258.62	185.744
1260.87	192.545
1263.12	199.542
1265.37	216.897
1267.62	222.621
1269.87	244.333
1272.12	253.023
1274.37	247.521
1276.62	261.989
1278.87	293.435
1281.12	301.195
1283.37	321.002
1285.62	318.53
1287.87	337.388
1290.12	379.132
1292.37	384.093
1294.62	399.672
1296.87	398.405
1299.12	414.376
1301.37	447.49
1303.62	459.117
1305.87	474.659
1308.12	497.975
1310.37	502.603
1312.62	534.334
1314.87	537.256
1317.12	561.976
1319.37	598.269
1321.62	582.588
1323.87	626.768
1326.12	621.532
1328.37	649.813
1330.62	629.486
1332.87	619.345
1335.12	641.214
1337.37	657.357
1339.62	631.101
1341.86	629.589
1344.11	621.987
1346.36	636.087
1348.61	613.251
1350.86	614.212
1353.11	586.66
1355.36	579.593
1357.61	551.138
1359.86	535.307
1362.11	504.013
1364.36	513.479
1366.61	466.065
1368.86	445.12
1371.11	411.279
1373.36	410.218
1375.61	388.983
1377.86	360.717
1380.11	345.058
1382.36	323.537
1384.61	308.036
1386.86	302.309
1389.11	280.354
1391.36	260.277
1393.61	282.35
1395.86	240.382
1398.11	208.268
1400.36	217.999
1402.61	181.649
1404.86	155.158
1407.11	160.059
1409.36	151.532
1411.61	136.349
1413.86	119.318
1416.11	105.987
1418.36	112.049
1420.61	104.267
1422.86	90.9174
1425.11	72.9815
1427.36	62.903
1429.61	76.6844
1431.86	50.2716
1434.1	46.7848
1436.35	51.4407
1438.6	45.1206
1440.85	36.778
1443.1	23.3928
1445.35	26.4501
1447.6	23.3156
1449.85	11.7126
1452.1	20.3394
1454.35	16.0919
1456.6	6.03737
1458.85	18.6061
1461.1	2.93711
1463.35	14.7077
1465.6	9.10432
1467.85	-3.62243
1470.1	24.2471
1472.35	5.72833
1474.6	2.06457
1476.85	5.87346
1479.1	-4.95882
1481.35	-0.722613
1483.6	16.8851
1485.85	-4.785
1488.1	-6.26297
1490.35	5.99283
1492.6	5.48546
1494.85	9.96251
1497.1	19.8125
1499.35	27.8459
1501.6	55.5998
1503.85	53.6289
1506.1	50.8936
1508.35	65.6966
1510.6	77.8097
1512.85	68.2242
1515.1	81.6862
1517.35	82.1562
1519.6	92.1558
1521.85	94.6458
1524.1	115.557
1526.34	123.214
1528.59	128.33
1530.84	161.519
1533.09	183.092
1535.34	204.391
1537.59	190.692
1539.84	217.59
1542.09	236.422
1544.34	239.315
1546.59	276.129
1548.84	307.697
1551.09	319.873
1553.34	333.447
1555.59	381.97
1557.84	411.473
1560.09	407.019
1562.34	438.918
1564.59	454.77
1566.84	495.418
1569.09	522.735
1571.34	567.286
1573.59	582.747
1575.84	601.373
1578.09	612.675
1580.34	639.092
1582.59	674.463
1584.84	668.965
1587.09	702.341
1589.34	699.223
1591.59	705.849
1593.84	719.971
1596.09	713.609
1598.34	708.455
1600.59	676.313
1602.84	667.856
1605.09	646.891
1607.34	623.021
1609.59	586.475
1611.84	551.708
1614.09	521.877
1616.34	479.062
1618.58	445.657
1620.83	404.943
1623.08	367.626
1625.33	339.947
1627.58	313.525
1629.83	276.803
1632.08	260.222
1634.33	232.731
1636.58	198.255
1638.83	177.097
1641.08	173.294
1643.33	146.823
1645.58	131.647
1647.83	124.176
1650.08	101.491
1652.33	100.535
1654.58	78.0945
1656.83	71.853
1659.08	57.6039
1661.33	49.4788
1663.58	48.0356
1665.83	32.7177
1668.08	33.1633
1670.33	13.2974
1672.58	21.4304
1674.83	10.8537
1677.08	5.98985
1679.33	5.75802
1681.58	0.00223928
1683.83	2.1247
1686.08	-1.40878
1688.33	10.6582
1690.58	3.69976
1692.83	10.2717
1695.08	3.81114
1697.33	2.45561
1699.58	13.274
1701.83	17.6628
1704.08	6.34389
1706.33	11.2511
1708.58	9.66847
1710.82	9.37949
1713.07	18.3403
1715.32	4.20078
1717.57	2.65595
1719.82	8.58406
1722.07	-4.59778
1724.32	-0.435089
1726.57	5.29009
1728.82	7.83748
1731.07	-2.65118
1733.32	-4.93665
1735.57	-0.0941481
1737.82	-0.0404345
1740.07	3.48928
1742.32	4.73669
1744.57	8.12597
1746.82	-2.53356
1749.07	1.8835
1751.32	-5.80359
1753.57	1.89426
1755.82	5.39574
1758.07	-0.751241
1760.32	1.83256
1762.57	3.26563
1764.82	8.38262
1767.07	10.1903
1769.32	4.66251
1771.57	3.10139
1773.82	7.29654
1776.07	2.83207
1778.32	5.32414
1780.57	3.16208
1782.82	1.20646
1785.07	5.06204
1787.32	9.32201
1789.57	-4.6521
1791.82	2.54256
1794.07	3.50521
1796.32	-1.14817
1798.57	0.388017
1800.82	4.66054
1803.06	1.70834
1805.31	7.79237
1807.56	6.21833
1809.81	0.854962
1812.06	-7.18951
1814.31	-4.60356
1816.56	4.14038
1818.81	1.73353
1821.06	-0.549714
1823.31	9.00639
1825.56	-0.218644
1827.81	-2.55229
1830.06	0.197311
1832.31	-5.31509
1834.56	-2.88372
1836.81	3.46929
1839.06	2.54524
1841.31	-2.51214
1843.56	3.44423
1845.81	1.24883
1848.06	-5.73691
1850.31	7.88654
1852.56	0.301106
1854.81	2.09285
1857.06	-5.84359
1859.31	-1.11287
1861.56	-0.602518
1863.81	4.11083
1866.06	4.30518
1868.31	6.93264
1870.56	1.42033
1872.81	-6.31678
1875.06	0.384667
1877.31	0.441522
1879.56	2.14253
1881.81	2.66826
1884.06	1.43618
1886.31	2.98339
1888.56	1.75804
1890.81	-6.11143
1893.06	8.25721
1895.3	11.4325
1897.55	-2.00428
1899.8	5.05131
1902.05	-4.72323
1904.3	12.2326
1906.55	6.63693
1908.8	-2.7099
1911.05	1.44345
1913.3	-0.0972968
1915.55	5.53256
1917.8	5.84776
1920.05	2.76393
1922.3	6.30099
1924.55	4.27156
1926.8	3.17006
1929.05	9.48187
1931.3	4.57876
1933.55	11.7117
1935.8	-0.29658
1938.05	9.34917
1940.3	6.27709
1942.55	1.16523
1944.8	9.94797
1947.05	6.44392
1949.3	0.833885
1951.55	-1.70012
1953.8	7.56136
1956.05	6.10513
1958.3	-2.1674
1960.55	3.828125
1962.8	3.944
1965.05	6.72327
1967.3	-1.86483
1969.55	4.71633
1971.8	7.22886
1974.05	3.88511
1976.3	2.45037
1978.55	6.95931
1980.8	4.03398
1983.05	8.54867
1985.3	6.25659
1987.54	2.24042
1989.79	-4.54332
1992.04	2.30879
1994.29	3.12292
1996.54	7.00161
1998.79	8.59611
2001.04	1.01026
2003.29	-0.0579258
2005.54	0.473762
2007.79	-0.35439
2010.04	5.13999
2012.29	5.40183
2014.54	6.16125
2016.79	2.20322
2019.04	2.46086
2021.29	-2.41554
2023.54	4.51547
2025.79	8.47211
2028.04	0.57595
2030.29	4.7508
2032.54	4.63744
2034.79	2.02615
2037.04	4.75752
2039.29	7.1966
2041.54	1.62885
2043.79	7.28547
2046.04	1.92035
2048.29	-0.112087
2050.54	6.92007
2052.79	3.84993
2055.04	1.41456
2057.29	-1.63865
2059.54	3.13911
2061.79	1.68067
2064.04	1.9168
2066.29	-4.73253
2068.54	-1.92222
2070.79	-3.25697
2073.04	0.634551
2075.29	-2.73283
2077.54	-5.72826
2079.78	1.29283
2082.03	-5.05378
2084.28	-6.53996
2086.53	-2.7625
2088.78	1.41654
2091.03	-2.70872
2093.28	-1.10827
2095.53	-0.765611
2097.78	-0.439405
2100.03	-2.02584
2102.28	-1.40256
2104.53	-2.67408
2106.78	-8.12937
2109.03	-3.63603
2111.28	-2.9737
2113.53	-5.31638
2115.78	-1.95234
2118.03	1.33542
2120.28	-1.33021
2122.53	-5.70012
2124.78	-6.02755
2127.03	2.35789
2129.28	-1.49467
2131.53	-2.80266
2133.78	-7.51431
2136.03	-2.05898
2138.28	-1.83377
2140.53	-2.78448
2142.78	1.70357
2145.03	-0.950198
2147.28	-1.47704
2149.53	-2.38439
2151.78	-1.90566
2154.03	-2.84054
2156.28	-3.79179
2158.53	-1.74716
2160.78	0.951503
2163.03	-5.64015
2165.28	-1.31256
2167.53	2.13906
2169.78	-4.19148
2172.02	-2.23045
2174.27	1.37779
2176.52	0.114365
2178.77	-5.80524
2181.02	-5.36042
2183.27	-0.256582
2185.52	-3.16056
2187.77	-3.92628
2190.02	-6.66932
2192.27	-0.0487146
2194.52	-1.00951
2196.77	-0.0310083
2199.02	-3.75138
2201.27	1.38782
2203.52	-2.26693
2205.77	1.72592
2208.02	-4.21247
2210.27	1.67328
2212.52	-4.36592
2214.77	-5.25986
2217.02	2.87109
2219.27	1.99626
2221.52	0.699738
2223.77	6.1503
2226.02	-0.744012
2228.27	-2.47367
2230.52	-9.15396
2232.77	-5.78069
2235.02	-6.06389
2237.27	-3.70368
2239.52	-5.95999
2241.77	-5.90925
2244.02	-0.448196
2246.27	6.06061
2248.52	3.12887
2250.77	-4.26723
2253.02	6.04899
2255.27	-0.323364
2257.52	-6.00816
2259.77	1.06637
2262.01	4.22114
2264.26	3.49792
2266.51	-6.8485
2268.76	-1.12048
2271.01	-6.08108
2273.26	-7.82341
2275.51	-0.408039
2277.76	-0.220795
2280.01	-4.3378
2282.26	-3.23617
2284.51	-5.04427
2286.76	-8.11158
2289.01	-2.4599
2291.26	1.48773
2293.51	-1.22729
2295.76	1.34589
2298.01	4.81012
2300.26	0.842056
2302.51	8.44431
2304.76	-5.1818
2307.01	1.14532
2309.26	-4.40624
2311.51	-0.56189
2313.76	-2.68438
2316.01	-0.158137
2318.26	0.996835
2320.51	0.040783
2322.76	-2.70042
2325.01	-0.525953
2327.26	17.0743
2329.51	39.9238
2331.76	15.2245
2334.01	0.911742
2336.26	-2.53163
2338.51	-5.78828
2340.76	2.83552
2343.01	-1.75589
2345.26	2.87767
2347.51	1.44052
2349.76	-0.493617
2352.01	4.72446
2354.25	-1.86199
2356.5	-1.13298
2358.75	-1.63994
2361	8.21494
2363.25	3.74215
2365.5	-3.03597
2367.75	0.31169
2370	5.32288
2372.25	-0.258403
2374.5	2.73032
2376.75	9.53323
2379	-0.616884
2381.25	4.32834
2383.5	11.3381
2385.75	3.31103
2388	13.3063
2390.25	-1.86228
2392.5	7.75578
2394.75	9.23433
2397	4.77035
2399.25	14.6189
2400	11.3901