File: Example Data/Raman/CNT - TIM/Raytheon/Al foil/2010/11-22-10/Al batch 22b - bottom_1.txt
100	88.6102
102.25	81.284
104.5	85.0046
106.749	174.954
108.999	90.2627
111.249	77.0457
113.499	74.3716
115.748	99.978
117.998	98.5584
120.248	56.9108
122.498	96.104
124.747	78.312
126.997	59.2194
129.247	64.8377
131.497	68.5172
133.746	40.5273
135.996	41.192
138.246	72.7822
140.496	62.1133
142.745	37.9444
144.995	40.6449
147.245	58.9954
149.495	41.9684
151.744	31.9627
153.994	51.8037
156.244	48.9986
158.494	26.9188
160.743	22.4073
162.993	30.7884
165.243	22.6318
167.493	14.8799
169.742	17.9935
171.992	33.1568
174.242	27.0826
176.492	24.3744
178.741	10.1941
180.991	12.0118
183.241	15.9814
185.491	19.2669
187.74	17.2656
189.99	18.2951
192.24	21.5248
194.49	3.32093
196.739	3.33663
198.989	26.0623
201.239	11.4256
203.489	10.8336
205.739	1.84276
207.988	14.1026
210.238	16.3095
212.488	15.2418
214.738	6.91117
216.987	9.16763
219.237	8.6787
221.487	1.36897
223.737	5.77889
225.986	13.4776
228.236	2.39719
230.486	6.20449
232.736	9.22939
234.985	2.11857
237.235	3.19697
239.485	6.4623
241.735	11.5978
243.984	0.397161
246.234	14.2747
248.484	5.24897
250.734	17.1082
252.983	-1.04042
255.233	3.57018
257.483	2.09108
259.733	4.8868
261.982	7.81605
264.232	0.282893
266.482	2.86186
268.732	12.1603
270.981	13.8553
273.231	8.68518
275.481	3.64832
277.731	9.13757
279.98	3.4369
282.23	4.34086
284.48	1.70941
286.73	-3.5155
288.979	2.17401
291.229	-2.75883
293.479	3.39004
295.729	2.79467
297.978	6.89746
300.228	1.1924
302.478	12.6285
304.728	1.76448
306.978	1.64234
309.227	-8.52056
311.477	-11.7534
313.727	-0.556582
315.977	-2.05109
318.226	4.5775
320.476	-0.860378
322.726	-3.87559
324.976	-4.94405
327.225	-5.73029
329.475	4.61395
331.725	0.0185694
333.975	-3.35101
336.224	-1.48481
338.474	1.69539
340.724	-1.64666
342.974	-11.3278
345.223	-2.79615
347.473	1.42392
349.723	-1.60013
351.973	-8.36996
354.222	6.49901
356.472	3.90568
358.722	-1.27683
360.972	7.94851
363.221	-4.78812
365.471	5.69838
367.721	-3.84743
369.971	-13.0314
372.22	-4.97001
374.47	2.19964
376.72	-2.64506
378.97	-9.03896
381.219	-7.87906
383.469	-1.69817
385.719	-11.4999
387.969	-16.028
390.218	7.4372
392.468	-3.54794
394.718	-17.0332
396.968	-5.07094
399.217	-1.57411
401.467	2.2204
403.717	0.0183742
405.967	4.18712
408.216	-6.52265
410.466	-0.986655
412.716	-4.77327
414.966	-0.0684526
417.216	2.66701
419.465	-4.2483
421.715	-13.3412
423.965	2.1995
426.215	6.95272
428.464	6.93116
430.714	-10.2452
432.964	5.6337
435.214	5.04029
437.463	-12.4113
439.713	-2.72723
441.963	7.0283
444.213	-5.75977
446.462	3.57252
448.712	-1.35448
450.962	-0.913632
453.212	3.73473
455.461	2.77584
457.711	-0.70188
459.961	-0.476307
462.211	2.4174
464.46	5.86945
466.71	6.79256
468.96	0.576711
471.21	-0.872032
473.459	14.2725
475.709	-10.3157
477.959	-7.70513
480.209	-16.4601
482.458	-4.49504
484.708	-9.83554
486.958	-6.21882
489.208	-12.5163
491.457	-11.3505
493.707	-2.31709
495.957	-8.0007
498.207	-14.8966
500.456	-4.96008
502.706	-16.1645
504.956	-6.02991
507.206	-2.0521
509.456	-2.15788
511.705	-9.84608
513.955	-8.53373
516.205	-13.7626
518.455	-9.5519
520.704	-8.31438
522.954	-15.0592
525.204	-9.77403
527.454	-7.60158
529.703	-8.23987
531.953	-2.16757
534.203	-13.5319
536.453	-18.9927
538.702	-7.01946
540.952	-10.0733
543.202	-12.907
545.452	-3.016
547.701	-5.99714
549.951	-13.0814
552.201	-3.97204
554.451	1.03929
556.7	7.92451
558.95	0.283616
561.2	-4.05659
563.45	-3.3909
565.699	-8.29888
567.949	-13.5747
570.199	1.44693
572.449	-3.89562
574.698	9.63861
576.948	-4.97159
579.198	6.25747
581.448	-9.25745
583.697	-0.66021
585.947	-3.80305
588.197	-4.65079
590.447	0.236882
592.696	0.512923
594.946	0.771706
597.196	-2.38423
599.446	-4.32787
601.695	-6.74764
603.945	-3.96013
606.195	-3.45895
608.445	-10.9148
610.695	3.04095
612.944	-11.6663
615.194	-5.52678
617.444	-0.232947
619.693	-2.18054
621.943	3.74902
624.193	-0.562254
626.443	-2.20224
628.693	-3.67272
630.942	3.09062
633.192	-14.6603
635.442	-16.1128
637.692	-10.7723
639.941	-0.432565
642.191	-5.00978
644.441	-0.630911
646.691	-11.1034
648.94	-8.49256
651.19	-6.38307
653.44	0.203843
655.69	1.33168
657.939	3.17858
660.189	1.42552
662.439	-11.0274
664.689	-12.5948
666.938	1.56874
669.188	-9.53079
671.438	-11.5776
673.688	0.540795
675.937	-9.32565
678.187	-16.8347
680.437	-6.24777
682.687	-8.38956
684.936	-4.08698
687.186	-9.12419
689.436	-2.96355
691.686	-8.63474
693.935	-17.6925
696.185	-6.75558
698.435	-6.95775
700.685	-4.27739
702.934	-19.7936
705.184	-12.752
707.434	-23.7364
709.684	-17.0122
711.933	-14.6836
714.183	0.246818
716.433	-11.666
718.683	-12.8039
720.932	-12.4538
723.182	-21.0145
725.432	-11.5432
727.682	-6.88018
729.932	-6.26651
732.181	-2.92321
734.431	-6.65569
736.681	-13.9957
738.931	-11.1697
741.18	-4.22269
743.43	-4.61372
745.68	-8.58382
747.93	-3.7835
750.179	-3.78729
752.429	-2.62341
754.679	-0.177576
756.929	-9.78424
759.178	-10.0914
761.428	-3.73152
763.678	-8.44821
765.928	-16.2086
768.177	-10.7274
770.427	-12.7363
772.677	-2.33557
774.927	-1.80937
777.176	-7.15405
779.426	7.99935
781.676	-7.9615
783.926	8.02879
786.175	-11.3943
788.425	-8.60352
790.675	-2.89862
792.925	-2.08054
795.174	18.8744
797.424	-1.0262
799.674	-4.97524
801.924	0.363309
804.173	7.94082
806.423	-10.1712
808.673	-2.43753
810.923	-9.85606
813.172	7.75058
815.422	-1.49968
817.672	1.99052
819.922	-4.25207
822.172	0.119415
824.421	-6.64379
826.671	-9.42692
828.921	-0.915739
831.171	1.72748
833.42	4.30894
835.67	2.84145
837.92	6.76704
840.17	2.89703
842.419	16.4018
844.669	20.9244
846.919	17.2288
849.169	9.98519
851.418	8.45327
853.668	12.8912
855.918	0.263242
858.168	18.33
860.417	5.65638
862.667	-0.76445
864.917	3.03126
867.167	9.97852
869.416	6.48239
871.666	-2.43962
873.916	-5.06066
876.166	8.61658
878.415	-1.03728
880.665	5.82509
882.915	0.414224
885.165	9.51523
887.414	2.35948
889.664	-0.432835
891.914	1.55898
894.164	6.6158
896.413	7.98619
898.663	5.37016
900.913	2.21203
903.163	3.98277
905.412	16.0318
907.662	7.67217
909.912	14.9705
912.162	21.6979
914.411	9.98654
916.661	6.6913
918.911	9.01078
921.161	11.1426
923.411	8.44793
925.66	10.1754
927.91	7.12482
930.16	11.3899
932.41	6.71606
934.659	16.4442
936.909	2.57015
939.159	8.76545
941.409	14.027
943.658	5.61688
945.908	4.62499
948.158	3.07673
950.408	16.0821
952.657	0.245438
954.907	4.6064
957.157	-1.54172
959.407	6.96763
961.656	9.69151
963.906	11.6215
966.156	11.6661
968.406	4.08034
970.655	2.53898
972.905	-1.03034
975.155	4.85058
977.405	-0.615188
979.654	9.75852
981.904	4.95854
984.154	10.6105
986.404	1.82856
988.653	9.85692
990.903	5.77245
993.153	-1.01688
995.403	12.7329
997.652	-2.01721
999.902	12.6568
1002.15	-2.69805
1004.4	-1.55907
1006.65	4.23489
1008.9	-7.9797
1011.15	3.83895
1013.4	7.04284
1015.65	-4.93106
1017.9	-2.67354
1020.15	3.9677
1022.4	-1.9142
1024.65	-3.40952
1026.9	-2.46654
1029.15	6.40506
1031.4	2.02724
1033.65	-0.386282
1035.9	3.55853
1038.15	-4.15577
1040.4	9.24903
1042.65	-2.25196
1044.9	-0.901621
1047.15	12.6482
1049.4	-0.162148
1051.65	-6.8409
1053.9	-3.94398
1056.15	5.79914
1058.4	-2.79584
1060.65	-3.17595
1062.9	-8.6789
1065.15	-5.79057
1067.39	2.79715
1069.64	-1.15806
1071.89	-11.0226
1074.14	1.52675
1076.39	4.82926
1078.64	-11.8006
1080.89	5.44828
1083.14	-1.11704
1085.39	3.96903
1087.64	7.00329
1089.89	-2.80455
1092.14	-10.4181
1094.39	-9.5179
1096.64	-8.04923
1098.89	3.43925
1101.14	2.40335
1103.39	-9.41508
1105.64	1.9184
1107.89	-5.38963
1110.14	8.33054
1112.39	5.53017
1114.64	8.27534
1116.89	4.80697
1119.14	2.83244
1121.39	22.0912
1123.64	9.97154
1125.89	0.186032
1128.14	10.1156
1130.39	29.7227
1132.64	12.9092
1134.89	20.5665
1137.14	15.1081
1139.39	25.5523
1141.64	25.3508
1143.89	31.8167
1146.14	17.1922
1148.39	36.1504
1150.64	37.8928
1152.89	40.9141
1155.14	43.2273
1157.39	46.0936
1159.63	47.0716
1161.88	31.9146
1164.13	31.1116
1166.38	57.9303
1168.63	51.6267
1170.88	45.1546
1173.13	41.6084
1175.38	28.7677
1177.63	36.6405
1179.88	39.3536
1182.13	50.2717
1184.38	55.9465
1186.63	46.842
1188.88	49.5809
1191.13	52.1175
1193.38	60.5565
1195.63	43.9545
1197.88	57.1322
1200.13	79.2105
1202.38	60.9776
1204.63	78.7387
1206.88	65.3434
1209.13	64.4769
1211.38	97.4241
1213.63	82.6137
1215.88	94.1203
1218.13	73.651
1220.38	101.393
1222.63	107.637
1224.88	84.2776
1227.13	126.73
1229.38	129.462
1231.63	101.061
1233.88	138.46
1236.13	138.485
1238.38	140.615
1240.63	147.253
1242.88	147.21
1245.13	154.791
1247.38	155.023
1249.625	177.935
1251.87	198.272
1254.12	193.499
1256.37	199.25
1258.62	238.584
1260.87	229.742
1263.12	214.068
1265.37	251.359
1267.62	247.818
1269.87	266.004
1272.12	285.195
1274.37	301.768
1276.62	308.976
1278.87	305.61
1281.12	332.426
1283.37	350.699
1285.62	366.589
1287.87	371.013
1290.12	402.592
1292.37	432.139
1294.62	426.38
1296.87	464.838
1299.12	500
1301.37	496.17
1303.62	518.378
1305.87	530.726
1308.12	588.044
1310.37	603.274
1312.62	585.933
1314.87	639.383
1317.12	672.811
1319.37	678.288
1321.62	722.708
1323.87	714.382
1326.12	724.684
1328.37	732.358
1330.62	762.101
1332.87	784.741
1335.12	785.024
1337.37	769.584
1339.62	770.75
1341.86	761.797
1344.11	746.962
1346.36	717.584
1348.61	734.278
1350.86	692.425
1353.11	694.845
1355.36	677.748
1357.61	635.467
1359.86	626.296
1362.11	598.311
1364.36	579.3
1366.61	533.257
1368.86	539.168
1371.11	503.134
1373.36	473.387
1375.61	464.838
1377.86	434.183
1380.11	422.263
1382.36	389.15
1384.61	352.532
1386.86	348.588
1389.11	318.801
1391.36	292.184
1393.61	244.635
1395.86	253.858
1398.11	244.442
1400.36	233.577
1402.61	215.96
1404.86	188.374
1407.11	169.533
1409.36	186.568
1411.61	166.867
1413.86	143.977
1416.11	141.296
1418.36	121.887
1420.61	109.436
1422.86	108.481
1425.11	84.1653
1427.36	91.5668
1429.61	79.2461
1431.86	65.8067
1434.1	61.4509
1436.35	52.5382
1438.6	50.3444
1440.85	32.3919
1443.1	54.5137
1445.35	22.576
1447.6	19.0876
1449.85	14.2344
1452.1	0.014359
1454.35	12.8756
1456.6	14.0712
1458.85	12.6773
1461.1	9.92849
1463.35	33.1709
1465.6	-1.66155
1467.85	19.9081
1470.1	11.9486
1472.35	17.8493
1474.6	10.4394
1476.85	13.8313
1479.1	-1.15788
1481.35	14.553
1483.6	20.7145
1485.85	-0.564549
1488.1	-9.55584
1490.35	1.36407
1492.6	-5.39908
1494.85	5.1382
1497.1	17.9175
1499.35	34.6419
1501.6	24.9392
1503.85	20.6453
1506.1	47.6651
1508.35	40.3005
1510.6	62.9361
1512.85	69.7431
1515.1	93.4308
1517.35	97.4679
1519.6	101.616
1521.85	113.94
1524.1	125.699
1526.34	150.041
1528.59	167.078
1530.84	170.318
1533.09	189.429
1535.34	209.128
1537.59	236.689
1539.84	245.4
1542.09	281.96
1544.34	307.121
1546.59	312.194
1548.84	333.666
1551.09	370.308
1553.34	394.863
1555.59	435.593
1557.84	460.034
1560.09	485.111
1562.34	513.631
1564.59	546.936
1566.84	574.546
1569.09	585.458
1571.34	651.202
1573.59	669.747
1575.84	713.151
1578.09	732.449
1580.34	754.995
1582.59	784.384
1584.84	776.573
1587.09	820.294
1589.34	826.788
1591.59	819.137
1593.84	804.34
1596.09	812.633
1598.34	813.789
1600.59	795.687
1602.84	760.597
1605.09	731.892
1607.34	726.035
1609.59	686.967
1611.84	640.442
1614.09	603.426
1616.34	556.185
1618.58	514.881
1620.83	469.942
1623.08	431.402
1625.33	391.24
1627.58	360.703
1629.83	327.576
1632.08	298.768
1634.33	266.339
1636.58	246.02
1638.83	224.439
1641.08	204.15
1643.33	179.88
1645.58	157.653
1647.83	133.34
1650.08	117.728
1652.33	105.774
1654.58	94.4101
1656.83	88.1562
1659.08	70.8483
1661.33	54.907
1663.58	70.0373
1665.83	48.7574
1668.08	41.3732
1670.33	18.2696
1672.58	21.2012
1674.83	28.2031
1677.08	19.0223
1679.33	14.1864
1681.58	5.70615
1683.83	21.3805
1686.08	19.8146
1688.33	16.1077
1690.58	17.8857
1692.83	15.9427
1695.08	12.1299
1697.33	9.10626
1699.58	-1.32992
1701.83	-8.08714
1704.08	2.6149
1706.33	5.28364
1708.58	-2.59704
1710.82	-0.185569
1713.07	2.23973
1715.32	-2.79923
1717.57	-0.977618
1719.82	-4.94014
1722.07	-8.49692
1724.32	-10.9128
1726.57	0.701113
1728.82	-17.0456
1731.07	-10.8749
1733.32	-5.65299
1735.57	0.526771
1737.82	3.85944
1740.07	-6.53251
1742.32	-10.6684
1744.57	-4.45562
1746.82	-1.28644
1749.07	-0.620407
1751.32	-4.79825
1753.57	0.379669
1755.82	1.77415
1758.07	-0.0522362
1760.32	-2.90328
1762.57	-7.63327
1764.82	-12.2161
1767.07	-5.25815
1769.32	-2.57512
1771.57	6.05073
1773.82	-7.42265
1776.07	-6.84138
1778.32	-10.1474
1780.57	0.604401
1782.82	4.96768
1785.07	4.43719
1787.32	-9.07615
1789.57	6.31217
1791.82	3.9684
1794.07	-0.359878
1796.32	-0.899507
1798.57	-8.0022
1800.82	-3.54859
1803.06	-4.06957
1805.31	-5.15582
1807.56	-0.923935
1809.81	-3.03626
1812.06	-3.61755
1814.31	-2.76011
1816.56	-5.5027
1818.81	-2.05852
1821.06	-3.84167
1823.31	-5.68844
1825.56	-7.25295
1827.81	-8.95059
1830.06	-2.32495
1832.31	-9.09005
1834.56	-2.75355
1836.81	-6.96818
1839.06	-3.78029
1841.31	-1.37591
1843.56	-10.3723
1845.81	-9.63921
1848.06	-1.71795
1850.31	-7.24288
1852.56	-15.2034
1854.81	-13.2866
1857.06	-2.09705
1859.31	-10.554
1861.56	-6.47223
1863.81	-8.9289
1866.06	-3.12305
1868.31	-9.99568
1870.56	0.027206
1872.81	-4.64078
1875.06	-4.95094
1877.31	-4.54567
1879.56	-1.43497
1881.81	-10.9208
1884.06	-13.3501
1886.31	-2.6504
1888.56	3.42999
1890.81	-13.3449
1893.06	-10.5445
1895.3	-4.39934
1897.55	-14.3346
1899.8	-10.773
1902.05	-16.5356
1904.3	-6.17035
1906.55	-11.7191
1908.8	-12.91
1911.05	-9.44952
1913.3	-8.61121
1915.55	-10.1878
1917.8	-8.52745
1920.05	-13.8694
1922.3	-12.2009
1924.55	-8.18029
1926.8	-7.61404
1929.05	-16.0594
1931.3	-10.1247
1933.55	-9.10826
1935.8	-1.64767
1938.05	-5.28002
1940.3	-6.98321
1942.55	-14.985
1944.8	-7.53113
1947.05	-8.03209
1949.3	-12.9403
1951.55	-2.17839
1953.8	-5.94451
1956.05	-10.3297
1958.3	-4.67677
1960.55	-8.36386
1962.8	-2.29378
1965.05	-8.09251
1967.3	-6.70709
1969.55	-2.25136
1971.8	-5.92545
1974.05	2.78359
1976.3	-10.0505
1978.55	-6.55339
1980.8	-5.628
1983.05	-0.594859
1985.3	1.84393
1987.54	-1.40857
1989.79	4.4789
1992.04	-3.46107
1994.29	-8.46546
1996.54	-1.86411
1998.79	-11.1521
2001.04	-2.72259
2003.29	-7.96013
2005.54	7.01458
2007.79	3.31124
2010.04	-6.60629
2012.29	-5.46558
2014.54	-0.802925
2016.79	-2.02546
2019.04	-3.25897
2021.29	-1.11352
2023.54	-5.04322
2025.79	3.50307
2028.04	0.144544
2030.29	2.43864
2032.54	-4.97286
2034.79	-0.430583
2037.04	1.88381
2039.29	3.82893
2041.54	-2.69222
2043.79	0.982277
2046.04	1.67107
2048.29	-4.27048
2050.54	1.92469
2052.79	-2.10272
2055.04	-4.5054
2057.29	-1.57657
2059.54	-3.47022
2061.79	-1.68597
2064.04	-3.04463
2066.29	-11.249
2068.54	-11.6392
2070.79	-5.02831
2073.04	-10.9579
2075.29	-4.6249
2077.54	-8.07908
2079.78	-0.0757739
2082.03	-6.21469
2084.28	1.40321
2086.53	-6.36275
2088.78	2.60503
2091.03	-3.55375
2093.28	-2.05612
2095.53	-5.26004
2097.78	-4.97045
2100.03	-7.45631
2102.28	-6.89624
2104.53	-9.42531
2106.78	-5.34804
2109.03	-3.10206
2111.28	-2.42722
2113.53	-5.50567
2115.78	-2.87512
2118.03	-8.45432
2120.28	0.386378
2122.53	-1.89788
2124.78	-5.5225
2127.03	-0.0766125
2129.28	-7.02049
2131.53	-3.65722
2133.78	3.42707
2136.03	-2.73765
2138.28	-2.16818
2140.53	-2.27809
2142.78	-0.198016
2145.03	-6.4932
2147.28	-6.54011
2149.53	-6.99669
2151.78	-3.95994
2154.03	-3.37911
2156.28	1.03608
2158.53	0.758644
2160.78	-2.01676
2163.03	-3.58314
2165.28	0.998976
2167.53	-8.66311
2169.78	0.0857016
2172.02	-12.0623
2174.27	-0.639984
2176.52	-5.26264
2178.77	0.570811
2181.02	-3.76876
2183.27	0.300633
2185.52	-7.14722
2187.77	0.566664
2190.02	-9.60711
2192.27	-4.78562
2194.52	-0.551692
2196.77	-3.10425
2199.02	-3.02855
2201.27	-3.01336
2203.52	-8.93491
2205.77	-0.75239
2208.02	-7.81747
2210.27	4.49585
2212.52	-4.5428
2214.77	-2.76893
2217.02	-9.37341
2219.27	1.51482
2221.52	-0.186889
2223.77	-3.29514
2226.02	-7.32744
2228.27	3.25256
2230.52	-6.27423
2232.77	-1.52756
2235.02	-0.992524
2237.27	0.436153
2239.52	-5.92673
2241.77	-4.00057
2244.02	-5.72282
2246.27	-0.542282
2248.52	-2.18021
2250.77	-10.5592
2253.02	3.43725
2255.27	-1.71446
2257.52	4.84311
2259.77	-0.169283
2262.01	9.71536
2264.26	-1.61997
2266.51	-0.21664
2268.76	-2.21843
2271.01	3.98814
2273.26	-0.138493
2275.51	1.51823
2277.76	-1.6535
2280.01	4.10013
2282.26	3.35556
2284.51	6.65469
2286.76	-0.590567
2289.01	2.52766
2291.26	2.95087
2293.51	1.98914
2295.76	7.9909
2298.01	0.533091
2300.26	-4.156
2302.51	2.97348
2304.76	2.5262
2307.01	-6.78781
2309.26	-3.89002
2311.51	-5.9466
2313.76	1.18555
2316.01	15.3133
2318.26	-0.267136
2320.51	16.4728
2322.76	9.0234
2325.01	8.19964
2327.26	17.0533
2329.51	45.0645
2331.76	24.5368
2334.01	4.65339
2336.26	-0.180902
2338.51	7.41037
2340.76	5.87454
2343.01	9.90446
2345.26	3.37648
2347.51	6.72674
2349.76	7.25884
2352.01	10.3221
2354.25	1.99629
2356.5	15.0022
2358.75	6.59065
2361	4.11875
2363.25	3.65811
2365.5	20.2796
2367.75	6.70199
2370	0.78158
2372.25	7.08771
2374.5	10.3011
2376.75	5.8436
2379	1.20634
2381.25	18.6142
2383.5	6.93914
2385.75	9.29664
2388	12.9075
2390.25	13.8655
2392.5	11.3666
2394.75	19.065
2397	9.95614
2399.25	15.1915
2400	17.1394