File: Example Data/Raman/CNT - TIM/Raytheon/Al foil/2010/11-22-10/CNT batch 22a - bottom_1.txt
100	54.8238
102.25	44.9497
104.5	72.215
106.749	115.514
108.999	51.0151
111.249	52.8548
113.499	62.7215
115.748	74.1131
117.998	68.3054
120.248	39.7704
122.498	74.0082
124.747	42.0911
126.997	25.1534
129.247	49.5839
131.497	42.7064
133.746	22.1693
135.996	18.7222
138.246	39.7888
140.496	31.9753
142.745	16.5627
144.995	24.664
147.245	26.9795
149.495	12.4433
151.744	26.6414
153.994	26.1559
156.244	3.53548
158.494	12.6875
160.743	7.25123
162.993	22.371
165.243	10.3511
167.493	5.15866
169.742	20.8037
171.992	7.57896
174.242	9.80544
176.492	3.44763
178.741	9.01936
180.991	0.202915
183.241	-3.34176
185.491	12.7864
187.74	8.94453
189.99	-0.264282
192.24	1.72823
194.49	4.56864
196.739	2.58865
198.989	-1.26683
201.239	8.53836
203.489	9.68358
205.739	4.77427
207.988	4.45632
210.238	7.75014
212.488	1.62845
214.738	4.13057
216.987	10.0645
219.237	-8.42621
221.487	1.82493
223.737	8.65361
225.986	5.12789
228.236	-1.09141
230.486	-1.18391
232.736	6.34719
234.985	5.62724
237.235	6.71022
239.485	16.5979
241.735	-3.10021
243.984	4.99981
246.234	10.2829
248.484	1.93196
250.734	-0.769312
252.983	6.55749
255.233	13.9848
257.483	7.01083
259.733	12.2615
261.982	-0.860238
264.232	7.92791
266.482	0.803533
268.732	7.58017
270.981	21.9482
273.231	9.8921
275.481	11.7152
277.731	3.58763
279.98	5.6841
282.23	8.31969
284.48	3.64089
286.73	5.86181
288.979	6.36119
291.229	9.66699
293.479	15.4585
295.729	19.6172
297.978	8.49909
300.228	-2.24124
302.478	11.241
304.728	-2.43029
306.978	16.1677
309.227	3.68959
311.477	-2.97841
313.727	6.82994
315.977	3.87406
318.226	-0.629508
320.476	4.22458
322.726	6.94286
324.976	-6.32307
327.225	4.793
329.475	-2.52599
331.725	4.57113
333.975	0.66204
336.224	9.59716
338.474	-0.427751
340.724	6.93115
342.974	7.06643
345.223	1.6256
347.473	4.28945
349.723	3.1074
351.973	1.04933
354.222	-1.27213
356.472	0.387139
358.722	5.95102
360.972	1.9594
363.221	-0.992916
365.471	6.83856
367.721	8.77686
369.971	4.66536
372.22	3.80892
374.47	0.922513
376.72	4.11805
378.97	16.3307
381.219	4.511
383.469	6.24227
385.719	4.58738
387.969	-4.85934
390.218	3.99385
392.468	13.9359
394.718	14.9514
396.968	3.61319
399.217	17.633
401.467	5.3706
403.717	5.42054
405.967	2.8011
408.216	9.14905
410.466	3.10762
412.716	5.50927
414.966	5.3709
417.216	9.67863
419.465	4.73788
421.715	12.3791
423.965	13.8386
426.215	7.3522
428.464	4.96108
430.714	10.491
432.964	12.5115
435.214	6.74746
437.463	-2.02145
439.713	14.3364
441.963	11.3281
444.213	18.4534
446.462	14.2442
448.712	15.3979
450.962	2.98372
453.212	12.5949
455.461	10.4338
457.711	12.694
459.961	3.41903
462.211	7.46624
464.46	7.65559
466.71	6.47822
468.96	12.5602
471.21	15.3607
473.459	2.41446
475.709	8.40537
477.959	6.56939
480.209	13.2672
482.458	7.32033
484.708	11.1348
486.958	5.89246
489.208	4.93918
491.457	4.04136
493.707	-3.77044
495.957	9.9994
498.207	3.8315
500.456	4.93661
502.706	-3.62598
504.956	4.18235
507.206	0.724982
509.456	6.47495
511.705	12.0625
513.955	1.67609
516.205	3.28365
518.455	4.85955
520.704	7.16702
522.954	5.6453
525.204	8.9327
527.454	8.30118
529.703	1.79488
531.953	3.30278
534.203	4.08544
536.453	1.43346
538.702	-3.0912
540.952	-0.812001
543.202	1.90243
545.452	4.75213
547.701	-2.77993
549.951	-4.83726
552.201	3.76025
554.451	-0.463814
556.7	-0.250487
558.95	-0.153433
561.2	1.51716
563.45	-6.16572
565.699	2.39644
567.949	-3.30468
570.199	0.489606
572.449	2.72839
574.698	7.09953
576.948	0.0963589
579.198	-2.06873
581.448	-0.67575
583.697	2.23143
585.947	3.22281
588.197	4.70686
590.447	-1.3693
592.696	-5.75656
594.946	7.58206
597.196	1.71796
599.446	6.01852
601.695	-14.1617
603.945	-4.84856
606.195	0.630807
608.445	-2.83936
610.695	3.18382
612.944	-3.10284
615.194	0.50404
617.444	-10.6827
619.693	3.86335
621.943	-5.63597
624.193	2.13838
626.443	-6.83124
628.693	-5.79579
630.942	7.17235
633.192	-9.23098
635.442	-5.54739
637.692	3.41001
639.941	0.941969
642.191	-12.1383
644.441	-1.13454
646.691	0.00939927
648.94	-1.19638
651.19	-3.83805
653.44	-6.15629
655.69	4.0221
657.939	-3.51681
660.189	-1.79417
662.439	-5.18199
664.689	0.948729
666.938	-1.4923
669.188	-2.10754
671.438	3.73228
673.688	-5.68574
675.937	0.668695
678.187	-1.66293
680.437	-10.1083
682.687	-5.4622
684.936	-0.939525
687.186	-3.40927
689.436	-5.32962
691.686	-4.25214
693.935	-9.88459
696.185	-7.07223
698.435	-6.83134
700.685	-3.12636
702.934	-10.0664
705.184	-4.82407
707.434	-3.53213
709.684	-4.30457
711.933	-6.50577
714.183	-4.2481
716.433	-4.54166
718.683	-13.6591
720.932	-11.0637
723.182	0.05327
725.432	0.313425
727.682	-1.73233
729.932	-6.26519
732.181	9.42038
734.431	-6.09107
736.681	8.98186
738.931	-2.5613
741.18	7.29687
743.43	4.43576
745.68	0.0104687
747.93	0.0496692
750.179	-8.57454
752.429	-2.87075
754.679	-3.56332
756.929	0.0494127
759.178	-0.163111
761.428	0.0533967
763.678	10.2283
765.928	-1.02823
768.177	-4.62639
770.427	-2.20731
772.677	-5.98498
774.927	-0.873906
777.176	3.99855
779.426	-4.60167
781.676	-0.334765
783.926	-4.79905
786.175	3.27162
788.425	6.85337
790.675	1.32971
792.925	7.91413
795.174	-0.317663
797.424	-1.15641
799.674	3.27074
801.924	2.02294
804.173	2.27658
806.423	9.34751
808.673	-2.78838
810.923	1.42292
813.172	1.97163
815.422	-1.85833
817.672	10.1342
819.922	7.51615
822.172	12.0204
824.421	4.64906
826.671	12.3064
828.921	3.95893
831.171	4.44134
833.42	13.7213
835.67	0.641784
837.92	4.63814
840.17	12.6837
842.419	6.09717
844.669	21.1935
846.919	2.01023
849.169	13.0853
851.418	17.071
853.668	13.1958
855.918	2.14808
858.168	5.39943
860.417	5.58024
862.667	1.09551
864.917	-1.07584
867.167	-4.54321
869.416	0.825679
871.666	-3.98086
873.916	0.477963
876.166	1.67563
878.415	3.80745
880.665	-0.431833
882.915	4.9456
885.165	6.46172
887.414	-1.57895
889.664	2.34002
891.914	-10.4624
894.164	1.96952
896.413	-1.0294
898.663	-4.98372
900.913	4.61101
903.163	2.45561
905.412	2.47196
907.662	3.27246
909.912	2.09846
912.162	-4.34875
914.411	0.172617
916.661	0.269303
918.911	-0.342217
921.161	-0.200365
923.411	0.748967
925.66	0.288493
927.91	-0.27217
930.16	-4.51665
932.41	-4.24391
934.659	0.42925
936.909	4.81517
939.159	-3.65738
941.409	-2.65491
943.658	2.78216
945.908	-4.25102
948.158	-5.71286
950.408	1.10501
952.657	-17.9029
954.907	-5.21257
957.157	-0.630838
959.407	-8.45307
961.656	-5.68161
963.906	-11.0559
966.156	-7.18994
968.406	1.89965
970.655	-4.80476
972.905	-11.2148
975.155	-14.2806
977.405	-5.23161
979.654	-16.8422
981.904	-13.2303
984.154	2.12758
986.404	-2.55448
988.653	-4.25142
990.903	-6.09585
993.153	-6.9214
995.403	-11.8504
997.652	2.40414
999.902	-4.90571
1002.15	-1.1917
1004.4	-0.640247
1006.65	-10.3064
1008.9	-3.10093
1011.15	-8.53922
1013.4	-12.1225
1015.65	8.51648
1017.9	-8.82036
1020.15	5.48672
1022.4	2.47427
1024.65	1.38312
1026.9	-0.941589
1029.15	-0.0212727
1031.4	3.91507
1033.65	-1.24749
1035.9	-6.44793
1038.15	2.2927
1040.4	-7.56283
1042.65	-8.39221
1044.9	3.66399
1047.15	9.28715
1049.4	-0.231586
1051.65	-3.73368
1053.9	-2.69025
1056.15	-4.12609
1058.4	-1.7324
1060.65	4.37957
1062.9	2.03691
1065.15	-2.2019
1067.39	0.0971525
1069.64	-2.86396
1071.89	-1.97682
1074.14	0.396312
1076.39	-1.343
1078.64	0.0773147
1080.89	-5.69779
1083.14	6.21611
1085.39	0.934382
1087.64	-6.08856
1089.89	0.597913
1092.14	-13.5736
1094.39	-9.04189
1096.64	-1.96949
1098.89	0.690798
1101.14	-6.84961
1103.39	-10.1499
1105.64	-7.3338
1107.89	0.779899
1110.14	1.87822
1112.39	-7.17342
1114.64	-9.44781
1116.89	-10.4464
1119.14	-13.8711
1121.39	-1.32259
1123.64	-9.55495
1125.89	-0.935981
1128.14	4.68232
1130.39	2.73717
1132.64	-3.39722
1134.89	3.19684
1137.14	-1.359
1139.39	3.4186
1141.64	7.35513
1143.89	-1.98833
1146.14	5.24465
1148.39	20.5784
1150.64	1.64354
1152.89	12.5911
1155.14	18.6788
1157.39	13.8215
1159.63	10.4444
1161.88	14.9642
1164.13	8.02919
1166.38	15.109
1168.63	6.76441
1170.88	16.182
1173.13	13.6831
1175.38	14.2177
1177.63	15.4697
1179.88	20.7777
1182.13	23.147
1184.38	17.8874
1186.63	31.3713
1188.88	22.6077
1191.13	22.1073
1193.38	27.6944
1195.63	31.7343
1197.88	30.2276
1200.13	30.1556
1202.38	19.2218
1204.63	30.4183
1206.88	22.4008
1209.13	38.2873
1211.38	35.9821
1213.63	29.0806
1215.88	60.514
1218.13	59.3157
1220.38	43.0927
1222.63	42.9546
1224.88	52.089
1227.13	64.1872
1229.38	61.0613
1231.63	54.874
1233.88	63.4813
1236.13	69.5275
1238.38	88.4988
1240.63	90.4688
1242.88	95.9108
1245.13	94.4721
1247.38	93.525
1249.625	98.6407
1251.87	108.884
1254.12	112.13
1256.37	133.476
1258.62	136.802
1260.87	141.101
1263.12	147.944
1265.37	160.107
1267.62	150.575
1269.87	151.198
1272.12	170.811
1274.37	179.065
1276.62	190.698
1278.87	200.842
1281.12	211.443
1283.37	210.094
1285.62	233.288
1287.87	246.461
1290.12	244.18
1292.37	283.785
1294.62	289.514
1296.87	318.154
1299.12	328.857
1301.37	340.832
1303.62	357.655
1305.87	369.21
1308.12	392.53
1310.37	412.963
1312.62	423.897
1314.87	439.294
1317.12	458.217
1319.37	464.604
1321.62	510.199
1323.87	509.844
1326.12	520.227
1328.37	533.342
1330.62	547.559
1332.87	572.519
1335.12	569.8
1337.37	568.322
1339.62	560.314
1341.86	572.212
1344.11	532.483
1346.36	550.092
1348.61	532.86
1350.86	503.497
1353.11	522.312
1355.36	504.588
1357.61	463.696
1359.86	456.954
1362.11	441.886
1364.36	425.659
1366.61	392.305
1368.86	389.544
1371.11	370.062
1373.36	332.054
1375.61	335.65
1377.86	313.667
1380.11	297.738
1382.36	255.642
1384.61	246.553
1386.86	219.481
1389.11	213.069
1391.36	201.508
1393.61	223.577
1395.86	204.593
1398.11	168.312
1400.36	170.481
1402.61	150.754
1404.86	139.811
1407.11	121.566
1409.36	132.632
1411.61	96.8009
1413.86	109.704
1416.11	84.6714
1418.36	87.619
1420.61	62.6388
1422.86	69.8157
1425.11	49.7803
1427.36	41.8227
1429.61	62.4533
1431.86	49.4403
1434.1	52.2149
1436.35	45.2826
1438.6	37.1751
1440.85	25.8269
1443.1	22.8324
1445.35	32.9842
1447.6	6.77319
1449.85	7.51212
1452.1	31.8231
1454.35	6.89154
1456.6	4.5821
1458.85	10.2774
1461.1	-11.2387
1463.35	2.91694
1465.6	-5.37063
1467.85	11.5255
1470.1	10.4798
1472.35	8.43702
1474.6	-12.841
1476.85	8.30118
1479.1	-1.09738
1481.35	7.7728
1483.6	-10.5453
1485.85	-16.1362
1488.1	-7.34759
1490.35	-9.50494
1492.6	-2.87582
1494.85	-1.37097
1497.1	8.26084
1499.35	6.4143
1501.6	14.2472
1503.85	30.4661
1506.1	29.399
1508.35	26.0469
1510.6	28.8073
1512.85	52.139
1515.1	66.5525
1517.35	58.0889
1519.6	64.6434
1521.85	84.9948
1524.1	97.4577
1526.34	100.641
1528.59	118.899
1530.84	125.614
1533.09	139.372
1535.34	147.607
1537.59	160.033
1539.84	200.355
1542.09	189.641
1544.34	225.306
1546.59	223.64
1548.84	249.471
1551.09	281.753
1553.34	309.615
1555.59	322.734
1557.84	343.675
1560.09	363.102
1562.34	388.694
1564.59	404.968
1566.84	440.128
1569.09	463.948
1571.34	503.224
1573.59	529.144
1575.84	536.519
1578.09	544.549
1580.34	556.27
1582.59	575.856
1584.84	601.769
1587.09	589.377
1589.34	605.101
1591.59	612.799
1593.84	602.795
1596.09	611.034
1598.34	595.705
1600.59	589.788
1602.84	571.782
1605.09	561.919
1607.34	545.457
1609.59	509.202
1611.84	481.712
1614.09	461.302
1616.34	421.872
1618.58	379.032
1620.83	369.686
1623.08	341.092
1625.33	314.136
1627.58	262.757
1629.83	265.247
1632.08	239.078
1634.33	219.208
1636.58	181.813
1638.83	169.615
1641.08	152.876
1643.33	154.366
1645.58	119.57
1647.83	130.967
1650.08	105.735
1652.33	79.2461
1654.58	83.4669
1656.83	63.6741
1659.08	56.5317
1661.33	59.6894
1663.58	34.494
1665.83	39.1126
1668.08	29.7181
1670.33	15.7742
1672.58	33.8362
1674.83	25.0549
1677.08	14.9301
1679.33	10.9069
1681.58	17.4643
1683.83	15.6881
1686.08	15.5865
1688.33	6.78462
1690.58	0.609656
1692.83	0.909597
1695.08	5.04142
1697.33	10.5489
1699.58	-1.84619
1701.83	-3.28494
1704.08	11.1913
1706.33	2.14595
1708.58	4.23806
1710.82	1.60311
1713.07	-4.1065
1715.32	-4.93479
1717.57	0.838396
1719.82	3.85626
1722.07	2.75678
1724.32	0.0328166
1726.57	5.7544
1728.82	-0.980107
1731.07	-5.56997
1733.32	1.0213
1735.57	-2.21936
1737.82	4.56433
1740.07	1.70862
1742.32	-0.901125
1744.57	-0.899553
1746.82	1.58921
1749.07	4.12324
1751.32	1.94779
1753.57	-3.95724
1755.82	-2.56144
1758.07	10.2521
1760.32	5.17227
1762.57	2.36777
1764.82	10.0286
1767.07	7.32986
1769.32	-0.613342
1771.57	0.210052
1773.82	-0.810593
1776.07	-6.33927
1778.32	-0.000854492
1780.57	-6.64901
1782.82	-0.544365
1785.07	0.258865
1787.32	-5.24449
1789.57	2.37856
1791.82	-4.25312
1794.07	-11.5824
1796.32	-2.3494
1798.57	-1.56028
1800.82	-3.86983
1803.06	-1.42885
1805.31	0.119023
1807.56	0.881513
1809.81	5.20919
1812.06	-3.17716
1814.31	4.98692
1816.56	-8.03397
1818.81	-1.49481
1821.06	-0.51483
1823.31	-4.49146
1825.56	-2.0234
1827.81	-0.688725
1830.06	-2.37262
1832.31	-5.46181
1834.56	-2.15784
1836.81	1.17592
1839.06	0.633063
1841.31	-3.37518
1843.56	0.0446854
1845.81	-2.91328
1848.06	-3.01649
1850.31	2.04028
1852.56	-4.38
1854.81	-14.5154
1857.06	-10.2554
1859.31	-2.63606
1861.56	0.464071
1863.81	0.427786
1866.06	2.79731
1868.31	1.36235
1870.56	-2.63984
1872.81	-3.69326
1875.06	4.36756
1877.31	0.204523
1879.56	2.01347
1881.81	-0.589325
1884.06	-5.84135
1886.31	3.53067
1888.56	-2.76787
1890.81	-4.44076
1893.06	-6.45434
1895.3	-2.49943
1897.55	-6.23838
1899.8	1.63902
1902.05	-0.73069
1904.3	-7.40712
1906.55	-1.74062
1908.8	-7.80846
1911.05	-4.2705
1913.3	-5.88762
1915.55	-4.69463
1917.8	1.69644
1920.05	-1.08056
1922.3	-5.24867
1924.55	0.312874
1926.8	0.715256
1929.05	-5.62908
1931.3	-4.69201
1933.55	-7.96436
1935.8	-5.4262
1938.05	-3.02088
1940.3	-7.98405
1942.55	-4.73893
1944.8	-4.03233
1947.05	-1.49179
1949.3	-3.44584
1951.55	-6.01378
1953.8	4.70072
1956.05	-4.53193
1958.3	-2.20634
1960.55	-8.45163
1962.8	-5.97077
1965.05	-8.04484
1967.3	-6.13688
1969.55	-6.92997
1971.8	1.24207
1974.05	-11.4457
1976.3	-6.76192
1978.55	-7.01311
1980.8	-9.15662
1983.05	-4.93729
1985.3	-6.04089
1987.54	-6.47448
1989.79	-1.61062
1992.04	-4.55415
1994.29	-0.727913
1996.54	-6.21455
1998.79	-2.27599
2001.04	-3.3777
2003.29	-8.84975
2005.54	-6.76215
2007.79	-2.35004
2010.04	0.437508
2012.29	3.55963
2014.54	-1.44889
2016.79	-0.612701
2019.04	-6.77845
2021.29	-4.75359
2023.54	0.130188
2025.79	-9.4785
2028.04	0.0834122
2030.29	1.03358
2032.54	-6.59197
2034.79	-0.247505
2037.04	-2.73956
2039.29	-2.74703
2041.54	0.112244
2043.79	-3.19696
2046.04	-4.54332
2048.29	-0.461449
2050.54	-3.17819
2052.79	1.47032
2055.04	2.19496
2057.29	-0.649094
2059.54	-0.516296
2061.79	0.45826
2064.04	1.68788
2066.29	2.19498
2068.54	-1.19634
2070.79	1.90552
2073.04	4.66299
2075.29	3.36946
2077.54	-0.0451355
2079.78	1.46233
2082.03	-0.333961
2084.28	-3.19683
2086.53	1.12199
2088.78	-1.8841
2091.03	-2.18459
2093.28	-4.64499
2095.53	-1.45296
2097.78	-1.73855
2100.03	-4.3098
2102.28	-1.56663
2104.53	-1.64671
2106.78	-4.57716
2109.03	0.375267
2111.28	-2.29341
2113.53	-5.13251
2115.78	2.68955
2118.03	2.11422
2120.28	-2.16103
2122.53	1.86911
2124.78	-1.79483
2127.03	3.80411
2129.28	1.47002
2131.53	-2.32763
2133.78	2.68478
2136.03	2.50444
2138.28	-4.74092
2140.53	-3.65718
2142.78	1.91228
2145.03	3.03791
2147.28	-1.29483
2149.53	-2.14001
2151.78	5.11829
2154.03	-1.75871
2156.28	7.77164
2158.53	2.67896
2160.78	0.510658
2163.03	7.31494
2165.28	1.63522
2167.53	4.32124
2169.78	3.3821
2172.02	4.35667
2174.27	3.38657
2176.52	1.84441
2178.77	1.20515
2181.02	4.31011
2183.27	0.229195
2185.52	0.87571
2187.77	3.32784
2190.02	8.56828
2192.27	7.15363
2194.52	3.48244
2196.77	-1.72867
2199.02	4.35799
2201.27	3.35818
2203.52	5.17734
2205.77	6.06919
2208.02	4.45945
2210.27	5.82381
2212.52	1.70273
2214.77	8.65366
2217.02	-2.01877
2219.27	6.61312
2221.52	8.05418
2223.77	1.91455
2226.02	9.53174
2228.27	1.23363
2230.52	4.28114
2232.77	6.56795
2235.02	9.61023
2237.27	4.86959
2239.52	6.50943
2241.77	4.71882
2244.02	5.00617
2246.27	7.10093
2248.52	12.0057
2250.77	8.45386
2253.02	10.4109
2255.27	9.18517
2257.52	8.50612
2259.77	0.624298
2262.01	2.82323
2264.26	8.1543
2266.51	5.42587
2268.76	8.39157
2271.01	6.90701
2273.26	11.871
2275.51	2.81738
2277.76	10.2635
2280.01	12.4961
2282.26	11.138
2284.51	10.6697
2286.76	13.5389
2289.01	8.95499
2291.26	14.3147
2293.51	4.47707
2295.76	13.0116
2298.01	9.50724
2300.26	6.64951
2302.51	16.8825
2304.76	8.73656
2307.01	9.04976
2309.26	11.7244
2311.51	13.146
2313.76	22.302
2316.01	8.82719
2318.26	8.40491
2320.51	14.4283
2322.76	20.2838
2325.01	10.4476
2327.26	27.0354
2329.51	54.0578
2331.76	23.5744
2334.01	17.3591
2336.26	12.3705
2338.51	21.8058
2340.76	13.6742
2343.01	8.9492
2345.26	9.95829
2347.51	15.2664
2349.76	9.98979
2352.01	20.152
2354.25	13.0455
2356.5	12.5362
2358.75	20.1552
2361	9.44637
2363.25	13.71
2365.5	14.2775
2367.75	15.7122
2370	15.0262
2372.25	15.3929
2374.5	21.2433
2376.75	18.4133
2379	17.3004
2381.25	17.9749
2383.5	24.7322
2385.75	24.0225
2388	17.6757
2390.25	17.1721
2392.5	26.9917
2394.75	29.6189
2397	26.1989
2399.25	21.7175
2400	26.9997