File: Example Data/Raman/CNT - TIM/Raytheon/FeSi adhesion/Test 6/FeSi2-T6c-0Al-hSi - aligned region -_1.txt
100	75.1463
102.143	73.4662
104.287	69.0859
106.43	76.2403
108.574	98.7917
110.717	75.5153
112.86	66.9302
115.004	68.3179
117.147	72.801
119.29	71.459
121.434	60.0501
123.577	69.8856
125.721	70.4898
127.864	60.5145
130.007	65.4677
132.151	65.015
134.294	55.7927
136.438	51.1821
138.581	54.56
140.724	66.6311
142.868	55.7983
145.011	54.7654
147.154	52.7979
149.298	57.8835
151.441	57.798
153.585	55.3476
155.728	59.781
157.871	51.6001
160.015	49.5738
162.158	54.1584
164.302	62.8008
166.445	50.5495
168.588	53.864
170.732	53.6652
172.875	54.4824
175.018	45.8748
177.162	50.5094
179.305	54.3785
181.449	51.4591
183.592	50.6642
185.735	49.7185
187.879	52.0521
190.022	48.5307
192.166	50.2874
194.309	47.7088
196.452	51.794
198.596	47.1528
200.739	52.094
202.882	51.9768
205.026	44.7686
207.169	52.8721
209.313	48.9679
211.456	53.7587
213.599	52.0913
215.743	49.9729
217.886	54.0945
220.03	49.1321
222.173	52.6092
224.316	49.7931
226.46	50.0599
228.603	53.153
230.746	59.229
232.89	51.605
235.033	48.585
237.177	51.5637
239.32	49.727
241.463	54.4093
243.607	54.1453
245.75	57.9119
247.894	56.6988
250.037	51.401
252.18	58.8196
254.324	55.2943
256.467	51.4083
258.611	56.8951
260.754	57.9534
262.897	55.9386
265.041	54.6674
267.184	52.641
269.327	327.689
271.471	53.1549
273.614	46.4125
275.758	54.881
277.901	50.4355
280.044	52.031
282.188	49.0202
284.331	51.0528
286.474	49.0168
288.618	50.6783
290.761	51.4374
292.905	52.3813
295.048	47.1075
297.191	48.8954
299.335	47.714
301.478	42.9968
303.622	45.6953
305.765	44.9954
307.908	50.4614
310.052	46.2389
312.195	46.8356
314.339	46.6269
316.482	44.2296
318.625	47.8906
320.769	46.3815
322.912	48.2327
325.055	42.3446
327.199	45.7511
329.342	46.0625
331.486	42.4503
333.629	41.9452
335.772	42.6086
337.916	42.3861
340.059	45.255
342.203	42.7011
344.346	45.2543
346.489	41.2384
348.633	43.9078
350.776	43.702
352.919	46.473
355.063	41.5612
357.206	45.1192
359.35	45.4947
361.493	38.3375
363.636	41.6591
365.78	40.3639
367.923	41.6939
370.067	37.9182
372.21	40.9996
374.353	42.7943
376.497	41.4153
378.64	44.9716
380.783	38.5964
382.927	40.7902
385.07	41.6979
387.214	38.1881
389.357	42.1542
391.5	41.957
393.644	39.2526
395.787	41.031
397.931	38.9882
400.074	40.9398
402.217	40.8613
404.361	39.1203
406.504	45.6091
408.647	39.2622
410.791	40.5015
412.934	38.3678
415.078	39.517
417.221	39.7997
419.364	40.908
421.508	40.3196
423.651	36.0698
425.795	34.3946
427.938	34.7813
430.081	42.9689
432.225	35.0908
434.368	37.5516
436.511	34.9602
438.655	38.1254
440.798	38.7108
442.942	41.6139
445.085	35.1492
447.228	34.6027
449.372	35.9259
451.515	34.3292
453.659	40.6102
455.802	37.8936
457.945	40.7065
460.089	37.235
462.232	34.5613
464.375	34.8
466.519	38.362
468.662	36.0308
470.806	29.7243
472.949	38.305
475.092	33.0291
477.236	33.2775
479.379	31.8039
481.523	35.3593
483.666	41.1174
485.809	34.1313
487.953	37.1421
490.096	32.4656
492.239	33.8476
494.383	34.1629
496.526	29.8949
498.67	33.4591
500.813	30.5773
502.956	39.0084
505.1	31.1719
507.243	31.5635
509.387	31.2709
511.53	31.2066
513.673	30.022
515.817	31.1445
517.96	36.5799
520.103	36.2797
522.247	26.3826
524.39	30.4124
526.534	29.6125
528.677	30.0379
530.82	30.5696
532.964	29.1299
535.107	30.2
537.251	29.077
539.394	32.0364
541.537	27.4988
543.681	29.3435
545.824	29.6456
547.967	31.5021
550.111	31.7874
552.254	29.6082
554.398	30.4163
556.541	32.3189
558.684	29.0552
560.828	30.901
562.971	33.6831
565.115	32.8491
567.258	31.4424
569.401	33.6779
571.545	29.355
573.688	30.7921
575.831	31.7146
577.975	32.5161
580.118	30.9231
582.262	33.5057
584.405	33.6407
586.548	30.9392
588.692	32.4608
590.835	25.9985
592.979	33.0214
595.122	33.2659
597.265	31.7069
599.409	34.3568
601.552	30.8196
603.695	33.7376
605.839	29.0048
607.982	31.1896
610.126	31.6088
612.269	31.6919
614.412	31.9577
616.556	34.7195
618.699	30.6
620.843	29.8718
622.986	36.1934
625.129	32.9494
627.273	34.256
629.416	36.1012
631.56	34.8177
633.703	31.5625
635.846	34.0678
637.99	40.3103
640.133	35.4623
642.276	32.343
644.42	34.735
646.563	38.0829
648.707	33.2212
650.85	35.5004
652.993	32.2616
655.137	30.8
657.28	32.1815
659.424	33.4315
661.567	35.6508
663.71	34.5298
665.854	33.7444
667.997	32.4922
670.14	37.0151
672.284	34.93
674.427	34.3614
676.571	36.9335
678.714	34.4326
680.857	33.0296
683.001	35.7362
685.144	31.8361
687.288	37.2917
689.431	37.3928
691.574	33.7159
693.718	38
695.861	35.9682
698.004	32.7034
700.148	34.1055
702.291	35.6101
704.435	35.6203
706.578	35.7581
708.721	37.0906
710.865	38.1121
713.008	37.0691
715.151	38.5208
717.295	38.7794
719.438	39.4112
721.582	35.0267
723.725	37.6882
725.868	38.6243
728.012	41.2806
730.155	36.5016
732.299	42.6368
734.442	39.1395
736.585	39.4456
738.729	40.1248
740.872	38.0911
743.016	38.2075
745.159	44.3968
747.302	37.6812
749.446	41.1249
751.589	37.7552
753.732	40.6104
755.876	43.0338
758.019	41.82
760.163	39.8563
762.306	44.9135
764.449	41.3701
766.593	42.0188
768.736	41.2972
770.88	45.9464
773.023	43.8865
775.166	45.0632
777.31	41.0364
779.453	45.4567
781.596	41.2
783.74	44.0257
785.883	47.623
788.027	43.2444
790.17	39.2451
792.313	45.3197
794.457	43.2163
796.6	45.1365
798.744	47.3198
800.887	48.0727
803.03	46.3927
805.174	46.2734
807.317	50.6553
809.46	43.8999
811.604	47.5238
813.747	46.4006
815.891	49.5098
818.034	44.3304
820.177	43.7168
822.321	46.5421
824.464	48.7415
826.608	49.4521
828.751	46.3273
830.894	49.5405
833.038	45.9995
835.181	46.1837
837.324	47.1833
839.468	47.6725
841.611	53.4756
843.755	52.1825
845.898	47.5618
848.041	46.5667
850.185	51.5843
852.328	46.8969
854.472	47.1484
856.615	49.1071
858.758	46.1345
860.902	47.6299
863.045	47.5959
865.188	47.0955
867.332	46.2994
869.475	42.5132
871.619	44.3136
873.762	39.6936
875.905	44.1319
878.049	46.5123
880.192	41.2527
882.336	40.8524
884.479	40.8385
886.622	41.6762
888.766	37.5538
890.909	39.8655
893.052	38.0552
895.196	40.0678
897.339	36.765
899.483	38.1818
901.626	37.342
903.769	35.0587
905.913	37.3508
908.056	35.766
910.2	33.9141
912.343	38.4722
914.486	39.5179
916.63	37.0491
918.773	36.1081
920.917	61.828
923.06	37.0352
925.203	33.2317
927.347	33.8591
929.49	36.7631
931.633	33.5769
933.777	33.8551
935.92	32.0023
938.064	34.8451
940.207	32.7852
942.35	33.3346
944.494	33.6022
946.637	33.8741
948.781	38.2734
950.924	35.233
953.067	29.8966
955.211	36.4323
957.354	34.2315
959.497	31.8116
961.641	32.5872
963.784	31.5239
965.928	32.9501
968.071	30.4199
970.214	31.6198
972.358	31.5464
974.501	37.4028
976.644	36.5909
978.788	30.0691
980.931	30.7499
983.075	33.2939
985.218	35.3277
987.361	32.6131
989.505	35.1952
991.648	32.967
993.792	33.5184
995.935	35.5607
998.078	34.2327
1000.22	32.7212
1002.37	36.7092
1004.51	36.516
1006.65	31.5983
1008.8	32.696
1010.94	33.6233
1013.08	34.509
1015.23	35.3934
1017.37	35.8574
1019.51	36.3482
1021.66	38.2871
1023.8	36.852
1025.94	37.9309
1028.09	39.3099
1030.23	41.5818
1032.37	37.5743
1034.52	43.766
1036.66	38.6587
1038.8	37.6864
1040.95	37.8714
1043.09	39.6794
1045.23	38.3184
1047.38	37.3829
1049.52	42.4732
1051.66	40.4308
1053.81	36.2503
1055.95	41.2032
1058.09	37.3983
1060.24	45.1205
1062.38	38.1231
1064.52	39.5849
1066.67	38.3168
1068.81	38.1294
1070.95	37.5756
1073.1	40.1371
1075.24	39.1033
1077.38	43.3443
1079.53	41.0656
1081.67	37.9379
1083.81	41.2414
1085.96	42
1088.1	41.9344
1090.24	45.303
1092.39	41.8
1094.53	44.07
1096.67	42.2851
1098.82	45.4641
1100.96	44.1965
1103.1	44.5831
1105.25	42.5541
1107.39	44.442
1109.53	42.0171
1111.68	42.5701
1113.82	45.083
1115.96	43.9435
1118.11	45.0284
1120.25	40.4171
1122.39	42.5338
1124.54	43.3756
1126.68	43.9202
1128.82	45.4039
1130.97	44.7832
1133.11	45.2459
1135.26	46.229
1137.4	47.6043
1139.54	48.3227
1141.69	46.9559
1143.83	46.7658
1145.97	46.3496
1148.12	48.8527
1150.26	44.7328
1152.4	49.407
1154.55	49.7297
1156.69	44.3007
1158.83	53.863
1160.98	50.5174
1163.12	50.3566
1165.26	50.4316
1167.41	48.4266
1169.55	51.8476
1171.69	54.3487
1173.84	51.7837
1175.98	51.9673
1178.12	49.3197
1180.27	51.0281
1182.41	53.5773
1184.55	49.701
1186.7	48.3017
1188.84	55.4857
1190.98	51.6095
1193.13	56.4254
1195.27	52.5047
1197.41	55.3891
1199.56	59.9341
1201.7	57.1292
1203.84	56.2626
1205.99	53.9795
1208.13	53.9722
1210.27	58.5441
1212.42	57.4537
1214.56	55.8802
1216.7	52.4609
1218.85	58.0661
1220.99	62.4463
1223.13	65.5502
1225.28	63.0622
1227.42	63.1239
1229.56	60.4104
1231.71	64.811
1233.85	60.5791
1235.99	60.7489
1238.14	63.698
1240.28	68.5784
1242.42	66.8049
1244.57	63.4207
1246.71	63.8542
1248.85	76.3131
1251	74.0653
1253.14	68.2736
1255.28	79.5417
1257.43	74.9064
1259.57	75.1262
1261.71	78.3253
1263.86	77.4298
1266	83.787
1268.14	80.781
1270.29	91.9182
1272.43	85.2506
1274.58	87.7688
1276.72	92.7199
1278.86	96.5703
1281.01	95.3221
1283.15	83.6563
1285.29	92.0257
1287.44	104.637
1289.58	99.9787
1291.72	112.595
1293.87	120.164
1296.01	116.845
1298.15	122.18
1300.3	128.461
1302.44	142.293
1304.58	139.595
1306.73	151.596
1308.87	157.96
1311.01	160.209
1313.16	175.555
1315.3	176.374
1317.44	197.862
1319.59	191.889
1321.73	212.468
1323.87	211.754
1326.02	234.159
1328.16	241.155
1330.3	258.999
1332.45	255.898
1334.59	259.489
1336.73	259.11
1338.88	277.543
1341.02	278.889
1343.16	272.08
1345.31	261.368
1347.45	260.669
1349.59	261.995
1351.74	252.154
1353.88	236.945
1356.02	225.335
1358.17	223.09
1360.31	208.526
1362.45	198.483
1364.6	194.762
1366.74	190.966
1368.88	170.33
1371.03	172.052
1373.17	157.797
1375.31	148.81
1377.46	151.89
1379.6	135.093
1381.74	129.462
1383.89	135.55
1386.03	124.756
1388.17	119.127
1390.32	113.469
1392.46	110.009
1394.6	105.154
1396.75	99.7829
1398.89	107.035
1401.03	100.095
1403.18	90.0563
1405.32	91.059
1407.46	92.8322
1409.61	92.8412
1411.75	86.9364
1413.9	86.6972
1416.04	86.4884
1418.18	84.8736
1420.33	86.5455
1422.47	77.6314
1424.61	82.9446
1426.76	73.4459
1428.9	71.1273
1431.04	77.1935
1433.19	79.1869
1435.33	79.3525
1437.47	73.5691
1439.62	76.5695
1441.76	71.2112
1443.9	70.82
1446.05	79.4904
1448.19	79.428
1450.33	78.4182
1452.48	76.0602
1454.62	82.0756
1456.76	76.1016
1458.91	77.5081
1461.05	74.3394
1463.19	72.8139
1465.34	78.3015
1467.48	81.4856
1469.62	76.5306
1471.77	78.4241
1473.91	78.3458
1476.05	78.9939
1478.2	69.4541
1480.34	76.3253
1482.48	74.4036
1484.63	79.0489
1486.77	83.191
1488.91	72.319
1491.06	80.8093
1493.2	81.2699
1495.34	80.9169
1497.49	77.7879
1499.63	79.4153
1501.77	87.4127
1503.92	81.307
1506.06	85.8372
1508.2	80.8278
1510.35	85.4768
1512.49	90.4554
1514.63	89.0096
1516.78	84.9763
1518.92	88.4671
1521.06	90.2265
1523.21	94.3146
1525.35	103.926
1527.49	99.626
1529.64	106.041
1531.78	106.774
1533.92	109.756
1536.07	120.688
1538.21	122.875
1540.35	131.525
1542.5	138.37
1544.64	146.045
1546.78	151.627
1548.93	164.248
1551.07	176.735
1553.22	187.787
1555.36	209.583
1557.5	214.145
1559.65	223.266
1561.79	231.782
1563.93	245.957
1566.08	269.965
1568.22	280.123
1570.36	291.053
1572.51	290.91
1574.65	303.851
1576.79	304.532
1578.94	312.137
1581.08	301.434
1583.22	296.648
1585.37	295.07
1587.51	290.022
1589.65	279.758
1591.8	274.949
1593.94	261.642
1596.08	256.642
1598.23	255.513
1600.37	250.434
1602.51	238.727
1604.66	231.643
1606.8	223.064
1608.94	223.154
1611.09	216.477
1613.23	208.191
1615.37	199.917
1617.52	183.383
1619.66	176.593
1621.8	164.404
1623.95	151.424
1626.09	144.016
1628.23	132.391
1630.38	125.059
1632.52	109.896
1634.66	101.971
1636.81	94.6394
1638.95	91.7038
1641.09	84.9011
1643.24	81.068
1645.38	70.1471
1647.52	69.3919
1649.67	64.2891
1651.81	61.6856
1653.95	51.9945
1656.1	58.1862
1658.24	47.0232
1660.38	50.6
1662.53	42.6087
1664.67	45.4107
1666.81	43.3046
1668.96	38.7863
1671.1	42.6552
1673.24	43.6586
1675.39	40.898
1677.53	37.1301
1679.67	40.2301
1681.82	30.0937
1683.96	32.2837
1686.1	35.5818
1688.25	35.6824
1690.39	32.3132
1692.54	38.4843
1694.68	30.0056
1696.82	33.2027
1698.97	25.6523
1701.11	28.7299
1703.25	31.9667
1705.4	27.8826
1707.54	27.2685
1709.68	27.4416
1711.83	24.9356
1713.97	27.6628
1716.11	28.307
1718.26	27.2529
1720.4	31.725
1722.54	28.7398
1724.69	26.621
1726.83	25.3258
1728.97	28.4243
1731.12	26.0821
1733.26	28.083
1735.4	22.917
1737.55	25.9435
1739.69	24.5808
1741.83	29.0871
1743.98	26.3163
1746.12	26.4146
1748.26	20.0367
1750.41	24.9417
1752.55	27.5516
1754.69	27.7242
1756.84	23.8138
1758.98	24.4743
1761.12	24.2381
1763.27	20.049
1765.41	22.5737
1767.55	24.3043
1769.7	25.4827
1771.84	26.0571
1773.98	24.1349
1776.13	22.5184
1778.27	24.7555
1780.41	25.2
1782.56	23.9439
1784.7	22.5201
1786.84	24.9055
1788.99	23.4286
1791.13	22.7015
1793.27	26.159
1795.42	24.2746
1797.56	21.0467
1799.7	23.3139
1801.85	23.3576
1803.99	23.1674
1806.13	24.5404
1808.28	23.141
1810.42	23.2977
1812.56	24.1697
1814.71	28.1531
1816.85	25.9329
1818.99	25.3829
1821.14	22.8501
1823.28	26.1183
1825.42	22.801
1827.57	23.4384
1829.71	22.0685
1831.86	22.2745
1834	23.428
1836.14	24.9738
1838.29	24.1089
1840.43	22.5523
1842.57	23.9465
1844.72	22.1455
1846.86	23.7235
1849	24.1403
1851.15	23.6722
1853.29	26.6299
1855.43	23.2268
1857.58	25.7426
1859.72	20.7816
1861.86	23.5027
1864.01	28.002
1866.15	24.3288
1868.29	25.0291
1870.44	23.9167
1872.58	24.1041
1874.72	23.8216
1876.87	21.8942
1879.01	24.8384
1881.15	23.7983
1883.3	23.2617
1885.44	23.499
1887.58	23.3157
1889.73	20.6377
1891.87	28.0309
1894.01	25.5155
1896.16	25.0829
1898.3	22.2
1900.44	25.6037
1902.59	23.6184
1904.73	24.2983
1906.87	26.5503
1909.02	22.2295
1911.16	24.064
1913.3	18.7381
1915.45	22.5483
1917.59	23.9578
1919.73	20.0238
1921.88	23.8365
1924.02	21.8037
1926.16	28.5987
1928.31	21.8742
1930.45	23.5474
1932.59	20.4172
1934.74	23.5148
1936.88	20.7358
1939.02	22.3546
1941.17	26.273
1943.31	24.8684
1945.45	25.0321
1947.6	19.9977
1949.74	24.4
1951.88	23.8514
1954.03	23.4571
1956.17	25.4762
1958.31	24.2939
1960.46	23.1706
1962.6	21.093
1964.74	22.3494
1966.89	22.8265
1969.03	22.2475
1971.18	18.0932
1973.32	25.22
1975.46	23.8103
1977.61	21.9511
1979.75	25.0694
1981.89	24.3411
1984.04	21.3498
1986.18	25.5092
1988.32	19.5369
1990.47	23.4351
1992.61	21.9273
1994.75	19.8387
1996.9	22.9223
1999.04	25.7445
2001.18	20.8465
2003.33	18.8163
2005.47	21.1657
2007.61	21.2737
2009.76	21.8905
2011.9	23.9845
2014.04	19.6183
2016.19	24.2139
2018.33	24.1121
2020.47	23.2673
2022.62	24.3008
2024.76	25.4418
2026.9	20.3107
2029.05	20.7642
2031.19	22.5474
2033.33	24.106
2035.48	21.9071
2037.62	20.4
2039.76	23.0472
2041.91	19.7303
2044.05	21.2032
2046.19	20.7895
2048.34	24.462
2050.48	27.3784
2052.62	18.5013
2054.77	20.615
2056.91	21.3153
2059.05	21.6664
2061.2	24.6376
2063.34	21.8176
2065.48	21.747
2067.63	18.2433
2069.77	22.1459
2071.91	21.5911
2074.06	24.547
2076.2	24.1925
2078.34	21.7
2080.49	22.6111
2082.63	19.3836
2084.77	24.3117
2086.92	21.3482
2089.06	22.7055
2091.2	18.99
2093.35	24.3339
2095.49	23.824
2097.63	22.3769
2099.78	21.42
2101.92	20.3556
2104.06	19.8
2106.21	20.595
2108.35	20.3037
2110.5	21.3556
2112.64	20.8885
2114.78	20.1877
2116.93	18.7822
2119.07	20.2339
2121.21	24.589
2123.36	23.5239
2125.5	20.4219
2127.64	20.6259
2129.79	19.0692
2131.93	22.4168
2134.07	21.1883
2136.22	21.3015
2138.36	20.6735
2140.5	20.9797
2142.65	20
2144.79	23.3218
2146.93	22.6129
2149.08	21.4023
2151.22	21.8545
2153.36	21.7071
2155.51	23.2058
2157.65	22.4175
2159.79	22.7709
2161.94	23.6677
2164.08	21.9696
2166.22	17.0302
2168.37	23.1581
2170.51	22.4599
2172.65	18.261
2174.8	21.2737
2176.94	21.6503
2179.08	23.9639
2181.23	21.2137
2183.37	19.7141
2185.51	21.88
2187.66	24.8228
2189.8	21.9862
2191.94	21.0627
2194.09	22.0048
2196.23	20.6089
2198.37	18.7881
2200.52	22.0066
2202.66	21.7581
2204.8	20.4504
2206.95	23.6413
2209.09	21.2683
2211.23	22.1284
2213.38	19.4724
2215.52	23.2113
2217.66	19.2799
2219.81	19.2919
2221.95	21.6274
2224.09	20.0192
2226.24	17.3475
2228.38	18.8054
2230.52	23.5368
2232.67	24.6248
2234.81	21.5002
2236.95	22.457
2239.1	23.0172
2241.24	23.0579
2243.39	20.6057
2245.53	23.9617
2247.67	22.5643
2249.82	19.0439
2251.96	20.4806
2254.1	21.9718
2256.25	21.7167
2258.39	21.7638
2260.53	23.2242
2262.68	24.0804
2264.82	19.4112
2266.96	23.5419
2269.11	18.2483
2271.25	23.3469
2273.39	23.1424
2275.54	20.8
2277.68	22.0902
2279.82	25.4548
2281.97	25.5368
2284.11	16.6314
2286.25	21.8916
2288.4	20.4401
2290.54	24.0809
2292.68	22.7341
2294.83	21.8886
2296.97	23.656
2299.11	24.3006
2301.26	22.8206
2303.4	20.9219
2305.54	23.5261
2307.69	21.0903
2309.83	19.2376
2311.97	20.4014
2314.12	19.94
2316.26	22.5593
2318.4	21.9047
2320.55	23.5717
2322.69	22.3924
2324.83	23.7638
2326.98	26.354
2329.12	31.0193
2331.26	35.5574
2333.41	25
2335.55	24.9233
2337.69	23.6834
2339.84	23.1128
2341.98	26.0436
2344.12	23.8097
2346.27	23.6804
2348.41	24.269
2350.55	24.5493
2352.7	26.9489
2354.84	24.5183
2356.98	19.5411
2359.13	25
2361.27	26.5558
2363.41	26.4803
2365.56	24.4319
2367.7	26.5465
2369.84	25.8097
2371.99	25.2262
2374.13	28.4269
2376.27	29.6
2378.42	24.7916
2380.56	26.4181
2382.71	27.152
2384.85	27.4821
2386.99	27.6333
2389.14	27.5739
2391.28	27.714
2393.42	27.0658
2395.57	27.9123
2397.71	27.3967
2399.85	34.5505
2402	30.9725
2404.14	27.6189
2406.28	30.9724
2408.43	29.7233
2410.57	33.5777
2412.71	29.9142
2414.86	36.9174
2417	24.7464
2419.14	31.6783
2421.29	32.5664
2423.43	35.4038
2425.57	35.9155
2427.72	38.271
2429.86	34.6446
2432	37.2782
2434.15	34.538
2436.29	35.8668
2438.43	38.502
2440.58	36.6394
2442.72	37.3793
2444.86	34.5571
2447.01	39.731
2449.15	33.6947
2451.29	37.0703
2453.44	35.728
2455.58	36.0448
2457.72	36.8233
2459.87	40.9249
2462.01	37.8265
2464.15	35.6
2466.3	35.4572
2468.44	34.0074
2470.58	34.1275
2472.73	35.0226
2474.87	38.6778
2477.01	36.7212
2479.16	32.8854
2481.3	35.5881
2483.44	35.4806
2485.59	36.0469
2487.73	36.6791
2489.87	34.7639
2492.02	37.9841
2494.16	34.6021
2496.3	32.1759
2498.45	33.3367
2500.59	35.1515
2502.73	34.24
2504.88	35.905
2507.02	38.3731
2509.16	33.3233
2511.31	37.6141
2513.45	36.2911
2515.59	33.5886
2517.74	37.4434
2519.88	33.802
2522.03	34.6949
2524.17	36.8673
2526.31	36.9747
2528.46	40.439
2530.6	33.6043
2532.74	37.7934
2534.89	36.7688
2537.03	36.8372
2539.17	40.891
2541.32	42.6944
2543.46	41.4942
2545.6	37.3843
2547.75	41.1501
2549.89	45.9667
2552.03	41.6625
2554.18	35.2816
2556.32	39.3181
2558.46	46.7698
2560.61	46.7199
2562.75	42.6047
2564.89	46.7326
2567.04	46.1443
2569.18	47.9415
2571.32	46.3278
2573.47	51.5715
2575.61	50.0273
2577.75	48.2097
2579.9	48.4091
2582.04	50.0119
2584.18	55.7069
2586.33	56.2199
2588.47	57.305
2590.61	58.0363
2592.76	60.4108
2594.9	58.2326
2597.04	59.147
2599.19	63.0945
2601.33	67.7249
2603.47	66.6965
2605.62	68.8869
2607.76	68.399
2609.9	73.4953
2612.05	80.9103
2614.19	73.4484
2616.33	79.1697
2618.48	83.2555
2620.62	83.6077
2622.76	90.9142
2624.91	90.0404
2627.05	95.6165
2629.19	99.5655
2631.34	105.238
2633.48	109.614
2635.62	107.2
2637.77	110.895
2639.91	120.013
2642.05	120.091
2644.2	124.875
2646.34	134.057
2648.48	135.013
2650.63	134.638
2652.77	140.728
2654.92	147.054
2657.06	152.24
2659.2	154.187
2661.35	157.354
2663.49	161.559
2665.63	165.706
2667.78	167.343
2669.92	162.913
2672.06	169.209
2674.21	170.154
2676.35	165.412
2678.49	167.403
2680.64	167.743
2682.78	161.835
2684.92	166.155
2687.07	167.842
2689.21	163.066
2691.35	159.919
2693.5	161.58
2695.64	153.498
2697.78	146.613
2699.93	146.296
2702.07	147.212
2704.21	131.038
2706.36	130.874
2708.5	128.987
2710.64	122.964
2712.79	122.187
2714.93	116.199
2717.07	113.225
2719.22	108.201
2721.36	108.662
2723.5	102.002
2725.65	96.7977
2727.79	96.0352
2729.93	88.8806
2732.08	83.5135
2734.22	80.8559
2736.36	84.17
2738.51	78.8146
2740.65	77.8151
2742.79	73.5973
2744.94	72.7044
2747.08	72.1765
2749.22	65.2103
2751.37	65.5284
2753.51	61.3689
2755.65	61.3131
2757.8	60.3808
2759.94	57.334
2762.08	57.6096
2764.23	57.7639
2766.37	55.3589
2768.51	58.3571
2770.66	51.1532
2772.8	52.1248
2774.94	54.1353
2777.09	50.8648
2779.23	49.4645
2781.37	48.9951
2783.52	51.4554
2785.66	49.0411
2787.8	51.3052
2789.95	47.1018
2792.09	49.8284
2794.24	48.6977
2796.38	49.1266
2798.52	46.3858
2800.67	40.6414
2802.81	45.4766
2804.95	48.6645
2807.1	43.6729
2809.24	44.334
2811.38	43.8589
2813.53	41.462
2815.67	48.0836
2817.81	42.015
2819.96	43.7437
2822.1	40.3881
2824.24	42.29
2826.39	41.2979
2828.53	47.5466
2830.67	40.1905
2832.82	43.49
2834.96	47.7506
2837.1	41.0293
2839.25	41.9244
2841.39	46.4018
2843.53	43.5461
2845.68	45.959
2847.82	43.9919
2849.96	43.0442
2852.11	46.1704
2854.25	43.0228
2856.39	43.6596
2858.54	42.6105
2860.68	46.3748
2862.82	45.2574
2864.97	45.0092
2867.11	44.0294
2869.25	46.6227
2871.4	40.909
2873.54	39.0132
2875.68	43.5494
2877.83	43.1473
2879.97	40.0209
2882.11	48.1628
2884.26	45.7874
2886.4	45.7364
2888.54	47.4827
2890.69	45.9207
2892.83	44.9606
2894.97	46.5683
2897.12	47.3652
2899.26	51.7499
2901.4	51.6365
2903.55	45.4759
2905.69	48.3043
2907.83	52.5814
2909.98	50.8388
2912.12	52.1913
2914.26	49.4967
2916.41	49.9351
2918.55	43.4358
2920.69	47.4192
2922.84	49.0706
2924.98	50.493
2927.125	49.343
2929.27	45.9581
2931.41	48.055
2933.56	47.7941
2935.7	42.4
2937.84	48.8628
2939.99	47.2606
2942.13	49.0721
2944.27	51.2343
2946.42	44.0861
2948.56	47.6212
2950.7	42.51
2952.85	41.8841
2954.99	43.2451
2957.13	45.4881
2959.28	41.7833
2961.42	45.0786
2963.56	45.7976
2965.71	43.6468
2967.85	36.3743
2969.99	39.417
2972.14	41.5629
2974.28	37.8702
2976.42	35.3666
2978.57	36.2999
2980.71	38.8002
2982.85	36.5016
2985	29.9659
2987.14	39.0143
2989.28	38.1237
2991.43	32.4223
2993.57	36.4532
2995.71	38.6432
2997.86	35.8296
3000	35.2496