File: Example Data/Raman/CNT - TIM/Raytheon/FeSi adhesion/Test 6/FeSi2-T6b-0Al-hSi - NOT aligned region - _4.txt
200	339.645
201.54	363.175
203.08	358.316
204.619	364.547
206.159	367.68
207.699	391.744
209.239	418.031
210.778	467.481
212.318	442.425
213.858	413.196
215.398	427.347
216.938	421.502
218.477	427.947
220.017	452.534
221.557	495.271
223.097	565.729
224.636	606.972
226.176	605.322
227.716	639.189
229.256	722.779
230.796	864.825
232.335	876.68
233.875	831.723
235.415	743.329
236.955	644.904
238.494	558.823
240.034	512.913
241.574	467.331
243.114	453.588
244.654	441.269
246.193	436.247
247.733	429.5
249.273	450.961
250.813	432.154
252.352	419.067
253.892	418.192
255.432	420.116
256.972	432.979
258.512	421.192
260.051	435.438
261.591	440.289
263.131	441.881
264.671	457.941
266.21	480.777
267.75	487.086
269.29	484.228
270.83	500.99
272.37	494.963
273.909	473.447
275.449	481.152
276.989	454.091
278.529	446.864
280.068	432.346
281.608	444.994
283.148	444.292
284.688	468.052
286.228	506.655
287.767	484.213
289.307	471.684
290.847	470.118
292.387	448.691
293.926	445.476
295.466	439.269
297.006	440.222
298.546	436.789
300.086	465.959
301.625	469.564
303.165	507.798
304.705	496.318
306.245	456.594
307.784	443.088
309.324	435.238
310.864	424.669
312.404	416.018
313.944	403.071
315.483	380.988
317.023	403.953
318.563	381.3
320.103	383.184
321.642	371.626
323.182	370.822
324.722	358.586
326.262	389.207
327.802	364.486
329.341	372.225
330.881	353.435
332.421	336.065
333.961	372.699
335.5	355.211
337.04	357.111
338.58	346.301
340.12	353.557
341.66	351.912
343.199	346.491
344.739	345.338
346.279	335.039
347.819	335.575
349.358	333.457
350.898	342.192
352.438	347.422
353.978	337.882
355.518	326.944
357.057	328.144
358.597	326.163
360.137	325.852
361.677	329.657
363.216	335.923
364.756	328.852
366.296	319.008
367.836	324.308
369.376	322.139
370.915	326.822
372.455	314.768
373.995	317.383
375.535	320.056
377.074	327.508
378.614	324.943
380.154	311.238
381.694	303.684
383.234	313.2
384.773	310.421
386.313	307.164
387.853	304.83
389.393	319.991
390.932	311.626
392.472	307.525
394.012	290.359
395.552	301.058
397.092	300.478
398.631	297.294
400.171	307.037
401.711	306.405
403.251	301.47
404.79	305.375
406.33	299.647
407.87	304.247
409.41	308.778
410.95	312.425
412.489	307.952
414.029	293.647
415.569	296.895
417.109	297.27
418.648	295.04
420.188	306.428
421.728	301.07
423.268	304.553
424.808	308.536
426.347	292.263
427.887	300.56
429.427	295.779
430.967	291.72
432.506	317.523
434.046	299.743
435.586	303.512
437.126	311.735
438.666	293.42
440.205	278.654
441.745	275.97
443.285	279.818
444.825	284.381
446.364	278.087
447.904	283.426
449.444	276.235
450.984	263.73
452.524	274.311
454.063	264.136
455.603	250.37
457.143	253.496
458.683	245.41
460.222	238.421
461.762	260.232
463.302	255.682
464.842	261.181
466.382	256.921
467.921	266.345
469.461	262.726
471.001	265.201
472.541	258.244
474.08	256.648
475.62	259.659
477.16	255.1
478.7	258.603
480.24	256.923
481.779	264.363
483.319	258.666
484.859	269.232
486.399	263.587
487.938	274.026
489.478	271.555
491.018	278.345
492.558	287.233
494.098	295.583
495.637	293.384
497.177	296.897
498.717	308.604
500.257	328.683
501.796	326.631
503.336	363.24
504.876	376.283
506.416	411.543
507.956	471.528
509.495	537.666
511.035	644.394
512.575	825.658
514.115	1079.53
515.654	1604.49
517.194	2701.95
518.734	5235.92
520.274	10112.4
521.814	13706.5
523.353	10502.8
524.893	5348.72
526.433	2861.95
527.973	1794.2
529.512	1257.16
531.052	938.47
532.592	770.906
534.132	655.061
535.672	578.987
537.211	533.533
538.751	482.73
540.291	441.429
541.831	407.001
543.37	399.197
544.91	367.522
546.45	362.544
547.99	350.709
549.53	341.881
551.069	328.465
552.609	319.859
554.149	301.388
555.689	297.78
557.228	295.309
558.768	299.062
560.308	290.246
561.848	270.153
563.388	257.402
564.927	269.574
566.467	259.613
568.007	257.814
569.547	260.217
571.086	248.472
572.626	255.383
574.166	249.758
575.706	255.234
577.245	251.405
578.785	241.768
580.325	234.653
581.865	242.939
583.405	256.097
584.944	248.589
586.484	241.142
588.024	241.69
589.564	238.256
591.104	240.843
592.643	237.923
594.183	241.851
595.723	236.456
597.263	239.698
598.802	236.151
600.342	245.951
601.882	251.535
603.422	245.27
604.961	243.484
606.501	241.028
608.041	243.779
609.581	239.711
611.121	263.259
612.66	259.068
614.2	252.545
615.74	266.947
617.28	263.913
618.82	268.166
620.359	280.715
621.899	267.821
623.439	269.289
624.979	261.227
626.518	267.596
628.058	270.955
629.598	252.605
631.138	254.826
632.677	251.499
634.217	249.563
635.757	256.489
637.297	245.635
638.837	255.584
640.376	258.802
641.916	265.316
643.456	255.225
644.996	253.978
646.536	253.449
648.075	267.533
649.615	259.167
651.155	250.803
652.695	259.786
654.234	262.735
655.774	268.43
657.314	265.124
658.854	266.417
660.393	263.402
661.933	273.39
663.473	263.28
665.013	269.602
666.553	250.728
668.092	275.729
669.632	273.788
671.172	271.432
672.712	266.451
674.252	269.166
675.791	278.744
677.331	263.561
678.871	270.142
680.411	272.398
681.95	264.601
683.49	261.984
685.03	269.076
686.57	262.933
688.109	260.498
689.649	256.43
691.189	251.653
692.729	254.127
694.269	251.239
695.808	256.666
697.348	250.752
698.888	246.127
700.428	241.462
701.967	248.54
703.507	252.287
705.047	249.452
706.587	245.86
708.127	251.033
709.666	254.777
711.206	242.402
712.746	254.057
714.286	249.398
715.826	265.748
717.365	249.279
718.905	259.467
720.445	255.127
721.985	260.784
723.524	261.626
725.064	253
726.604	262.429
728.144	258.01
729.683	264.025
731.223	272.287
732.763	266.948
734.303	255.666
735.843	257.124
737.382	266.229
738.922	267.143
740.462	278.551
742.002	267.082
743.542	281.464
745.081	266.49
746.621	274.796
748.161	273.574
749.701	260.357
751.24	263.08
752.78	279.389
754.32	281.75
755.86	270.133
757.399	284.593
758.939	289.022
760.479	282.74
762.019	282.205
763.559	286.668
765.098	284.485
766.638	290.195
768.178	285.716
769.718	280.985
771.258	290.53
772.797	287.948
774.337	277.029
775.877	286.863
777.417	279.289
778.956	286.967
780.496	300.221
782.036	292.16
783.576	283.142
785.115	295.141
786.655	300.476
788.195	297.992
789.735	296.445
791.275	306.113
792.814	300.639
794.354	301.543
795.894	304.086
797.434	289.459
798.974	298.181
800.513	301.278
802.053	305.265
803.593	300.551
805.133	312.564
806.672	300.823
808.212	316.885
809.752	318.293
811.292	305.345
812.831	317.19
814.371	315.728
815.911	321.992
817.451	321.161
818.991	328.118
820.53	328.061
822.07	314.579
823.61	322.037
825.15	321.728
826.689	319.64
828.229	325.528
829.769	327.131
831.309	324.783
832.849	315.337
834.388	320.743
835.928	329.061
837.468	317.053
839.008	328.807
840.547	331.38
842.087	324.559
843.627	332.309
845.167	328.7
846.707	326.695
848.246	344.052
849.786	311.52
851.326	330.306
852.866	326.617
854.405	325.811
855.945	327.551
857.485	322.083
859.025	329.015
860.565	330.913
862.104	325.221
863.644	312.353
865.184	311.861
866.724	312.724
868.263	331.487
869.803	318.296
871.343	306.223
872.883	297.801
874.423	301.204
875.962	306.276
877.502	296.666
879.042	292.186
880.582	299.34
882.121	288.458
883.661	296.401
885.201	284.003
886.741	293.59
888.281	287.143
889.82	295.038
891.36	285.679
892.9	271.692
894.44	280.098
895.979	273.009
897.519	274.083
899.059	260.645
900.599	275.026
902.139	265.783
903.678	266.178
905.218	280.467
906.758	261.202
908.298	273.046
909.837	262.391
911.377	256.476
912.917	264.514
914.457	265.796
915.997	259.748
917.536	266.745
919.076	267.575
920.616	261.242
922.156	270.824
923.695	271.696
925.235	279.741
926.775	287.911
928.315	288.96
929.855	319.439
931.394	351.565
932.934	364.111
934.474	386.535
936.014	415.819
937.553	442.705
939.093	459.833
940.633	511.174
942.173	508.579
943.713	523.8
945.252	515.67
946.792	519.971
948.332	505.772
949.872	506.782
951.411	521.588
952.951	497.542
954.491	495.906
956.031	506.314
957.571	489.334
959.11	503.69
960.65	510.53
962.19	515.293
963.73	500.248
965.269	511.956
966.809	496.069
968.349	500.151
969.889	497.19
971.429	491.374
972.968	506.027
974.508	504.277
976.048	521.56
977.588	521.092
979.127	512.376
980.667	516.077
982.207	508.033
983.747	503.718
985.287	505.838
986.826	495.762
988.366	479.507
989.906	453.67
991.446	434.3
992.985	407.532
994.525	382.182
996.065	359.704
997.605	345.562
999.145	346.449
1000.68	333.84
1002.22	321.304
1003.76	315.316
1005.3	312.438
1006.84	305.458
1008.38	299.778
1009.92	300.431
1011.46	306.531
1013	289.78
1014.54	295.514
1016.08	290.912
1017.62	285.483
1019.16	285.267
1020.7	285.658
1022.24	287.423
1023.78	281.334
1025.32	273.905
1026.86	282.743
1028.4	274.835
1029.94	269.828
1031.48	277.751
1033.02	268.887
1034.56	266.396
1036.1	272.142
1037.64	262.417
1039.18	277.048
1040.72	257.8
1042.26	267.71
1043.8	269.882
1045.34	256.208
1046.88	263.623
1048.42	277.314
1049.96	273.218
1051.5	263.473
1053.04	268.719
1054.58	263.707
1056.12	269.553
1057.66	270.87
1059.2	269.511
1060.74	275.029
1062.28	276.731
1063.82	265.56
1065.35	276.397
1066.89	268.534
1068.43	269.611
1069.97	272.509
1071.51	262.44
1073.05	279.73
1074.59	271.453
1076.13	281.76
1077.67	276.096
1079.21	275.133
1080.75	276.825
1082.29	272.414
1083.83	290.008
1085.37	276.11
1086.91	291.405
1088.45	289.375
1089.99	282.86
1091.53	289.934
1093.07	287.056
1094.61	294.89
1096.15	292.526
1097.69	295.844
1099.23	292.02
1100.77	304.133
1102.31	304.682
1103.85	304.081
1105.39	310.433
1106.93	309.856
1108.47	302.701
1110.01	313.92
1111.55	300.762
1113.09	315.942
1114.63	315.641
1116.17	311.815
1117.71	304.881
1119.25	305.401
1120.79	308.95
1122.33	317.828
1123.87	334.557
1125.41	318.735
1126.95	317.167
1128.49	319.339
1130.03	314.872
1131.57	323.366
1133.11	320.212
1134.65	337.066
1136.18	334.363
1137.72	327.576
1139.26	337.222
1140.8	347.728
1142.34	332.113
1143.88	359.223
1145.42	340.352
1146.96	357.884
1148.5	345.837
1150.04	352.858
1151.58	356.5
1153.12	367.068
1154.66	367.488
1156.2	366.673
1157.74	372.298
1159.28	386.965
1160.82	372.332
1162.36	374.861
1163.9	387.624
1165.44	392.095
1166.98	381.849
1168.52	398.023
1170.06	393.029
1171.6	392.275
1173.14	399.503
1174.68	411.266
1176.22	407.282
1177.76	414.646
1179.3	404.865
1180.84	421.502
1182.38	412.604
1183.92	423.657
1185.46	432.471
1187	418.106
1188.54	422.947
1190.08	441.362
1191.62	439.813
1193.16	440.446
1194.7	436.517
1196.24	437.883
1197.78	436.156
1199.32	450.977
1200.86	450.593
1202.4	462.38
1203.93	466.51
1205.47	463.734
1207.01	468.057
1208.55	480.797
1210.09	487.139
1211.63	469.402
1213.17	488.238
1214.71	494.979
1216.25	487.785
1217.79	490.054
1219.33	513.069
1220.87	503.291
1222.41	523.998
1223.95	527.284
1225.49	528.785
1227.03	523.192
1228.57	531.735
1230.11	539.588
1231.65	532.845
1233.19	539.275
1234.73	553.935
1236.27	554.231
1237.81	570.765
1239.35	557.122
1240.89	569.429
1242.43	593.853
1243.97	585.47
1245.51	585.256
1247.05	602.567
1248.59	605.326
1250.13	630.293
1251.67	640.188
1253.21	650.372
1254.75	655.617
1256.29	637.37
1257.83	652.404
1259.37	683.415
1260.91	672.997
1262.45	682.984
1263.99	694.4
1265.53	722.793
1267.07	715.933
1268.61	723.561
1270.15	757.491
1271.69	738.322
1273.22	770.879
1274.76	776.623
1276.3	806.831
1277.84	816.623
1279.38	820.347
1280.92	839.23
1282.46	848.632
1284	879.499
1285.54	928.207
1287.08	911.224
1288.62	950.149
1290.16	947.763
1291.7	953.092
1293.24	1017.21
1294.78	1016.85
1296.32	1052.97
1297.86	1075.4
1299.4	1096.28
1300.94	1136.75
1302.48	1182.03
1304.02	1205.29
1305.56	1251.66
1307.1	1276.22
1308.64	1316.9
1310.18	1339.23
1311.72	1398.51
1313.26	1441.06
1314.8	1436.91
1316.34	1527.84
1317.88	1593.97
1319.42	1623.79
1320.96	1704.39
1322.5	1731.79
1324.04	1752.03
1325.58	1854.53
1327.12	1924.28
1328.66	1968.09
1330.2	2051.31
1331.74	2121.28
1333.28	2160.41
1334.82	2198.25
1336.36	2271.39
1337.9	2343.29
1339.44	2370.34
1340.98	2437.96
1342.52	2482.28
1344.05	2496.68
1345.59	2517.75
1347.13	2566.19
1348.67	2549.76
1350.21	2544.68
1351.75	2555.32
1353.29	2514.83
1354.83	2485.71
1356.37	2431.41
1357.91	2377.18
1359.45	2313.39
1360.99	2286.26
1362.53	2215.83
1364.07	2161.98
1365.61	2083.93
1367.15	2013.29
1368.69	1964.24
1370.23	1901.52
1371.77	1834.91
1373.31	1779
1374.85	1707.94
1376.39	1641.48
1377.93	1616.84
1379.47	1576.11
1381.01	1482.36
1382.55	1453.51
1384.09	1393.35
1385.63	1333.85
1387.17	1288.2
1388.71	1249.45
1390.25	1214.31
1391.79	1181.48
1393.33	1174.6
1394.87	1127.27
1396.41	1087.17
1397.95	1054.95
1399.49	1045.48
1401.03	985.596
1402.57	980.343
1404.11	938.03
1405.65	933.893
1407.19	917.997
1408.73	873.42
1410.27	874.647
1411.8	878.459
1413.34	861.415
1414.88	856.236
1416.42	821.264
1417.96	809.554
1419.5	800.103
1421.04	795.721
1422.58	789.182
1424.12	763.797
1425.66	747.601
1427.2	751.619
1428.74	737.328
1430.28	721.672
1431.82	737.284
1433.36	716.733
1434.9	716.565
1436.44	721.734
1437.98	687.09
1439.52	707.504
1441.06	693.509
1442.6	713.028
1444.14	695.635
1445.68	694.282
1447.22	696.732
1448.76	694.12
1450.3	686.273
1451.84	702.792
1453.38	682.914
1454.92	695.453
1456.46	694.405
1458	682.933
1459.54	694.458
1461.08	688.855
1462.62	692.967
1464.16	690.442
1465.7	686.601
1467.24	686.775
1468.78	706.105
1470.32	702.252
1471.86	699.162
1473.4	704.394
1474.94	708.019
1476.48	708.305
1478.02	703.336
1479.56	706.646
1481.09	691.144
1482.63	722.003
1484.17	712.195
1485.71	725.522
1487.25	732.478
1488.79	730.038
1490.33	738.97
1491.87	737.011
1493.41	732.483
1494.95	740.857
1496.49	723.349
1498.03	750.247
1499.57	740.268
1501.11	728.408
1502.65	758.399
1504.19	741.92
1505.73	753.59
1507.27	751.636
1508.81	763.585
1510.35	759.734
1511.89	772.553
1513.43	764.983
1514.97	777.078
1516.51	775.991
1518.05	786.963
1519.59	789.963
1521.13	781.584
1522.67	783.019
1524.21	798.629
1525.75	809.416
1527.29	837.51
1528.83	829.854
1530.37	850.177
1531.91	841.189
1533.45	852.716
1534.99	864.219
1536.53	908.522
1538.07	914.775
1539.61	935.52
1541.15	954.655
1542.69	977.656
1544.23	992.984
1545.77	1025.26
1547.31	1049.09
1548.85	1081.2
1550.38	1095.01
1551.92	1138.67
1553.46	1160.97
1555	1196.45
1556.54	1234.97
1558.08	1252.47
1559.62	1280.85
1561.16	1324.09
1562.7	1372.9
1564.24	1447.03
1565.78	1488.85
1567.32	1520.56
1568.86	1603.76
1570.4	1661.54
1571.94	1713.22
1573.48	1807.91
1575.02	1887.84
1576.56	1978.46
1578.1	2029.39
1579.64	2135.12
1581.18	2182.8
1582.72	2283.93
1584.26	2359.95
1585.8	2428.45
1587.34	2488
1588.88	2587.4
1590.42	2638.68
1591.96	2625.61
1593.5	2639.44
1595.04	2581.24
1596.58	2526.08
1598.12	2472.31
1599.66	2442.81
1601.2	2405.01
1602.74	2373.56
1604.28	2304.63
1605.82	2251.84
1607.36	2244.27
1608.9	2169.12
1610.44	2166.92
1611.98	2075.94
1613.52	2053.03
1615.06	1981.99
1616.6	1941.36
1618.14	1899.82
1619.67	1840.55
1621.21	1787.61
1622.75	1723.1
1624.29	1662.5
1625.83	1552.13
1627.37	1473.59
1628.91	1396.51
1630.45	1307.98
1631.99	1244.29
1633.53	1167.61
1635.07	1102.42
1636.61	1041.12
1638.15	975.108
1639.69	923.036
1641.23	866.147
1642.77	816.177
1644.31	770.872
1645.85	723.888
1647.39	685.164
1648.93	639.316
1650.47	608.196
1652.01	576.269
1653.55	555.316
1655.09	524.186
1656.63	504.801
1658.17	476.282
1659.71	446.261
1661.25	438.231
1662.79	415.148
1664.33	396.173
1665.87	375.773
1667.41	369.168
1668.95	348.003
1670.49	343.798
1672.03	331.353
1673.57	325.39
1675.11	313.468
1676.65	304.489
1678.19	301.75
1679.73	287.774
1681.27	289.24
1682.81	277.307
1684.35	277.436
1685.89	260.361
1687.43	266.025
1688.96	255.614
1690.5	251.36
1692.04	252.457
1693.58	247.985
1695.12	246.077
1696.66	248.261
1698.2	232.965
1699.74	242.23
1701.28	230.726
1702.82	233.621
1704.36	235.045
1705.9	229.426
1707.44	230.473
1708.98	210.819
1710.52	226.732
1712.06	217.298
1713.6	223.333
1715.14	213.166
1716.68	214.2
1718.22	220.423
1719.76	206.928
1721.3	208.345
1722.84	199.216
1724.38	196.851
1725.92	202.984
1727.46	189.522
1729	194.658
1730.54	197.382
1732.08	202.472
1733.62	191.527
1735.16	194.773
1736.7	206.977
1738.24	182.541
1739.78	181.917
1741.32	189.263
1742.86	182.07
1744.4	196.084
1745.94	186.926
1747.48	171.972
1749.02	177.505
1750.56	181.728
1752.1	179.737
1753.64	180.92
1755.18	176.037
1756.72	179.715
1758.25	176.038
1759.79	171.865
1761.33	180.836
1762.87	172.111
1764.41	170.023
1765.95	169.658
1767.49	170.344
1769.03	165.127
1770.57	160.056
1772.11	164.25
1773.65	163.184
1775.19	145.643
1776.73	163.209
1778.27	163.537
1779.81	162.441
1781.35	162.14
1782.89	157.658
1784.43	160.123
1785.97	161.331
1787.51	157.285
1789.05	165.044
1790.59	153.429
1792.13	158.768
1793.67	158.186
1795.21	151.968
1796.75	151.568
1798.29	162.678
1799.83	157.229
1801.37	150.08
1802.91	147.75
1804.45	154.551
1805.99	156.472
1807.53	150.186
1809.07	146.768
1810.61	151.907
1812.15	141.106
1813.69	153.974
1815.23	146.658
1816.77	144.691
1818.31	152.359
1819.85	147.64
1821.39	155.481
1822.93	135.58
1824.47	152.045
1826.01	144.322
1827.54	147.955
1829.08	138.559
1830.62	144.633
1832.16	141.72
1833.7	139.124
1835.24	140.252
1836.78	147.276
1838.32	135.969
1839.86	133.081
1841.4	140
1842.94	136.957
1844.48	139.246
1846.02	139.326
1847.56	138.994
1849.1	139.144
1850.64	141.896
1852.18	137.311
1853.72	138.985
1855.26	133.324
1856.8	133.7
1858.34	141.779
1859.88	142.74
1861.42	142.353
1862.96	139.188
1864.5	143.109
1866.04	136.654
1867.58	139.578
1869.12	138.936
1870.66	141.125
1872.2	136.38
1873.74	131.732
1875.28	139.532
1876.82	142.687
1878.36	147.303
1879.9	141.214
1881.44	143.278
1882.98	138.519
1884.52	139.688
1886.06	143.839
1887.6	147.687
1889.14	135.598
1890.68	142.528
1892.22	141.53
1893.76	139.829
1895.3	141.764
1896.83	145.414
1898.37	138.898
1899.91	142.887
1901.45	153.002
1902.99	142.608
1904.53	146.354
1906.07	148.403
1907.61	162.714
1909.15	164.314
1910.69	163.905
1912.23	169.285
1913.77	183.537
1915.31	174.585
1916.85	174.783
1918.39	185.327
1919.93	172.741
1921.47	170.619
1923.01	164.821
1924.55	170.813
1926.09	170.299
1927.63	176.072
1929.17	167.327
1930.71	174.636
1932.25	169.002
1933.79	167.093
1935.33	163.755
1936.87	173.542
1938.41	159.038
1939.95	165.79
1941.49	163.25
1943.03	162.727
1944.57	160.397
1946.11	166.734
1947.65	162.802
1949.19	160.707
1950.73	164.664
1952.27	150.207
1953.81	152.56
1955.35	149.831
1956.89	146.787
1958.43	151.582
1959.97	137.74
1961.51	154.713
1963.05	158.398
1964.59	152.568
1966.12	148.524
1967.66	150.587
1969.2	152.5
1970.74	149.106
1972.28	139.08
1973.82	133.696
1975.36	146.569
1976.9	146.328
1978.44	135.598
1979.98	149.364
1981.52	150.952
1983.06	145.772
1984.6	135.84
1986.14	142.637
1987.68	142.989
1989.22	149.231
1990.76	139.061
1992.3	137.488
1993.84	145.962
1995.38	134.198
1996.92	134.5
1998.46	137.708
2000	136.66