File: Example Data/Raman/CNT - TIM/Raytheon/FeSi adhesion/Test 6/FeSi2-T6b-0Al-hSi - aligned region - _3.txt
200	291.98
201.54	295.307
203.08	297.272
204.619	304.429
206.159	297.324
207.699	295.711
209.239	304.694
210.778	306.851
212.318	304.924
213.858	301.659
215.398	308.101
216.938	301.227
218.477	310.29
220.017	314.993
221.557	318.787
223.097	307.637
224.636	317.361
226.176	310.632
227.716	311.097
229.256	336.277
230.796	316.701
232.335	315.243
233.875	318.954
235.415	324.934
236.955	317.698
238.494	322.022
240.034	321.363
241.574	335.5
243.114	318.216
244.654	319.458
246.193	327.32
247.733	329.837
249.273	327.195
250.813	315.964
252.352	329.965
253.892	332.731
255.432	328.783
256.972	329.024
258.512	329.124
260.051	335.306
261.591	333.266
263.131	335.939
264.671	346.169
266.21	336.694
267.75	329.985
269.29	329.291
270.83	334.335
272.37	343.574
273.909	324.824
275.449	321.113
276.989	322.338
278.529	307.908
280.068	318.71
281.608	316.761
283.148	316.107
284.688	326.649
286.228	299.58
287.767	305.275
289.307	315.911
290.847	305.804
292.387	332.816
293.926	304.856
295.466	307.747
297.006	293.315
298.546	310.768
300.086	306.168
301.625	298.8
303.165	300.918
304.705	302.834
306.245	283.512
307.784	289.754
309.324	280.284
310.864	276.807
312.404	285.389
313.944	283.756
315.483	280.732
317.023	275.949
318.563	286.891
320.103	274.057
321.642	262.777
323.182	273.311
324.722	262.297
326.262	271.356
327.802	266.69
329.341	255.184
330.881	271.079
332.421	260.121
333.961	265.452
335.5	261.494
337.04	256.81
338.58	256.542
340.12	253.234
341.66	256.68
343.199	248.134
344.739	259.52
346.279	244.67
347.819	253.3
349.358	251.15
350.898	248.311
352.438	260.313
353.978	262.435
355.518	256.462
357.057	259.51
358.597	243.844
360.137	250.768
361.677	247.992
363.216	249.542
364.756	255.18
366.296	246.502
367.836	242.145
369.376	248.187
370.915	244.634
372.455	239.619
373.995	241.266
375.535	244.077
377.074	253.909
378.614	245.039
380.154	248.93
381.694	246.278
383.234	244.073
384.773	237.322
386.313	242.856
387.853	247.036
389.393	238.696
390.932	229.941
392.472	244.026
394.012	235.701
395.552	247.194
397.092	250.382
398.631	239.041
400.171	237.867
401.711	243.419
403.251	247.473
404.79	239.898
406.33	237.162
407.87	246.712
409.41	236.015
410.95	236.893
412.489	233.394
414.029	238.236
415.569	226.68
417.109	225.976
418.648	234.418
420.188	236.342
421.728	236.108
423.268	224.865
424.808	254.761
426.347	234.016
427.887	240.574
429.427	231.478
430.967	233.165
432.506	238.146
434.046	235.965
435.586	236.176
437.126	238.731
438.666	235.001
440.205	224.875
441.745	228.584
443.285	230.045
444.825	213.709
446.364	228.601
447.904	206.189
449.444	223.13
450.984	217.274
452.524	215.466
454.063	215.363
455.603	216.178
457.143	213.147
458.683	213.376
460.222	213.016
461.762	209.839
463.302	212.151
464.842	211.856
466.382	205.445
467.921	199.25
469.461	201.252
471.001	213.113
472.541	193.693
474.08	207.367
475.62	203.47
477.16	206.382
478.7	204.388
480.24	209.89
481.779	204.331
483.319	198.642
484.859	198.305
486.399	201.739
487.938	197.331
489.478	194.259
491.018	191.5
492.558	195.606
494.098	206.24
495.637	191.715
497.177	199.538
498.717	197.164
500.257	201.688
501.796	208.682
503.336	213.103
504.876	209.059
506.416	208.407
507.956	218.246
509.495	228.102
511.035	237.712
512.575	242.567
514.115	297.856
515.654	352.659
517.194	468.335
518.734	767.96
520.274	1363.76
521.814	1854.28
523.353	1385.55
524.893	782.982
526.433	489.196
527.973	364.43
529.512	296.591
531.052	259.3
532.592	246.537
534.132	234.704
535.672	216.995
537.211	212.529
538.751	213.85
540.291	208.247
541.831	187.682
543.37	204.532
544.91	197.339
546.45	197.609
547.99	200.198
549.53	193.393
551.069	184.789
552.609	197.001
554.149	194.48
555.689	185.424
557.228	182.488
558.768	189.267
560.308	209.234
561.848	186.5
563.388	182.583
564.927	184.213
566.467	193.412
568.007	195.407
569.547	175.503
571.086	196.71
572.626	193.836
574.166	188.793
575.706	191.888
577.245	179.378
578.785	184.342
580.325	185.841
581.865	189.815
583.405	192.734
584.944	181.406
586.484	185.775
588.024	192.039
589.564	182.246
591.104	186.456
592.643	200.074
594.183	185.535
595.723	177.489
597.263	175.534
598.802	190.107
600.342	191.808
601.882	177.947
603.422	181.181
604.961	185.442
606.501	187.143
608.041	197.171
609.581	191.666
611.121	181.379
612.66	192.142
614.2	190.393
615.74	186.322
617.28	195.908
618.82	189.726
620.359	202.497
621.899	194.956
623.439	199.012
624.979	188.297
626.518	188.504
628.058	196.1
629.598	194.079
631.138	191.07
632.677	201.082
634.217	193.741
635.757	198.565
637.297	194.954
638.837	198.674
640.376	205.767
641.916	215.38
643.456	199.763
644.996	192.665
646.536	206.73
648.075	207.69
649.615	201.79
651.155	197.978
652.695	206.031
654.234	196.421
655.774	200.25
657.314	202.641
658.854	210.333
660.393	205.569
661.933	201.958
663.473	217.858
665.013	204.796
666.553	197.758
668.092	201.462
669.632	218.517
671.172	212.541
672.712	209.119
674.252	211.236
675.791	206.217
677.331	199.619
678.871	202.746
680.411	215.083
681.95	213.83
683.49	205.421
685.03	210.058
686.57	204.617
688.109	211.75
689.649	215.375
691.189	204.31
692.729	214.666
694.269	210.962
695.808	212.324
697.348	205.941
698.888	210.994
700.428	205.005
701.967	204.118
703.507	199.112
705.047	215.606
706.587	210.846
708.127	219.988
709.666	210.956
711.206	216.696
712.746	209.6875
714.286	211.121
715.826	222.719
717.365	212.254
718.905	214.566
720.445	215.178
721.985	209.477
723.524	216.845
725.064	211.177
726.604	214.316
728.144	226.273
729.683	224.498
731.223	221.929
732.763	216.062
734.303	226.341
735.843	232.924
737.382	227.707
738.922	223.046
740.462	225.403
742.002	224.984
743.542	224.094
745.081	231.583
746.621	245.357
748.161	241.328
749.701	242.16
751.24	241.374
752.78	236.284
754.32	237.17
755.86	232.17
757.399	235.511
758.939	239.83
760.479	239.749
762.019	243.467
763.559	242.5
765.098	242.539
766.638	234.7
768.178	253.667
769.718	250.853
771.258	253.68
772.797	236.391
774.337	245.025
775.877	245.913
777.417	246.536
778.956	259.848
780.496	258.862
782.036	241.201
783.576	250.317
785.115	248.976
786.655	247.343
788.195	255.782
789.735	255.959
791.275	245.178
792.814	249.722
794.354	257.146
795.894	259.261
797.434	268.791
798.974	260.929
800.513	256.14
802.053	258.287
803.593	266.093
805.133	254.982
806.672	267.731
808.212	252.667
809.752	266.595
811.292	264.846
812.831	262.131
814.371	283.749
815.911	264.611
817.451	268.614
818.991	275.233
820.53	273.874
822.07	269.425
823.61	267.228
825.15	270.729
826.689	277.323
828.229	275.924
829.769	274.969
831.309	281.601
832.849	271.911
834.388	271.755
835.928	289.492
837.468	276.695
839.008	276.716
840.547	285.257
842.087	278.494
843.627	278.879
845.167	279.979
846.707	296.798
848.246	282.125
849.786	272.441
851.326	277.341
852.866	292.578
854.405	283.186
855.945	276.599
857.485	282.753
859.025	284.324
860.565	280.605
862.104	276.985
863.644	275.499
865.184	279.183
866.724	279.732
868.263	270.311
869.803	270.743
871.343	270.319
872.883	251.517
874.423	256.415
875.962	259.645
877.502	259.623
879.042	254.835
880.582	250.413
882.121	246.02
883.661	261.66
885.201	247.694
886.741	235.597
888.281	234.57
889.82	224.425
891.36	235.107
892.9	241.764
894.44	238.435
895.979	233.001
897.519	234.458
899.059	236.678
900.599	235.196
902.139	217.333
903.678	231.59
905.218	233.713
906.758	215.66
908.298	214.358
909.837	216.371
911.377	212.609
912.917	213.412
914.457	218.515
915.997	213.905
917.536	216.916
919.076	215.739
920.616	215.292
922.156	217.645
923.695	206.893
925.235	317.803
926.775	241.562
928.315	212.323
929.855	226.214
931.394	221.75
932.934	219.808
934.474	229.873
936.014	228.158
937.553	229.888
939.093	235.175
940.633	242.242
942.173	255.955
943.713	244.508
945.252	243.243
946.792	252.303
948.332	238.86
949.872	245.309
951.411	247.08
952.951	243.137
954.491	241.429
956.031	248.511
957.571	246.279
959.11	243.914
960.65	241.78
962.19	246.945
963.73	244.86
965.269	252.06
966.809	239.252
968.349	246.401
969.889	242.728
971.429	250.584
972.968	250.157
974.508	236.916
976.048	236.636
977.588	254.754
979.127	244.883
980.667	245.938
982.207	246.437
983.747	246.66
985.287	258.474
986.826	239.19
988.366	243.15
989.906	236.751
991.446	246.072
992.985	238.536
994.525	236.093
996.065	227.327
997.605	234.515
999.145	228.946
1000.68	222.773
1002.22	226.187
1003.76	234.526
1005.3	230.398
1006.84	229.387
1008.38	229.527
1009.92	229.928
1011.46	228.621
1013	235.284
1014.54	238.213
1016.08	229.806
1017.62	237.43
1019.16	234.442
1020.7	222.768
1022.24	251.774
1023.78	227.153
1025.32	234.006
1026.86	236.51
1028.4	237.969
1029.94	237.94
1031.48	238.828
1033.02	245.866
1034.56	250.442
1036.1	238.852
1037.64	244.5
1039.18	252.935
1040.72	249.215
1042.26	241.282
1043.8	243.464
1045.34	264.648
1046.88	246.518
1048.42	253.429
1049.96	256.882
1051.5	255.01
1053.04	248.563
1054.58	254.909
1056.12	247.983
1057.66	254.004
1059.2	255.883
1060.74	255.184
1062.28	258.323
1063.82	257.971
1065.35	253.284
1066.89	257.247
1068.43	264.556
1069.97	257.784
1071.51	249.316
1073.05	257.132
1074.59	266.297
1076.13	265.432
1077.67	255.647
1079.21	276.166
1080.75	264.212
1082.29	276.639
1083.83	266.089
1085.37	284.195
1086.91	284.332
1088.45	279.562
1089.99	278.666
1091.53	295.907
1093.07	295.363
1094.61	278.74
1096.15	275.476
1097.69	293.287
1099.23	295.745
1100.77	296.209
1102.31	513.909
1103.85	306.433
1105.39	300.509
1106.93	303.444
1108.47	305.75
1110.01	294.592
1111.55	292.874
1113.09	302.102
1114.63	291.562
1116.17	289.418
1117.71	307.532
1119.25	305.022
1120.79	300.766
1122.33	325.724
1123.87	311.439
1125.41	317.853
1126.95	305.623
1128.49	300.188
1130.03	312.962
1131.57	306.056
1133.11	300.324
1134.65	303.761
1136.18	314.799
1137.72	306.22
1139.26	317.736
1140.8	314.614
1142.34	308.113
1143.88	311.265
1145.42	318.344
1146.96	316.907
1148.5	315.934
1150.04	321.829
1151.58	316.568
1153.12	316.25
1154.66	323.615
1156.2	331.708
1157.74	319.596
1159.28	323.721
1160.82	332.81
1162.36	334.511
1163.9	347.749
1165.44	343.043
1166.98	337.287
1168.52	340.713
1170.06	341.25
1171.6	346.177
1173.14	340.223
1174.68	352.939
1176.22	354.044
1177.76	353.966
1179.3	355.861
1180.84	360.026
1182.38	351.579
1183.92	359.998
1185.46	362.395
1187	364.303
1188.54	369.113
1190.08	361.703
1191.62	376.273
1193.16	385.917
1194.7	377.713
1196.24	367.042
1197.78	370.311
1199.32	375.541
1200.86	387.305
1202.4	373.373
1203.93	380.551
1205.47	391.438
1207.01	401.707
1208.55	410.305
1210.09	401.262
1211.63	403.048
1213.17	403.268
1214.71	401.707
1216.25	410.025
1217.79	420.44
1219.33	428.722
1220.87	418.831
1222.41	432.783
1223.95	431.396
1225.49	442.223
1227.03	454.162
1228.57	446.512
1230.11	464.365
1231.65	446.619
1233.19	458.473
1234.73	461.587
1236.27	480.583
1237.81	471.512
1239.35	482.834
1240.89	488.79
1242.43	482.331
1243.97	486.94
1245.51	500.367
1247.05	503.452
1248.59	512.211
1250.13	508.28
1251.67	534.34
1253.21	538.077
1254.75	563.007
1256.29	550.205
1257.83	551
1259.37	545.128
1260.91	579.25
1262.45	598.812
1263.99	590.471
1265.53	611.271
1267.07	602.969
1268.61	655.487
1270.15	634.749
1271.69	645.057
1273.22	659.081
1274.76	682.911
1276.3	686.911
1277.84	699.292
1279.38	702.67
1280.92	746.226
1282.46	749.167
1284	759.212
1285.54	768.202
1287.08	787.592
1288.62	808.81
1290.16	818.133
1291.7	858.609
1293.24	880.357
1294.78	902.935
1296.32	948.114
1297.86	969.27
1299.4	977.69
1300.94	1014.21
1302.48	1050.93
1304.02	1069.36
1305.56	1120.88
1307.1	1198.99
1308.64	1189.92
1310.18	1269.72
1311.72	1304.27
1313.26	1329.15
1314.8	1410.37
1316.34	1455.02
1317.88	1506.41
1319.42	1571.06
1320.96	1657.61
1322.5	1721.47
1324.04	1761.2
1325.58	1863.25
1327.12	1942.85
1328.66	2004.44
1330.2	2071.72
1331.74	2169.15
1333.28	2237.42
1334.82	2276.76
1336.36	2344.45
1337.9	2356.74
1339.44	2403.35
1340.98	2482.79
1342.52	2474.96
1344.05	2505
1345.59	2469.85
1347.13	2482.1
1348.67	2441.26
1350.21	2400.58
1351.75	2326.97
1353.29	2247.75
1354.83	2197.59
1356.37	2193.83
1357.91	2086.91
1359.45	2029.63
1360.99	1953.38
1362.53	1890.7
1364.07	1806.66
1365.61	1742.14
1367.15	1665.17
1368.69	1630.24
1370.23	1528.39
1371.77	1483.09
1373.31	1415.01
1374.85	1389.07
1376.39	1336.27
1377.93	1256.54
1379.47	1254.11
1381.01	1153.5
1382.55	1120.07
1384.09	1101.22
1385.63	1064.08
1387.17	1033.57
1388.71	1013.48
1390.25	964.689
1391.79	944.067
1393.33	901.875
1394.87	864.504
1396.41	863.323
1397.95	850.477
1399.49	822.471
1401.03	795.907
1402.57	767.167
1404.11	761.45
1405.65	745.976
1407.19	740.879
1408.73	708.84
1410.27	727.087
1411.8	700.244
1413.34	692.605
1414.88	667.613
1416.42	682.063
1417.96	654.992
1419.5	636.642
1421.04	646.682
1422.58	630.91
1424.12	624.717
1425.66	638.203
1427.2	621.331
1428.74	601.217
1430.28	608.516
1431.82	586.11
1433.36	616.461
1434.9	599.74
1436.44	568.567
1437.98	595.522
1439.52	591.801
1441.06	577.382
1442.6	560.67
1444.14	568.54
1445.68	564.281
1447.22	570.125
1448.76	579.146
1450.3	562.664
1451.84	566.598
1453.38	562.174
1454.92	552.457
1456.46	579.802
1458	562.186
1459.54	571.091
1461.08	571.738
1462.62	569.948
1464.16	575.356
1465.7	564.82
1467.24	559.668
1468.78	580.236
1470.32	565.121
1471.86	559.555
1473.4	588.813
1474.94	569.471
1476.48	569.372
1478.02	575.785
1479.56	585.38
1481.09	573.258
1482.63	587.652
1484.17	587.593
1485.71	584.947
1487.25	580.475
1488.79	577.68
1490.33	576.576
1491.87	571.26
1493.41	585.236
1494.95	584.697
1496.49	596.706
1498.03	581.862
1499.57	591.856
1501.11	595.737
1502.65	597.654
1504.19	604.613
1505.73	607.915
1507.27	600.531
1508.81	612.392
1510.35	639.268
1511.89	617.103
1513.43	614.65
1514.97	635.802
1516.51	639.934
1518.05	660.105
1519.59	664.963
1521.13	673.771
1522.67	674.532
1524.21	690.418
1525.75	702.723
1527.29	712.161
1528.83	729.752
1530.37	745.143
1531.91	763.349
1533.45	785.084
1534.99	800.12
1536.53	819.753
1538.07	862.552
1539.61	869.594
1541.15	893.846
1542.69	953.35
1544.23	983.118
1545.77	1025.68
1547.31	1078.92
1548.85	1106.87
1550.38	1152.43
1551.92	1226.67
1553.46	1293.16
1555	1346.5
1556.54	1422.42
1558.08	1498.4
1559.62	1535.79
1561.16	1609.18
1562.7	1678.6
1564.24	1765.07
1565.78	1819.74
1567.32	1895.63
1568.86	1999.18
1570.4	2031.71
1571.94	2111.43
1573.48	2153.22
1575.02	2201.02
1576.56	2219.03
1578.1	2254.08
1579.64	2274.69
1581.18	2276.99
1582.72	2302.93
1584.26	2281.04
1585.8	2250.46
1587.34	2217.95
1588.88	2219.58
1590.42	2162.27
1591.96	2125.35
1593.5	2084.06
1595.04	2066.12
1596.58	2048.88
1598.12	1996.51
1599.66	1955.45
1601.2	1928.38
1602.74	1907.12
1604.28	1893.83
1605.82	1843.73
1607.36	1841.36
1608.9	1811.12
1610.44	1766.5
1611.98	1748.16
1613.52	1724.97
1615.06	1674.12
1616.6	1613.73
1618.14	1562.94
1619.67	1502.69
1621.21	1429.34
1622.75	1400.62
1624.29	1313.21
1625.83	1276.42
1627.37	1171.13
1628.91	1101.73
1630.45	1031.66
1631.99	990.95
1633.53	916.823
1635.07	858.159
1636.61	804.67
1638.15	758.342
1639.69	716.957
1641.23	673.514
1642.77	623.319
1644.31	609.859
1645.85	565.483
1647.39	541.201
1648.93	506.659
1650.47	476.249
1652.01	467.994
1653.55	438.775
1655.09	420.215
1656.63	406.086
1658.17	393.649
1659.71	386.472
1661.25	358.091
1662.79	355.605
1664.33	333.425
1665.87	315.608
1667.41	322.625
1668.95	316.014
1670.49	284.48
1672.03	289.571
1673.57	282.447
1675.11	285.199
1676.65	276.105
1678.19	264.831
1679.73	253.879
1681.27	250.691
1682.81	252.491
1684.35	242.832
1685.89	231.562
1687.43	233.534
1688.96	236.333
1690.5	227.761
1692.04	214.395
1693.58	220.189
1695.12	212.941
1696.66	223.362
1698.2	217.383
1699.74	204.737
1701.28	209.378
1702.82	205.171
1704.36	199.085
1705.9	193.112
1707.44	195.972
1708.98	198.632
1710.52	191.851
1712.06	188.797
1713.6	199.517
1715.14	190.631
1716.68	187.952
1718.22	193.069
1719.76	177.669
1721.3	188.837
1722.84	175.811
1724.38	172.054
1725.92	183.09
1727.46	183.026
1729	180.924
1730.54	176.011
1732.08	175.099
1733.62	172.226
1735.16	175.716
1736.7	177.186
1738.24	174.348
1739.78	166.945
1741.32	171.629
1742.86	167.299
1744.4	168.254
1745.94	164.548
1747.48	173.099
1749.02	161.597
1750.56	164.867
1752.1	160.13
1753.64	154.679
1755.18	162.617
1756.72	161.027
1758.25	166.335
1759.79	159.12
1761.33	154.93
1762.87	159.312
1764.41	152.07
1765.95	151.765
1767.49	155.793
1769.03	164.716
1770.57	159.116
1772.11	162.643
1773.65	147.619
1775.19	159.249
1776.73	157.143
1778.27	159.658
1779.81	150.301
1781.35	150.634
1782.89	159.305
1784.43	157.375
1785.97	154.348
1787.51	152.218
1789.05	157.69
1790.59	166.288
1792.13	155.398
1793.67	149.676
1795.21	151.511
1796.75	165.847
1798.29	150.985
1799.83	152.747
1801.37	155.766
1802.91	143.896
1804.45	153.218
1805.99	149.712
1807.53	151.448
1809.07	152.189
1810.61	147.105
1812.15	142.74
1813.69	155.748
1815.23	150.336
1816.77	146.554
1818.31	151.657
1819.85	153.294
1821.39	144.496
1822.93	150.857
1824.47	148.954
1826.01	150.736
1827.54	150.843
1829.08	148.026
1830.62	142.413
1832.16	149.814
1833.7	150.559
1835.24	145.401
1836.78	154.058
1838.32	140.855
1839.86	145.545
1841.4	137.674
1842.94	141.365
1844.48	159.191
1846.02	147.921
1847.56	153.924
1849.1	152.093
1850.64	143.855
1852.18	153.298
1853.72	146.792
1855.26	147.785
1856.8	149.199
1858.34	154.646
1859.88	142.201
1861.42	152.553
1862.96	156.578
1864.5	155.057
1866.04	157.946
1867.58	157.243
1869.12	157.424
1870.66	155.547
1872.2	152.632
1873.74	150.641
1875.28	145.719
1876.82	143.242
1878.36	146.308
1879.9	145.508
1881.44	146.961
1882.98	147.656
1884.52	146.718
1886.06	149.167
1887.6	148.563
1889.14	152.054
1890.68	147.981
1892.22	147.42
1893.76	152.632
1895.3	148.726
1896.83	148.544
1898.37	147.613
1899.91	148.417
1901.45	141.843
1902.99	140.643
1904.53	146.094
1906.07	146.786
1907.61	146.556
1909.15	145.584
1910.69	147.315
1912.23	144.732
1913.77	147.294
1915.31	136.3
1916.85	143.129
1918.39	134.389
1919.93	145.89
1921.47	140.773
1923.01	145.015
1924.55	143.28
1926.09	137.29
1927.63	137.671
1929.17	143.185
1930.71	139.958
1932.25	145.919
1933.79	134.396
1935.33	144.4
1936.87	145.722
1938.41	140.614
1939.95	129.493
1941.49	137.25
1943.03	145.336
1944.57	146.932
1946.11	144.742
1947.65	138.909
1949.19	141.842
1950.73	137.048
1952.27	140.422
1953.81	131.391
1955.35	138.88
1956.89	142.334
1958.43	140.506
1959.97	142.445
1961.51	138.508
1963.05	148.567
1964.59	147.367
1966.12	143.341
1967.66	140.213
1969.2	141.625
1970.74	137.592
1972.28	138.577
1973.82	138.408
1975.36	138.239
1976.9	143.117
1978.44	143.006
1979.98	132.446
1981.52	147.97
1983.06	148.55
1984.6	147.815
1986.14	146.525
1987.68	137.781
1989.22	136.865
1990.76	154.677
1992.3	143.291
1993.84	130
1995.38	131.491
1996.92	143.184
1998.46	137.969
2000	142.966