File: Example Data/Raman/CNT - TIM/Raytheon/Al foil/2011/02-10-11/Batch 26 - bottom_1.txt
300	78.5363
301.529	88.5187
303.058	91.421
304.586	109.496
306.115	106.103
307.644	102.262
309.173	101.577
310.701	95.6436
312.23	91.0774
313.759	92.9846
315.288	91.961
316.817	102.036
318.345	100.272
319.874	99.0572
321.403	84.6147
322.932	85.8383
324.46	79.9706
325.989	83.239
327.518	84.4248
329.047	92.2697
330.576	100.9
332.104	80.13
333.633	84.8352
335.162	84.0106
336.691	82.0235
338.219	89.2439
339.748	84.3982
341.277	79.2151
342.806	71.9302
344.335	79.9792
345.863	75.6461
347.392	73.1266
348.921	81.6448
350.45	82.2325
351.978	80.8113
353.507	78.7488
355.036	77.0072
356.565	73.0554
358.094	77.4084
359.622	73.4153
361.151	66.2675
362.68	70.54
364.209	65.6184
365.737	70.8118
367.266	71.2107
368.795	63.1007
370.324	62.6061
371.853	67.3975
373.381	60.1549
374.91	61.4889
376.439	61.0947
377.968	69.9652
379.496	70.1937
381.025	71.8609
382.554	66.8416
384.083	65.4059
385.612	68.9979
387.14	48.0816
388.669	65.3757
390.198	58.7725
391.727	62.0801
393.255	59.2459
394.784	64.0971
396.313	66.5325
397.842	48.6927
399.371	56.7309
400.899	44.8295
402.428	60.0581
403.957	66.2774
405.486	60.1051
407.014	43.3749
408.543	50.768
410.072	51.4245
411.601	54.5498
413.129	54.2925
414.658	63.4227
416.187	62.0983
417.716	43.4955
419.245	52.4938
420.773	59.1458
422.302	40.6584
423.831	46.0821
425.36	62.3805
426.888	51.5553
428.417	36.2589
429.946	51.9209
431.475	47.9067
433.004	45.4841
434.532	40.7324
436.061	39.1633
437.59	53.4567
439.119	50.5582
440.647	46.306
442.176	48.9615
443.705	42.0108
445.234	43.7266
446.763	32.0085
448.291	34.6227
449.82	28.2713
451.349	42.6223
452.878	42.4939
454.406	42.6242
455.935	37.7191
457.464	32.6244
458.993	31.4385
460.522	39.3899
462.05	38.2481
463.579	25.2557
465.108	39.0953
466.637	34.9371
468.165	31.0319
469.694	25.2992
471.223	25.3841
472.752	26.4608
474.281	24.4935
475.809	24.4017
477.338	13.9266
478.867	20.1634
480.396	27.232
481.924	21.578
483.453	11.8926
484.982	8.90032
486.511	8.63379
488.04	15.2987
489.568	-4.48941
491.097	2.90352
492.626	5.72213
494.155	-2.33115
495.683	13.1953
497.212	-0.558598
498.741	-0.0684802
500.27	0.298591
501.799	0.996548
503.327	-9.05487
504.856	-6.54189
506.385	-13.8694
507.914	3.42568
509.442	-9.37376
510.971	-6.24088
512.5	-2.02264
514.029	-10.5074
515.558	-3.46236
517.086	-7.09142
518.615	-3.95016
520.144	-11.1726
521.673	-12.6177
523.201	-8.89879
524.73	-11.5672
526.259	-14.5747
527.788	-8.59465
529.317	-17.5155
530.845	-13.7248
532.374	-14.452
533.903	-4.94287
535.432	-3.50277
536.96	-12.1517
538.489	-7.34684
540.018	-18.5656
541.547	-6.38241
543.076	-16.8303
544.604	-5.47376
546.133	-7.72849
547.662	-6.12023
549.191	-15.5505
550.719	-1.14946
552.248	5.00879
553.777	-16.4043
555.306	-11.6155
556.835	-2.76214
558.363	-5.29031
559.892	-10.2643
561.421	-11.9695
562.95	-7.06334
564.478	-13.5934
566.007	-12.5489
567.536	-15.4191
569.065	-23.0612
570.594	-10.0704
572.122	-12.3317
573.651	-9.98439
575.18	-1.65065
576.709	-2.18252
578.237	0.669182
579.766	-4.64903
581.295	-5.21026
582.824	-5.92172
584.353	0.341902
585.881	-8.17448
587.41	-2.88932
588.939	-11.163
590.468	-8.53898
591.996	-5.52644
593.525	-5.99287
595.054	-19.7693
596.583	-12.1702
598.112	-13.1092
599.64	-8.75032
601.169	-0.621994
602.698	-6.02735
604.227	-14.3443
605.755	-5.26214
607.284	-14.8384
608.813	-13.1879
610.342	-14.1014
611.87	-0.269718
613.399	3.45918
614.928	-2.05007
616.457	-2.31551
617.986	-6.49136
619.514	1.54973
621.043	-10.5567
622.572	-2.67734
624.101	16.5158
625.63	-5.62145
627.158	-4.41764
628.687	9.40702
630.216	-6.95407
631.745	1.28629
633.273	2.26931
634.802	-1.16942
636.331	4.6355
637.86	0.917212
639.388	5.98779
640.917	3.27207
642.446	19.0422
643.975	-2.81062
645.504	2.37446
647.032	6.27097
648.561	-7.01196
650.09	-9.90682
651.619	5.87776
653.147	2.88572
654.676	22.5076
656.205	-4.64605
657.734	11.9518
659.263	11.9464
660.791	3.82689
662.32	11.7613
663.849	-0.247061
665.378	12.6548
666.906	0.633306
668.435	-3.11714
669.964	8.31537
671.493	7.76531
673.022	8.27345
674.55	9.64646
676.079	1.59186
677.608	5.05713
679.137	-1.68455
680.665	-0.455677
682.194	5.76211
683.723	16.5367
685.252	-0.387023
686.781	8.22328
688.309	12.163
689.838	10.9328
691.367	11.0508
692.896	4.73953
694.424	11.2793
695.953	16.757
697.482	8.33401
699.011	10.8135
700.54	8.57862
702.068	0.722681
703.597	15.2283
705.126	15.9685
706.655	18.8358
708.183	1.62393
709.712	12.9648
711.241	12.6715
712.77	16.9816
714.299	3.864
715.827	17.1946
717.356	27.3986
718.885	3.60226
720.414	23.9689
721.942	11.2505
723.471	11.9042
725	18.8387
726.529	8.94787
728.058	16.1383
729.586	20.1719
731.115	14.2771
732.644	25.8544
734.173	18.6599
735.701	21.1341
737.23	27.0592
738.759	30.7954
740.288	32.5819
741.817	31.4503
743.345	27.0471
744.874	17.4163
746.403	26.6857
747.932	22.7295
749.46	30.7983
750.989	28.3228
752.518	17.6712
754.047	47.1826
755.576	33.1325
757.104	30.8974
758.633	33.3663
760.162	24.2945
761.691	32.668
763.219	46.1595
764.748	26.099
766.277	35.0218
767.806	37.8968
769.335	39.4002
770.863	30.5467
772.392	26.5182
773.921	44.4524
775.45	50.1143
776.978	28.2291
778.507	35.5246
780.036	49.4577
781.565	37.1247
783.094	40.7076
784.622	39.6211
786.151	40.3077
787.68	36.7125
789.209	51.449
790.737	45.11
792.266	43.7932
793.795	45.2185
795.324	63.652
796.853	46.3699
798.381	43.4819
799.91	45.8421
801.439	42.4874
802.968	54.4895
804.496	58.0252
806.025	46.7658
807.554	50.3538
809.083	53.8473
810.612	58.8292
812.14	62.6731
813.669	57.8638
815.198	65.2117
816.727	46.1336
818.255	54.4561
819.784	72.0309
821.313	54.1686
822.842	56.9709
824.37	47.3654
825.899	56.8831
827.428	64.3565
828.957	63.1697
830.486	61.795
832.014	76.1199
833.543	67.3134
835.072	71.9091
836.601	58.6862
838.13	57.743
839.658	52.2408
841.187	58.21
842.716	74.5653
844.245	61.7218
845.773	67.768
847.302	71.0734
848.831	68.9811
850.36	73.3286
851.888	69.3877
853.417	75.1104
854.946	79.3509
856.475	63.0801
858.004	78.5154
859.532	63.3634
861.061	68.5104
862.59	52.9349
864.119	48.5412
865.647	45.1131
867.176	31.0281
868.705	42.8037
870.234	30.1756
871.763	30.6358
873.291	32.3512
874.82	40.9253
876.349	43.7484
877.878	34.7844
879.406	40.7965
880.935	28.5415
882.464	24.5444
883.993	24.3027
885.522	14.1053
887.05	21.193
888.579	17.0781
890.108	24.3724
891.637	15.0027
893.165	8.97225
894.694	15.5131
896.223	15.3297
897.752	9.84657
899.281	12.6697
900.809	12.7933
902.338	4.26815
903.867	5.96784
905.396	11.0718
906.924	10.4582
908.453	17.7394
909.982	2.90164
911.511	-4.55402
913.04	-2.59539
914.568	-5.52077
916.097	4.08284
917.626	2.82204
919.155	4.1766
920.683	0.551238
922.212	1.9947
923.741	1.76612
925.27	2.42305
926.799	5.98726
928.327	-1.0517
929.856	3.6424
931.385	12.7466
932.914	1.25697
934.442	6.08868
935.971	9.45875
937.5	-3.3728
939.029	-4.96253
940.558	-8.36397
942.086	-15.9608
943.615	-14.1411
945.144	-14.7005
946.673	-14.8937
948.201	-27.2087
949.73	-8.81289
951.259	-17.0774
952.788	-30.9344
954.317	-24.3381
955.845	-24.7192
957.374	-31.8637
958.903	-35.4442
960.432	-19.3415
961.96	-30.184
963.489	-32.0723
965.018	-37.4067
966.547	-41.6627
968.076	-40.5244
969.604	-38.7342
971.133	-34.6053
972.662	-50.9557
974.191	-41.1753
975.719	-50.9707
977.248	-56.6869
978.777	-49.7767
980.306	-51.1807
981.835	-44.1183
983.363	-48.1347
984.892	-49.5588
986.421	-53.4365
987.95	-40.9399
989.478	-61.2309
991.007	-57.9719
992.536	-61.2866
994.065	-59.4246
995.594	-61.4716
997.122	-55.0874
998.651	-62.6533
1000.18	-73.4342
1001.71	-59.262
1003.24	-71.4572
1004.77	-59.4122
1006.29	-59.839
1007.82	-66.8897
1009.35	-56.8776
1010.88	-63.2817
1012.41	-58.4861
1013.94	-48.67
1015.47	-51.8209
1017	-59.9298
1018.53	-48.8133
1020.05	-51.2552
1021.58	-52.0959
1023.11	-57.9745
1024.64	-60.1059
1026.17	-62.0321
1027.7	-55.6547
1029.23	-55.3228
1030.76	-29.1441
1032.28	-59.5263
1033.81	-56.6485
1035.34	-38.6921
1036.87	-54.286
1038.4	-53.2043
1039.93	-45.294
1041.46	-61.2823
1042.99	-52.8481
1044.51	-47.4822
1046.04	-49.8998
1047.57	-39.4156
1049.1	-45.7273
1050.63	-39.8484
1052.16	-47.1023
1053.69	-51.3843
1055.22	-58.859
1056.74	-41.0544
1058.27	-55.948
1059.8	-59.3482
1061.33	-57.2617
1062.86	-43.6143
1064.39	-53.889
1065.92	-45.8599
1067.45	-50.0569
1068.97	-59.4325
1070.5	-43.615
1072.03	-46.8878
1073.56	-36.7401
1075.09	-43.1923
1076.62	-42.0782
1078.15	-41.7333
1079.68	-42.1122
1081.21	-44.0291
1082.73	-46.915
1084.26	-37.491
1085.79	-40.6261
1087.32	-32.9966
1088.85	-29.0388
1090.38	-44.9718
1091.91	-35.0418
1093.44	-34.558
1094.96	-34.1257
1096.49	-31.2889
1098.02	-36.6501
1099.55	-38.9459
1101.08	-36.7628
1102.61	-29.8768
1104.14	-40.5814
1105.67	-32.7933
1107.19	-23.7379
1108.72	-26.8839
1110.25	-18.92
1111.78	-20.6043
1113.31	-20.7965
1114.84	-22.7068
1116.37	-11.3863
1117.9	-7.56421
1119.42	-15.5906
1120.95	-21.1114
1122.48	-17.9127
1124.01	-12.8086
1125.54	-14.8993
1127.07	-23.6114
1128.6	-4.98277
1130.13	-17.2864
1131.65	7.17218
1133.18	-12.6761
1134.71	-1.85385
1136.24	0.035461
1137.77	12.2179
1139.3	-1.0588
1140.83	13.827
1142.36	18.0241
1143.88	19.5776
1145.41	21.5593
1146.94	35.1134
1148.47	16.7031
1150	35.839
1151.53	24.4596
1153.06	30.8594
1154.59	37.4964
1156.12	17.3723
1157.64	31.1991
1159.17	44.1575
1160.7	29.452
1162.23	46.302
1163.76	36.0276
1165.29	51.6447
1166.82	29.9768
1168.35	31.4432
1169.87	34.1945
1171.4	24.0341
1172.93	42.7089
1174.46	20.997
1175.99	39.2733
1177.52	37.6727
1179.05	50.7254
1180.58	41.2295
1182.1	44.6041
1183.63	32.5008
1185.16	37.7339
1186.69	69.0645
1188.22	25.1431
1189.75	30.3904
1191.28	51.1362
1192.81	22.8888
1194.33	67.2156
1195.86	42.79
1197.39	55.5678
1198.92	43.8752
1200.45	44.7834
1201.98	56.5447
1203.51	66.9982
1205.04	77.6028
1206.56	69.1607
1208.09	48.6711
1209.62	76.0386
1211.15	71.7527
1212.68	71.542
1214.21	80.511
1215.74	76.0578
1217.27	75.7475
1218.79	86.6262
1220.32	87.4062
1221.85	102.462
1223.38	99.7155
1224.91	105.926
1226.44	111.859
1227.97	107.849
1229.5	129.196
1231.03	128.098
1232.55	152.655
1234.08	131.414
1235.61	151.689
1237.14	159.841
1238.67	172.948
1240.2	164.006
1241.73	180.925
1243.26	164.371
1244.78	200.981
1246.31	211.534
1247.84	196.18
1249.37	196.696
1250.9	236.396
1252.43	248.252
1253.96	228.349
1255.49	250.101
1257.01	272.052
1258.54	274.382
1260.07	276.354
1261.6	282.981
1263.13	291.119
1264.66	318.927
1266.19	325.22
1267.72	356.76
1269.24	361.286
1270.77	391.046
1272.3	393.781
1273.83	431.933
1275.36	426.299
1276.89	431.538
1278.42	443.676
1279.95	458.552
1281.47	503.337
1283	501.911
1284.53	542.365
1286.06	557.872
1287.59	566.588
1289.12	610.268
1290.65	610.409
1292.18	638.332
1293.71	660.123
1295.23	660.845
1296.76	714.513
1298.29	747.305
1299.82	773.532
1301.35	783.073
1302.88	839.707
1304.41	850.554
1305.94	918.596
1307.46	867.163
1308.99	934.415
1310.52	958.801
1312.05	1056.42
1313.58	1067.31
1315.11	1083.43
1316.64	1125.31
1318.17	1159.19
1319.69	1183.71
1321.22	1170.41
1322.75	1265.22
1324.28	1262.37
1325.81	1310.25
1327.34	1360.02
1328.87	1356.9
1330.4	1390.61
1331.92	1418.76
1333.45	1443.36
1334.98	1443.85
1336.51	1448.79
1338.04	1456.83
1339.57	1436.32
1341.1	1458.4
1342.63	1448.76
1344.15	1455.59
1345.68	1423.29
1347.21	1383.88
1348.74	1391.92
1350.27	1342.49
1351.8	1368.91
1353.33	1325.84
1354.86	1318.46
1356.38	1252.98
1357.91	1233.9
1359.44	1190.26
1360.97	1156.16
1362.5	1128.01
1364.03	1124.19
1365.56	1058.64
1367.09	1009.67
1368.62	983.593
1370.14	930.628
1371.67	915.814
1373.2	907.17
1374.73	843.249
1376.26	842.975
1377.79	791.276
1379.32	738.641
1380.85	729.501
1382.37	704.16
1383.9	691.516
1385.43	643.468
1386.96	613.292
1388.49	612.66
1390.02	543.787
1391.55	528.634
1393.08	526.509
1394.6	476.369
1396.13	460.22
1397.66	459.375
1399.19	421.09
1400.72	367.942
1402.25	370.101
1403.78	350.125
1405.31	305.006
1406.83	325.818
1408.36	324.592
1409.89	295.272
1411.42	293.18
1412.95	249.011
1414.48	247.858
1416.01	220.597
1417.54	217.434
1419.06	192.637
1420.59	213.652
1422.12	179.299
1423.65	185.724
1425.18	166.736
1426.71	170.411
1428.24	145.928
1429.77	133.425
1431.29	143.378
1432.82	123.604
1434.35	94.3271
1435.88	96.3938
1437.41	97.6784
1438.94	94.984
1440.47	99.6649
1442	92.0795
1443.53	59.1312
1445.05	60.7466
1446.58	68.5581
1448.11	61.5915
1449.64	41.3957
1451.17	38.4358
1452.7	-1.989
1454.23	41.2548
1455.76	33.434
1457.28	18.5299
1458.81	18.2193
1460.34	11.7753
1461.87	21.0559
1463.4	8.58066
1464.93	7.7232
1466.46	2.15572
1467.99	-11.171
1469.51	8.72192
1471.04	4.60241
1472.57	29.7512
1474.1	12.5104
1475.63	22.8086
1477.16	37.5022
1478.69	62.7684
1480.22	26.8125
1481.74	45.8069
1483.27	42.0875
1484.8	51.5141
1486.33	70.1169
1487.86	51.0425
1489.39	82.0254
1490.92	105.922
1492.45	90.6293
1493.97	80.43
1495.5	95.2803
1497.03	110.961
1498.56	131.684
1500.09	104.947
1501.62	118.384
1503.15	147.749
1504.68	144.687
1506.21	153.261
1507.73	168.959
1509.26	183.184
1510.79	175.047
1512.32	201.91
1513.85	211.09
1515.38	222.948
1516.91	215.708
1518.44	237.265
1519.96	236.621
1521.49	271.399
1523.02	258.227
1524.55	272.077
1526.08	283.015
1527.61	333.982
1529.14	344.033
1530.67	356.049
1532.19	375.766
1533.72	384.915
1535.25	434.126
1536.78	434.35
1538.31	488.952
1539.84	486.591
1541.37	530.91
1542.9	553.67
1544.42	569.2
1545.95	589.053
1547.48	638.577
1549.01	659.422
1550.54	714.925
1552.07	748.234
1553.6	789.841
1555.13	836.525
1556.65	829.806
1558.18	883.811
1559.71	908.791
1561.24	937.391
1562.77	1000.66
1564.3	1042.7
1565.83	1069.94
1567.36	1117.625
1568.88	1158.23
1570.41	1220.59
1571.94	1252.53
1573.47	1295.63
1575	1330.87
1576.53	1366.65
1578.06	1415.02
1579.59	1453.83
1581.12	1495.88
1582.64	1504.5
1584.17	1541.27
1585.7	1580.25
1587.23	1591.35
1588.76	1596.64
1590.29	1634.28
1591.82	1612.37
1593.35	1631.25
1594.87	1632.63
1596.4	1606.68
1597.93	1581.56
1599.46	1613.42
1600.99	1589.38
1602.52	1566.1
1604.05	1542.77
1605.58	1515.05
1607.1	1478.39
1608.63	1441.89
1610.16	1399.47
1611.69	1357.58
1613.22	1340.98
1614.75	1259.89
1616.28	1211.97
1617.81	1155.99
1619.33	1105.98
1620.86	1051.82
1622.39	1009.3
1623.92	936.273
1625.45	899.481
1626.98	844.525
1628.51	793.36
1630.04	748.919
1631.56	698.643
1633.09	654.468
1634.62	604.455
1636.15	566.194
1637.68	539.858
1639.21	493.485
1640.74	464.149
1642.27	421.586
1643.79	412.805
1645.32	372.592
1646.85	327.402
1648.38	337.506
1649.91	281.456
1651.44	256.464
1652.97	239.158
1654.5	218.796
1656.03	193.021
1657.55	186.219
1659.08	160.729
1660.61	150.68
1662.14	136.321
1663.67	116.148
1665.2	96.7988
1666.73	102.456
1668.26	91.7061
1669.78	77.2723
1671.31	59.8237
1672.84	60.5019
1674.37	43.5931
1675.9	43.3489
1677.43	33.8554
1678.96	31.6849
1680.49	21.4156
1682.01	28.6144
1683.54	21.3885
1685.07	11.2933
1686.6	11.8724
1688.13	21.721
1689.66	19.9046
1691.19	15.7293
1692.72	7.55072
1694.24	6.87753
1695.77	8.83354
1697.3	13.7935
1698.83	16.1519
1700.36	4.90292
1701.89	2.0983
1703.42	6.6663
1704.95	2.53036
1706.47	-0.643179
1708	-8.21242
1709.53	11.5974
1711.06	224.493
1712.59	1.71533
1714.12	-7.59335
1715.65	5.7404
1717.18	-10.5479
1718.71	2.75502
1720.23	-5.36406
1721.76	7.03983
1723.29	1.90608
1724.82	0.367626
1726.35	-5.35103
1727.88	-8.10486
1729.41	-2.70113
1730.94	1.00648
1732.46	0.759006
1733.99	-5.01967
1735.52	1.84726
1737.05	-11.808
1738.58	-3.65087
1740.11	1.01518
1741.64	6.70213
1743.17	2.02429
1744.69	-4.24522
1746.22	11.9592
1747.75	11.8635
1749.28	-0.0739057
1750.81	4.02542
1752.34	0.906272
1753.87	2.36032
1755.4	-6.69214
1756.92	4.24558
1758.45	-3.91072
1759.98	-11.0973
1761.51	-8.09181
1763.04	-11.1464
1764.57	-9.44493
1766.1	-17.9047
1767.63	-13.6709
1769.15	-13.4855
1770.68	-12.7093
1772.21	-0.134418
1773.74	-11.8351
1775.27	-4.21247
1776.8	-23.6627
1778.33	-15.6158
1779.86	-8.87563
1781.38	-19.7919
1782.91	-13.6069
1784.44	-17.1065
1785.97	-10.4689
1787.5	-22.4758
1789.03	-10.613
1790.56	-13.8044
1792.09	-13.72
1793.62	-8.31447
1795.14	-4.69734
1796.67	-13.5115
1798.2	-17.3943
1799.73	-13.2006
1801.26	-20.5137
1802.79	-7.24732
1804.32	-11.8543
1805.85	-10.6479
1807.37	-12.2287
1808.9	-16.6782
1810.43	-10.8222
1811.96	-16.1411
1813.49	-15.7295
1815.02	-16.9744
1816.55	-12.7721
1818.08	-20.0172
1819.6	-9.36144
1821.13	-9.14075
1822.66	-5.99555
1824.19	-16.9752
1825.72	-22.0874
1827.25	-17.6121
1828.78	-19.358
1830.31	-13.0283
1831.83	-4.00889
1833.36	-7.14517
1834.89	-20.7752
1836.42	-7.65856
1837.95	-5.6682
1839.48	-8.95532
1841.01	-16.9357
1842.54	-5.96005
1844.06	-3.47564
1845.59	-17.6079
1847.12	-1.72171
1848.65	-7.93545
1850.18	-11.2545
1851.71	-8.858
1853.24	-7.59882
1854.77	-16.1383
1856.29	-9.63829
1857.82	-14.127
1859.35	-16.6095
1860.88	-6.02374
1862.41	-10.3006
1863.94	-16.273
1865.47	-22.0219
1867	-4.64191
1868.53	-8.96497
1870.05	-8.16738
1871.58	-8.28098
1873.11	-9.20528
1874.64	-11.632
1876.17	-11.2421
1877.7	-5.85061
1879.23	-19.0179
1880.76	-3.54318
1882.28	-11.8552
1883.81	-3.38221
1885.34	-4.75537
1886.87	-15.8226
1888.4	-13.2303
1889.93	-6.42258
1891.46	-8.47418
1892.99	-12.7925
1894.51	-7.92317
1896.04	-9.01194
1897.57	-9.02068
1899.1	-2.02199
1900.63	-11.1438
1902.16	-7.22538
1903.69	2.61907
1905.22	-10.9285
1906.74	-7.81592
1908.27	-7.2908
1909.8	-4.25292
1911.33	-4.53716
1912.86	-5.89628
1914.39	-8.2604
1915.92	-13.0608
1917.45	-11.9706
1918.97	-11.1282
1920.5	-3.16841
1922.03	-1.02076
1923.56	-11.3798
1925.09	-10.8697
1926.62	-7.28837
1928.15	-2.87177
1929.68	-7.09097
1931.21	-8.75645
1932.73	-3.32106
1934.26	-2.49859
1935.79	-12.4328
1937.32	-12.4703
1938.85	-0.0986752
1940.38	-13.2806
1941.91	-2.35577
1943.44	-3.88572
1944.96	-7.87905
1946.49	-3.0903
1948.02	1.49395
1949.55	-3.09906
1951.08	-14.9931
1952.61	-11.7041
1954.14	4.02633
1955.67	1.47382
1957.19	-7.50892
1958.72	0.339307
1960.25	-3.891
1961.78	-3.35863
1963.31	-2.159
1964.84	-4.59127
1966.37	11.0188
1967.9	-0.227632
1969.42	-10.784
1970.95	2.04225
1972.48	1.14394
1974.01	0.0627645
1975.54	1.59841
1977.07	-1.51027
1978.6	-1.99951
1980.13	-1.03263
1981.65	3.13535
1983.18	0.583717
1984.71	-2.67752
1986.24	-1.42262
1987.77	9.13789
1989.3	-1.67073
1990.83	-0.977612
1992.36	-6.06312
1993.88	-0.88939
1995.41	-5.20002
1996.94	-3.30492
1998.47	10.532
2000	-0.840052