File: Example Data/Raman/CNT - TIM/Raytheon/Al foil/2011/02-10-11/Batch 27 - bottom_1.txt
300	379.087
301.529	394.978
303.058	390.527
304.586	412.859
306.115	395.454
307.644	389.772
309.173	395.21
310.701	389.443
312.23	392.051
313.759	384.89
315.288	397.381
316.817	383.508
318.345	406.594
319.874	378.78
321.403	379.981
322.932	384.168
324.46	393.458
325.989	383.922
327.518	379.482
329.047	374.757
330.576	376.363
332.104	391.096
333.633	386.01
335.162	381.144
336.691	378.48
338.219	396.539
339.748	383.336
341.277	370.323
342.806	368.616
344.335	376.575
345.863	375.019
347.392	371.111
348.921	358.64
350.45	369.538
351.978	371.163
353.507	368.815
355.036	371.601
356.565	361.96
358.094	359.143
359.622	355.042
361.151	365.987
362.68	373.408
364.209	375.186
365.737	371.817
367.266	364.542
368.795	361.399
370.324	371.788
371.853	369.985
373.381	357.585
374.91	357.349
376.439	358.802
377.968	366.981
379.496	361.767
381.025	352.884
382.554	358.701
384.083	368.752
385.612	353.122
387.14	364.973
388.669	354.782
390.198	345.953
391.727	354.54
393.255	358.12
394.784	346.7
396.313	349.759
397.842	340.928
399.371	348.395
400.899	355.022
402.428	359.329
403.957	350.122
405.486	334.887
407.014	346.891
408.543	365.031
410.072	353.087
411.601	341.504
413.129	345.78
414.658	344.842
416.187	345.998
417.716	342.811
419.245	349.823
420.773	347.632
422.302	349.692
423.831	341.137
425.36	340.895
426.888	344.241
428.417	333.826
429.946	337.114
431.475	340.34
433.004	343.195
434.532	351.554
436.061	336.454
437.59	338.551
439.119	337.044
440.647	346.235
442.176	328.814
443.705	313.128
445.234	339.946
446.763	334.962
448.291	316.306
449.82	321.676
451.349	329.038
452.878	320.128
454.406	329.47
455.935	334.823
457.464	325.176
458.993	307.585
460.522	315.975
462.05	322.054
463.579	332.164
465.108	300.628
466.637	317.937
468.165	309.258
469.694	318.616
471.223	315.569
472.752	321.971
474.281	317.05
475.809	313.078
477.338	314.281
478.867	303.369
480.396	299.531
481.924	304.196
483.453	316.61
484.982	302.621
486.511	299.458
488.04	301.849
489.568	293.368
491.097	293.473
492.626	293.444
494.155	305.419
495.683	292.199
497.212	290.96
498.741	291.503
500.27	284.766
501.799	289.25
503.327	281.754
504.856	276.048
506.385	289.459
507.914	292.475
509.442	291.977
510.971	284.613
512.5	270.804
514.029	295.747
515.558	276.105
517.086	280.998
518.615	281.257
520.144	296.981
521.673	288.648
523.201	273.945
524.73	273.348
526.259	291.149
527.788	279.052
529.317	282.44
530.845	280.766
532.374	287.397
533.903	281.901
535.432	292.67
536.96	275.73
538.489	292.584
540.018	285.57
541.547	282.376
543.076	286.276
544.604	286.861
546.133	287.285
547.662	278.607
549.191	286.247
550.719	278.745
552.248	285.791
553.777	277.142
555.306	285.59
556.835	288.423
558.363	294.665
559.892	263.186
561.421	295.141
562.95	279.624
564.478	291.215
566.007	291.712
567.536	293.901
569.065	292.116
570.594	292.902
572.122	292.018
573.651	295.664
575.18	300.162
576.709	287.08
578.237	298.928
579.766	308.837
581.295	299.306
582.824	294.927
584.353	298.17
585.881	307.586
587.41	297.782
588.939	295.852
590.468	290.203
591.996	298.952
593.525	289.29
595.054	293.791
596.583	287.857
598.112	285.911
599.64	285.262
601.169	294.004
602.698	288.119
604.227	280.883
605.755	295.715
607.284	297.507
608.813	302.537
610.342	294.731
611.87	305.287
613.399	286.682
614.928	293.318
616.457	300.547
617.986	291.832
619.514	295.188
621.043	288.631
622.572	303.91
624.101	287.432
625.63	291.733
627.158	294.988
628.687	304.41
630.216	306.09
631.745	292.166
633.273	300.971
634.802	292.146
636.331	301.101
637.86	304.759
639.388	300.224
640.917	307.665
642.446	314.475
643.975	315.179
645.504	305.653
647.032	305.66
648.561	300.51
650.09	309.843
651.619	316.687
653.147	293.717
654.676	300.508
656.205	314.956
657.734	305.858
659.263	301.755
660.791	303.306
662.32	321.184
663.849	308.198
665.378	310.313
666.906	319.394
668.435	315.796
669.964	306.722
671.493	318.332
673.022	309.293
674.55	308.565
676.079	310.871
677.608	319.388
679.137	307.69
680.665	303.483
682.194	321.857
683.723	310.722
685.252	314.577
686.781	322.171
688.309	317.474
689.838	310.593
691.367	298.605
692.896	308.57
694.424	327.698
695.953	321.751
697.482	314.099
699.011	309.926
700.54	317.564
702.068	315.567
703.597	324.216
705.126	317.904
706.655	302.901
708.183	312.471
709.712	313.261
711.241	312.659
712.77	322.665
714.299	319.769
715.827	317.592
717.356	327.368
718.885	316.052
720.414	317.713
721.942	326.209
723.471	324.455
725	323.361
726.529	336.018
728.058	327.151
729.586	320.553
731.115	333.288
732.644	333.024
734.173	336.869
735.701	332.25
737.23	346.084
738.759	350.428
740.288	312.732
741.817	329.828
743.345	344.643
744.874	343.202
746.403	339.909
747.932	346.141
749.46	343.159
750.989	343.351
752.518	352.231
754.047	352.178
755.576	340.341
757.104	344.015
758.633	346.147
760.162	345.273
761.691	364.62
763.219	359.153
764.748	338.384
766.277	353.077
767.806	357.501
769.335	350.933
770.863	355.309
772.392	354.886
773.921	353.061
775.45	369.107
776.978	362.908
778.507	341.233
780.036	354.5
781.565	363.294
783.094	354.334
784.622	360.781
786.151	367.054
787.68	359.894
789.209	351.426
790.737	365.27
792.266	375.124
793.795	371.056
795.324	369.504
796.853	357.574
798.381	373.449
799.91	372.622
801.439	368.407
802.968	365.368
804.496	369.743
806.025	376.995
807.554	382.211
809.083	367.577
810.612	366.772
812.14	374.794
813.669	382.763
815.198	372.438
816.727	367.765
818.255	377.188
819.784	387.158
821.313	379.103
822.842	394.398
824.37	359.648
825.899	385.63
827.428	366.656
828.957	380.197
830.486	384.127
832.014	398.615
833.543	378.553
835.072	401.697
836.601	395.909
838.13	391.526
839.658	384.507
841.187	387.502
842.716	387.815
844.245	396.139
845.773	393.767
847.302	395.401
848.831	389.11
850.36	394.61
851.888	380.842
853.417	404.94
854.946	399.096
856.475	386.141
858.004	380.961
859.532	386.211
861.061	369.956
862.59	381.226
864.119	368.869
865.647	375.178
867.176	374.173
868.705	368.536
870.234	359.963
871.763	374.925
873.291	356.121
874.82	368.369
876.349	356.91
877.878	362.801
879.406	365.227
880.935	369.997
882.464	349.052
883.993	357.202
885.522	354.094
887.05	366.005
888.579	374.669
890.108	357.279
891.637	365.169
893.165	337.312
894.694	336.647
896.223	350.753
897.752	348.46
899.281	359.125
900.809	353.563
902.338	347.259
903.867	349.455
905.396	356.432
906.924	338.359
908.453	346.583
909.982	353.65
911.511	343.717
913.04	352.74
914.568	339.561
916.097	346.846
917.626	330.715
919.155	361.056
920.683	342.004
922.212	343.059
923.741	340.717
925.27	347.005
926.799	356.3
928.327	336.791
929.856	329.032
931.385	327.983
932.914	349.774
934.442	346.307
935.971	353.75
937.5	344.681
939.029	361.792
940.558	342.255
942.086	343.306
943.615	337.498
945.144	350.835
946.673	344.268
948.201	350.7
949.73	354.619
951.259	361.696
952.788	349.734
954.317	349.39
955.845	355.765
957.374	364.447
958.903	346.294
960.432	346.076
961.96	362.077
963.489	360.443
965.018	354.894
966.547	342.139
968.076	372.768
969.604	359.194
971.133	363.103
972.662	353.287
974.191	355.467
975.719	351.844
977.248	359.093
978.777	354.482
980.306	362.573
981.835	359.818
983.363	370.504
984.892	380.172
986.421	363.142
987.95	374.923
989.478	373.177
991.007	379.721
992.536	380.617
994.065	368.034
995.594	382.15
997.122	373.61
998.651	371.567
1000.18	405.203
1001.71	389.552
1003.24	382.172
1004.77	400.422
1006.29	396.603
1007.82	404.255
1009.35	409.759
1010.88	407.762
1012.41	408.597
1013.94	415.333
1015.47	406.844
1017	418.143
1018.53	433.845
1020.05	437.581
1021.58	421.552
1023.11	437.822
1024.64	451.099
1026.17	439.931
1027.7	438.514
1029.23	452.041
1030.76	455.574
1032.28	449.14
1033.81	456.246
1035.34	461.137
1036.87	452.198
1038.4	477.84
1039.93	481.303
1041.46	479.687
1042.99	460.414
1044.51	465.311
1046.04	484.242
1047.57	469.296
1049.1	484.068
1050.63	493.867
1052.16	491.471
1053.69	493.473
1055.22	494.765
1056.74	505.053
1058.27	500.317
1059.8	498.471
1061.33	503.816
1062.86	495.342
1064.39	505.744
1065.92	511.214
1067.45	509.057
1068.97	514.151
1070.5	500.294
1072.03	509.832
1073.56	521.159
1075.09	518.868
1076.62	540.604
1078.15	537.657
1079.68	535.006
1081.21	533.005
1082.73	545.458
1084.26	550.57
1085.79	542.777
1087.32	545.942
1088.85	545.743
1090.38	556.204
1091.91	558.788
1093.44	571.813
1094.96	565.939
1096.49	567.116
1098.02	571.401
1099.55	589.256
1101.08	581.357
1102.61	573.568
1104.14	573.185
1105.67	584.476
1107.19	601.527
1108.72	608.525
1110.25	601.739
1111.78	591.856
1113.31	593.193
1114.84	600.072
1116.37	612.828
1117.9	622.978
1119.42	606.551
1120.95	636.189
1122.48	622.393
1124.01	622.807
1125.54	644.505
1127.07	648.409
1128.6	630.213
1130.13	630.472
1131.65	654.376
1133.18	643.699
1134.71	647.526
1136.24	651.347
1137.77	660.544
1139.3	657.318
1140.83	666.842
1142.36	674.338
1143.88	680.983
1145.41	693.359
1146.94	702.412
1148.47	707.166
1150	714.474
1151.53	693.698
1153.06	696.913
1154.59	717.13
1156.12	729.992
1157.64	714.945
1159.17	716.809
1160.7	735.982
1162.23	728.73
1163.76	720.234
1165.29	737.901
1166.82	735.056
1168.35	735.614
1169.87	723.433
1171.4	736.202
1172.93	745.279
1174.46	767.351
1175.99	759.552
1177.52	770.568
1179.05	768.065
1180.58	784.71
1182.1	751.096
1183.63	773.938
1185.16	779.062
1186.69	762.1
1188.22	807.739
1189.75	817.253
1191.28	794.38
1192.81	804.689
1194.33	790.898
1195.86	806.368
1197.39	819.366
1198.92	817.727
1200.45	812.052
1201.98	828.328
1203.51	848.687
1205.04	836.634
1206.56	860.557
1208.09	840.363
1209.62	847.502
1211.15	872.917
1212.68	881.633
1214.21	888.079
1215.74	899.171
1217.27	905.185
1218.79	896.868
1220.32	918.984
1221.85	923.416
1223.38	932.095
1224.91	945.715
1226.44	938.709
1227.97	958.646
1229.5	945.093
1231.03	993.061
1232.55	959.51
1234.08	985.761
1235.61	1012.71
1237.14	1014.91
1238.67	1020.49
1240.2	1017.03
1241.73	1050.87
1243.26	1030.72
1244.78	1068.87
1246.31	1094.55
1247.84	1084.76
1249.37	1090.15
1250.9	1115.62
1252.43	1134.94
1253.96	1135.53
1255.49	1152.49
1257.01	1163.45
1258.54	1190.64
1260.07	1201.05
1261.6	1198.39
1263.13	1217.85
1264.66	1212.23
1266.19	1242.04
1267.72	1288.07
1269.24	1267.8
1270.77	1300.71
1272.3	1320.63
1273.83	1356.22
1275.36	1355.51
1276.89	1373.42
1278.42	1395.51
1279.95	1412.38
1281.47	1448.93
1283	1475.43
1284.53	1500.79
1286.06	1502.11
1287.59	1548.13
1289.12	1559.9
1290.65	1619.96
1292.18	1603.43
1293.71	1658.14
1295.23	1674.53
1296.76	1683.03
1298.29	1736.51
1299.82	1745.97
1301.35	1776.47
1302.88	1819.41
1304.41	1870.39
1305.94	1892.43
1307.46	1902.11
1308.99	1954.5
1310.52	2017.81
1312.05	2004.61
1313.58	2037.36
1315.11	2055.41
1316.64	2112.05
1318.17	2174.13
1319.69	2125.19
1321.22	2221.29
1322.75	2233.53
1324.28	2258.93
1325.81	2261.56
1327.34	2287.18
1328.87	2277.24
1330.4	2337.67
1331.92	2328.85
1333.45	2342.55
1334.98	2360.73
1336.51	2353.26
1338.04	2309.2
1339.57	2351.48
1341.1	2340.26
1342.63	2363.33
1344.15	2320.57
1345.68	2309.92
1347.21	2284.15
1348.74	2281.26
1350.27	2263.28
1351.8	2224.78
1353.33	2229.37
1354.86	2190.33
1356.38	2145.87
1357.91	2120.15
1359.44	2097.16
1360.97	2068.68
1362.5	2042.18
1364.03	2013.86
1365.56	2003.92
1367.09	1962.21
1368.62	1910.67
1370.14	1888.58
1371.67	1855.7
1373.2	1837.05
1374.73	1785.64
1376.26	1778.54
1377.79	1748.9
1379.32	1730.18
1380.85	1709.29
1382.37	1705.58
1383.9	1652.03
1385.43	1641.82
1386.96	1608.63
1388.49	1594.75
1390.02	1568.43
1391.55	1536.78
1393.08	1538.67
1394.6	1525.92
1396.13	1517.48
1397.66	1477.78
1399.19	1469.64
1400.72	1401.45
1402.25	1428.78
1403.78	1414.92
1405.31	1381.33
1406.83	1401.32
1408.36	1352.7
1409.89	1358.79
1411.42	1353.46
1412.95	1335.87
1414.48	1331
1416.01	1313.52
1417.54	1288.47
1419.06	1298.5
1420.59	1276.42
1422.12	1278.67
1423.65	1281.87
1425.18	1251.22
1426.71	1254.02
1428.24	1244.91
1429.77	1242.68
1431.29	1234
1432.82	1242.93
1434.35	1232.48
1435.88	1240.81
1437.41	1197.18
1438.94	1219.74
1440.47	1238.9
1442	1217.05
1443.53	1204.42
1445.05	1202.97
1446.58	1210.79
1448.11	1199.11
1449.64	1212.13
1451.17	1192.01
1452.7	1194.05
1454.23	1209.57
1455.76	1204.26
1457.28	1178.06
1458.81	1177.78
1460.34	1192.31
1461.87	1191.57
1463.4	1194.85
1464.93	1199.37
1466.46	1188.47
1467.99	1214.97
1469.51	1198.66
1471.04	1198
1472.57	1166.42
1474.1	1196.07
1475.63	1198.72
1477.16	1161.15
1478.69	1199.75
1480.22	1186.34
1481.74	1196.9
1483.27	1209.78
1484.8	1233.24
1486.33	1203.96
1487.86	1192.88
1489.39	1218.65
1490.92	1197
1492.45	1202.5
1493.97	1185.51
1495.5	1193.17
1497.03	1204.7
1498.56	1200.84
1500.09	1209.07
1501.62	1202.57
1503.15	1229.7
1504.68	1195.83
1506.21	1204.09
1507.73	1219.85
1509.26	1200.31
1510.79	1248.06
1512.32	1218.24
1513.85	1243.6
1515.38	1252.05
1516.91	1249.91
1518.44	1269.01
1519.96	1282.41
1521.49	1292.45
1523.02	1300.83
1524.55	1315.51
1526.08	1311.98
1527.61	1305.47
1529.14	1350.24
1530.67	1355.89
1532.19	1360.57
1533.72	1386.06
1535.25	1385.68
1536.78	1406.82
1538.31	1422.64
1539.84	1430.61
1541.37	1466.29
1542.9	1500.61
1544.42	1512.68
1545.95	1547.28
1547.48	1575.91
1549.01	1606.74
1550.54	1648.92
1552.07	1697.32
1553.6	1711.29
1555.13	1759.95
1556.65	1750.72
1558.18	1789.61
1559.71	1810.65
1561.24	1835.46
1562.77	1895.39
1564.3	1925.4
1565.83	1949.34
1567.36	1977.93
1568.88	2001.01
1570.41	2059.85
1571.94	2092.01
1573.47	2111.62
1575	2108.73
1576.53	2172.14
1578.06	2188.31
1579.59	2195.5
1581.12	2227.3
1582.64	2230.05
1584.17	2241.89
1585.7	2239.43
1587.23	2238.32
1588.76	2238
1590.29	2239.47
1591.82	2213.86
1593.35	2201.04
1594.87	2198.15
1596.4	2154.83
1597.93	2150.05
1599.46	2146.16
1600.99	2082.25
1602.52	2044.6
1604.05	2009.07
1605.58	1963.38
1607.1	1932.47
1608.63	1856.86
1610.16	1817.51
1611.69	1770.25
1613.22	1702.14
1614.75	1653.21
1616.28	1616.73
1617.81	1533.81
1619.33	1482.55
1620.86	1424.19
1622.39	1371.51
1623.92	1321.49
1625.45	1272.23
1626.98	1217.875
1628.51	1184.13
1630.04	1138.4
1631.56	1094.15
1633.09	1054.83
1634.62	1008.08
1636.15	991.851
1637.68	942.176
1639.21	919.007
1640.74	873.825
1642.27	854.09
1643.79	825.843
1645.32	787.217
1646.85	766.159
1648.38	740.717
1649.91	706.466
1651.44	682.239
1652.97	671.532
1654.5	652.882
1656.03	620.956
1657.55	602.826
1659.08	598.089
1660.61	558.214
1662.14	547.546
1663.67	487.328
1665.2	475.695
1666.73	501.992
1668.26	498.318
1669.78	479.545
1671.31	470.801
1672.84	456.859
1674.37	448.98
1675.9	437.899
1677.43	433.735
1678.96	412.635
1680.49	414.171
1682.01	402.321
1683.54	389.499
1685.07	383.61
1686.6	383.893
1688.13	378.984
1689.66	372.866
1691.19	365.983
1692.72	359.121
1694.24	360.442
1695.77	346.933
1697.3	350.421
1698.83	351.051
1700.36	342.77
1701.89	334.501
1703.42	378.077
1704.95	329.494
1706.47	334.274
1708	311.73
1709.53	327.109
1711.06	307.461
1712.59	319.478
1714.12	313.757
1715.65	313.979
1717.18	324.661
1718.71	303.276
1720.23	300.359
1721.76	300.453
1723.29	298.994
1724.82	293.919
1726.35	293.384
1727.88	293.523
1729.41	292.817
1730.94	286.203
1732.46	286.607
1733.99	291.427
1735.52	285.038
1737.05	283.948
1738.58	280.641
1740.11	283.548
1741.64	276.83
1743.17	281.597
1744.69	281.856
1746.22	279.147
1747.75	271.25
1749.28	281.814
1750.81	280.239
1752.34	285.15
1753.87	269.728
1755.4	273.024
1756.92	261.462
1758.45	262.362
1759.98	275.238
1761.51	265.02
1763.04	268.066
1764.57	264.244
1766.1	270.142
1767.63	267.029
1769.15	272.81
1770.68	259.117
1772.21	261.822
1773.74	255.358
1775.27	260.153
1776.8	261.305
1778.33	256.738
1779.86	253.873
1781.38	264.003
1782.91	265.577
1784.44	251.966
1785.97	254.707
1787.5	258.149
1789.03	253.24
1790.56	254.052
1792.09	252.971
1793.62	252.015
1795.14	253.906
1796.67	263.723
1798.2	246.442
1799.73	245.446
1801.26	247.906
1802.79	258.419
1804.32	254.856
1805.85	240.567
1807.37	243.479
1808.9	240.11
1810.43	251.602
1811.96	250.345
1813.49	251.5
1815.02	230.762
1816.55	255.558
1818.08	242.529
1819.6	256.716
1821.13	255.594
1822.66	244.024
1824.19	247.079
1825.72	239.332
1827.25	241.244
1828.78	249.574
1830.31	243.294
1831.83	244.368
1833.36	246.96
1834.89	239.765
1836.42	235.814
1837.95	234.094
1839.48	230.222
1841.01	236.931
1842.54	238.706
1844.06	238.817
1845.59	246.615
1847.12	235.543
1848.65	236.452
1850.18	243.309
1851.71	240.664
1853.24	231.548
1854.77	234.575
1856.29	230.711
1857.82	234.413
1859.35	236.528
1860.88	246.08
1862.41	231.006
1863.94	222.739
1865.47	233.534
1867	231.141
1868.53	236.321
1870.05	238.751
1871.58	237.974
1873.11	238.798
1874.64	235.277
1876.17	227.79
1877.7	225.717
1879.23	239.646
1880.76	234.839
1882.28	236.523
1883.81	240.002
1885.34	230.903
1886.87	236.946
1888.4	230.364
1889.93	229.919
1891.46	231.334
1892.99	226.277
1894.51	227.89
1896.04	229.153
1897.57	233.172
1899.1	237.54
1900.63	236.178
1902.16	230.663
1903.69	238.704
1905.22	245.482
1906.74	225.793
1908.27	222.211
1909.8	229.711
1911.33	237.143
1912.86	229.558
1914.39	216.642
1915.92	231.645
1917.45	229.803
1918.97	222.351
1920.5	221.189
1922.03	230.949
1923.56	221.846
1925.09	237.226
1926.62	223.552
1928.15	224.2
1929.68	227.947
1931.21	233.412
1932.73	214.19
1934.26	221.743
1935.79	221.952
1937.32	231.812
1938.85	234.315
1940.38	225.145
1941.91	225.738
1943.44	224.713
1944.96	222.912
1946.49	234
1948.02	227.859
1949.55	232.936
1951.08	219.745
1952.61	230.865
1954.14	215.067
1955.67	230.147
1957.19	223.472
1958.72	216.376
1960.25	225.775
1961.78	230.219
1963.31	228.154
1964.84	235.373
1966.37	235.231
1967.9	224.252
1969.42	233.239
1970.95	237.118
1972.48	243.282
1974.01	225.289
1975.54	226.175
1977.07	226.797
1978.6	219.752
1980.13	220.795
1981.65	223.36
1983.18	221.795
1984.71	217.511
1986.24	225.22
1987.77	220.79
1989.3	221.041
1990.83	235.513
1992.36	224.858
1993.88	229.196
1995.41	234.615
1996.94	227.773
1998.47	226.377
2000	225.635