File: Example Data/Raman/CNT - TIM/Raytheon/Al foil/2011/02-10-11/Batch 25 - top.txt
300	87.8465
301.529	94.5415
303.058	105.824
304.586	112.795
306.115	104.794
307.644	113.921
309.173	101.648
310.701	92.2806
312.23	89.634
313.759	102.952
315.288	95.2698
316.817	96.2517
318.345	82.7375
319.874	84.8774
321.403	81.765
322.932	87.2517
324.46	80.5881
325.989	89.7008
327.518	95.9599
329.047	83.4468
330.576	95.2648
332.104	93.2044
333.633	92.6206
335.162	87.6708
336.691	88.9898
338.219	98.6623
339.748	83.6074
341.277	88.1129
342.806	81.1125
344.335	86.7856
345.863	79.2327
347.392	76.2176
348.921	75.3313
350.45	81.0956
351.978	86.6782
353.507	74.1707
355.036	73.3601
356.565	89.1305
358.094	79.9942
359.622	76.2785
361.151	67.1397
362.68	73.0803
364.209	72.8832
365.737	71.2647
367.266	68.7986
368.795	65.3862
370.324	54.147
371.853	75.5753
373.381	66.3095
374.91	63.0778
376.439	73.8389
377.968	56.0753
379.496	68.9725
381.025	62.1056
382.554	78.9963
384.083	61.149
385.612	57.4636
387.14	55.1536
388.669	74.7747
390.198	58.7175
391.727	70.7873
393.255	61.1165
394.784	46.6484
396.313	56.0351
397.842	54.883
399.371	54.9536
400.899	62.7062
402.428	62.8455
403.957	62.362
405.486	63.5008
407.014	58.1634
408.543	65.7427
410.072	55.9786
411.601	69.1129
413.129	68.386
414.658	46.8092
416.187	52.2578
417.716	57.2588
419.245	53.699
420.773	47.2601
422.302	51.4308
423.831	55.0999
425.36	53.5342
426.888	50.9605
428.417	50.0901
429.946	56.2835
431.475	57.8095
433.004	56.036
434.532	55.3268
436.061	45.6539
437.59	45.9758
439.119	52.8583
440.647	49.2796
442.176	48.2679
443.705	44.4436
445.234	44.6172
446.763	36.5709
448.291	35.986
449.82	42.8563
451.349	46.7368
452.878	36.3033
454.406	42.3601
455.935	31.2466
457.464	42.5584
458.993	33.1316
460.522	32.162
462.05	42.1324
463.579	27.8625
465.108	47.3519
466.637	26.2477
468.165	29.8113
469.694	32.6894
471.223	32.509
472.752	30.9319
474.281	18.4825
475.809	20.1984
477.338	28.0184
478.867	16.0809
480.396	24.6668
481.924	15.6667
483.453	22.0687
484.982	14.476
486.511	15.1307
488.04	33.9731
489.568	14.1326
491.097	8.49766
492.626	12.9394
494.155	9.00567
495.683	15.0055
497.212	14.7758
498.741	8.192
500.27	12.1632
501.799	16.0746
503.327	2.09567
504.856	7.80061
506.385	-1.22618
507.914	5.10293
509.442	-7.2356
510.971	0.899038
512.5	-11.3508
514.029	2.02529
515.558	4.60761
517.086	-4.21037
518.615	7.48924
520.144	-3.26368
521.673	-10.581
523.201	1.53534
524.73	-1.63682
526.259	-4.85133
527.788	-3.85136
529.317	-1.20557
530.845	-3.079
532.374	1.09565
533.903	6.77681
535.432	-0.907243
536.96	0.375916
538.489	-7.03957
540.018	-7.57671
541.547	-2.13467
543.076	-8.47634
544.604	3.44765
546.133	-10.1185
547.662	2.48083
549.191	2.53237
550.719	-4.08781
552.248	-2.5471
553.777	0.898742
555.306	-7.35293
556.835	2.85145
558.363	-6.01275
559.892	-4.54817
561.421	7.72607
562.95	0.734923
564.478	-6.15504
566.007	-9.67415
567.536	7.73436
569.065	-9.64701
570.594	-8.84925
572.122	-1.26918
573.651	-2.29432
575.18	-8.79993
576.709	-3.11831
578.237	5.58677
579.766	-11.7488
581.295	4.46698
582.824	6.07411
584.353	-1.25266
585.881	-2.21617
587.41	-4.0496
588.939	6.46924
590.468	-0.0928352
591.996	2.22898
593.525	-9.13224
595.054	-2.54046
596.583	3.18825
598.112	0.0385724
599.64	-2.27436
601.169	-0.022834
602.698	-5.1042
604.227	0.492893
605.755	11.2941
607.284	1.55997
608.813	3.42045
610.342	1.14816
611.87	3.55602
613.399	-9.35803
614.928	-5.56726
616.457	2.08475
617.986	5.24754
619.514	7.34554
621.043	2.6503
622.572	-7.52386
624.101	14.5025
625.63	3.37391
627.158	-1.03982
628.687	9.36976
630.216	4.86051
631.745	6.86032
633.273	3.62105
634.802	11.392
636.331	9.95014
637.86	0.640298
639.388	6.69589
640.917	14.3591
642.446	-9.98842
643.975	4.57694
645.504	7.32372
647.032	4.33104
648.561	11.5304
650.09	12.7078
651.619	17.2052
653.147	13.4025
654.676	11.6819
656.205	15.3622
657.734	6.19283
659.263	13.3278
660.791	14.5023
662.32	16.2775
663.849	10.4871
665.378	11.1505
666.906	10.6147
668.435	12.1752
669.964	19.3836
671.493	9.22379
673.022	4.70271
674.55	12.0612
676.079	15.1924
677.608	4.72802
679.137	11.3618
680.665	-0.416238
682.194	8.27131
683.723	7.7858
685.252	13.3232
686.781	12.7579
688.309	7.84371
689.838	20.6736
691.367	8.48169
692.896	14.5257
694.424	5.40821
695.953	12.0027
697.482	20.0652
699.011	16.2594
700.54	10.7573
702.068	18.612
703.597	11.3792
705.126	13.2137
706.655	10.3661
708.183	16.3605
709.712	15.917
711.241	17.6095
712.77	15.2059
714.299	2.30111
715.827	9.07082
717.356	16.5851
718.885	21.8715
720.414	17.4422
721.942	15.8149
723.471	17.0885
725	22.4619
726.529	31.1079
728.058	27.1351
729.586	15.2083
731.115	15.6999
732.644	28.9478
734.173	29.6358
735.701	25.6692
737.23	23.3277
738.759	17.4167
740.288	31.1018
741.817	27.6012
743.345	31.2589
744.874	39.9439
746.403	38.642
747.932	31.7333
749.46	31.1086
750.989	30.7892
752.518	26.9953
754.047	35.845
755.576	35.5392
757.104	37.773
758.633	41.1229
760.162	43.9537
761.691	26.1661
763.219	43.4385
764.748	36.3516
766.277	39.3697
767.806	44.8114
769.335	38.3602
770.863	41.8669
772.392	37.3132
773.921	36.6068
775.45	39.7532
776.978	36.1985
778.507	41.4034
780.036	36.3067
781.565	47.9005
783.094	35.7178
784.622	54.1682
786.151	42.5538
787.68	40.9612
789.209	47.2951
790.737	45.4949
792.266	46.7922
793.795	54.3332
795.324	37.193
796.853	40.4585
798.381	52.0166
799.91	50.6093
801.439	60.4268
802.968	57.2099
804.496	64.4482
806.025	51.9768
807.554	50.8251
809.083	54.0285
810.612	53.4446
812.14	57.9114
813.669	53.769
815.198	58.2522
816.727	51.1736
818.255	53.9286
819.784	64.7759
821.313	51.5767
822.842	58.5559
824.37	48.0413
825.899	69.8864
827.428	60.6209
828.957	60.9044
830.486	59.7682
832.014	62.7974
833.543	52.8192
835.072	65.4677
836.601	62.4224
838.13	65.8911
839.658	54.2402
841.187	68.3221
842.716	60.7205
844.245	70.5362
845.773	68.2448
847.302	66.496
848.831	64.7272
850.36	68.3131
851.888	87.3398
853.417	76.0706
854.946	69.8612
856.475	64.0807
858.004	65.2153
859.532	61.3634
861.061	48.5333
862.59	47.9187
864.119	41.1344
865.647	42.6919
867.176	35.0361
868.705	45.9192
870.234	60.6526
871.763	35.5424
873.291	51.8269
874.82	31.1407
876.349	32.7103
877.878	27.0889
879.406	23.8254
880.935	34.3811
882.464	31.583
883.993	34.0315
885.522	20.1568
887.05	23.3978
888.579	11.5336
890.108	14.8686
891.637	14.6116
893.165	14.7355
894.694	12.7247
896.223	21.3953
897.752	10.3112
899.281	21.5355
900.809	10.0487
902.338	18.6488
903.867	8.75746
905.396	0.822186
906.924	13.1374
908.453	-0.206017
909.982	16.8046
911.511	-3.45563
913.04	19.4947
914.568	10.8598
916.097	2.93967
917.626	11.4503
919.155	4.37747
920.683	6.93457
922.212	-1.51471
923.741	-3.54282
925.27	8.83028
926.799	3.38468
928.327	-5.59733
929.856	1.5922
931.385	-0.387486
932.914	-7.39846
934.442	12.0357
935.971	-5.33569
937.5	-0.657409
939.029	4.3831
940.558	-0.554753
942.086	4.54117
943.615	-0.686457
945.144	7.40193
946.673	3.41911
948.201	-4.41768
949.73	-4.79686
951.259	0.0768395
952.788	-1.32769
954.317	2.21198
955.845	2.42411
957.374	5.76734
958.903	-11.8051
960.432	3.88602
961.96	2.55249
963.489	6.7917
965.018	7.38839
966.547	-12.5527
968.076	3.99413
969.604	1.37638
971.133	1.60101
972.662	-5.33139
974.191	7.77267
975.719	0.137215
977.248	-4.05624
978.777	-9.4547
980.306	-13.5715
981.835	1.77825
983.363	1.01261
984.892	-13.3257
986.421	-5.09966
987.95	-1.96008
989.478	-0.66093
991.007	-10.7464
992.536	-6.9646
994.065	-5.04213
995.594	-4.04544
997.122	3.26779
998.651	-16.9179
1000.18	-1.06936
1001.71	-19.8391
1003.24	-12.815
1004.77	-8.00822
1006.29	-13.544
1007.82	7.2302
1009.35	-21.2215
1010.88	-3.6272
1012.41	-18.268
1013.94	-8.9564
1015.47	-12.7062
1017	-9.71367
1018.53	-22.1414
1020.05	-11.7007
1021.58	-15.8557
1023.11	-0.216804
1024.64	-3.44686
1026.17	-6.28368
1027.7	2.49879
1029.23	2.42398
1030.76	-18.0382
1032.28	9.07934
1033.81	-14.9398
1035.34	-3.76302
1036.87	-7.47747
1038.4	-2.02993
1039.93	-0.606011
1041.46	-9.65486
1042.99	-9.69823
1044.51	-10.4205
1046.04	0.89203
1047.57	6.01761
1049.1	2.57322
1050.63	-6.17305
1052.16	-7.37803
1053.69	9.15667
1055.22	-11.2795
1056.74	-13.0192
1058.27	-11.8605
1059.8	-8.97515
1061.33	-2.86662
1062.86	-5.11872
1064.39	-8.19235
1065.92	-7.76758
1067.45	-17.9835
1068.97	-10.0804
1070.5	-11.07
1072.03	-9.19608
1073.56	-5.32211
1075.09	-13.2954
1076.62	-3.58441
1078.15	-13.1955
1079.68	-11.1384
1081.21	-12.6629
1082.73	-2.0015
1084.26	-14.991
1085.79	-12.8095
1087.32	-9.08369
1088.85	-0.38472
1090.38	-1.38956
1091.91	-5.80603
1093.44	-1.0899
1094.96	-14.1968
1096.49	-5.96471
1098.02	7.75329
1099.55	-2.60495
1101.08	-1.26899
1102.61	4.64966
1104.14	12.0993
1105.67	-0.769815
1107.19	5.90264
1108.72	7.33721
1110.25	2.18683
1111.78	2.95755
1113.31	0.571206
1114.84	3.12779
1116.37	4.13809
1117.9	1.58633
1119.42	-2.2561
1120.95	-2.31408
1122.48	10.9421
1124.01	4.86793
1125.54	-0.895823
1127.07	-4.82123
1128.6	-0.919549
1130.13	-5.1791
1131.65	17.5
1133.18	12.4722
1134.71	10.516
1136.24	6.71392
1137.77	11.3769
1139.3	9.16151
1140.83	15.4573
1142.36	8.00432
1143.88	17.6611
1145.41	18.7719
1146.94	38.1484
1148.47	23.3996
1150	18.258
1151.53	24.047
1153.06	24.5367
1154.59	40.3878
1156.12	41.8752
1157.64	19.7105
1159.17	21.7636
1160.7	34.277
1162.23	30.4787
1163.76	34.2648
1165.29	10.5371
1166.82	26.3071
1168.35	26.8392
1169.87	31.1027
1171.4	15.0854
1172.93	21.9783
1174.46	27.3341
1175.99	28.3052
1177.52	30.7666
1179.05	27.4894
1180.58	40.3689
1182.1	28.7517
1183.63	23.3113
1185.16	28.0438
1186.69	33.7015
1188.22	29.1308
1189.75	44.1685
1191.28	27.9922
1192.81	42.6512
1194.33	49.3515
1195.86	28.9771
1197.39	50.7349
1198.92	41.3643
1200.45	52.686
1201.98	51.0273
1203.51	65.5441
1205.04	68.7881
1206.56	62.8805
1208.09	66.6708
1209.62	61.0728
1211.15	58.5755
1212.68	61.1668
1214.21	89.346
1215.74	76.8474
1217.27	63.1902
1218.79	77.0942
1220.32	64.1726
1221.85	88.4494
1223.38	81.7488
1224.91	93.6178
1226.44	89.1909
1227.97	99.3891
1229.5	100.809
1231.03	97.9223
1232.55	121.693
1234.08	117.256
1235.61	127.076
1237.14	121.089
1238.67	143.93
1240.2	131.383
1241.73	136.712
1243.26	143.442
1244.78	153
1246.31	167.839
1247.84	176.974
1249.37	175.563
1250.9	191.411
1252.43	203.752
1253.96	206.192
1255.49	201.425
1257.01	214.859
1258.54	225.066
1260.07	225.5
1261.6	235.946
1263.13	252.895
1264.66	264.007
1266.19	270.782
1267.72	281.856
1269.24	296.196
1270.77	302.932
1272.3	329.945
1273.83	344.644
1275.36	350.302
1276.89	383.566
1278.42	380.559
1279.95	390.435
1281.47	415.48
1283	411.002
1284.53	453.432
1286.06	461.641
1287.59	469.467
1289.12	489.297
1290.65	525.625
1292.18	529.315
1293.71	530.097
1295.23	580.331
1296.76	610.041
1298.29	625.885
1299.82	643.948
1301.35	682.33
1302.88	699.246
1304.41	724.702
1305.94	776.928
1307.46	801.795
1308.99	816.723
1310.52	881.212
1312.05	887.628
1313.58	913.338
1315.11	945.322
1316.64	1033.01
1318.17	1028.01
1319.69	1068.68
1321.22	1095.57
1322.75	1116.75
1324.28	1141.75
1325.81	1184.11
1327.34	1190.99
1328.87	1227.03
1330.4	1253.82
1331.92	1289.9
1333.45	1276.72
1334.98	1282.98
1336.51	1307.22
1338.04	1322.37
1339.57	1360.23
1341.1	1344.66
1342.63	1338.78
1344.15	1314.8
1345.68	1316.45
1347.21	1260.8
1348.74	1282
1350.27	1238.31
1351.8	1211.95
1353.33	1207.91
1354.86	1174.92
1356.38	1160.99
1357.91	1131.13
1359.44	1050.86
1360.97	1036.77
1362.5	1014.73
1364.03	988.301
1365.56	936.95
1367.09	899.144
1368.62	906.047
1370.14	858.824
1371.67	790.75
1373.2	755.125
1374.73	794.934
1376.26	744.574
1377.79	701.941
1379.32	666.634
1380.85	620.984
1382.37	629.495
1383.9	595.481
1385.43	566.594
1386.96	535.039
1388.49	507.808
1390.02	498.743
1391.55	465.274
1393.08	451.496
1394.6	446.326
1396.13	423.064
1397.66	415.805
1399.19	351.198
1400.72	353.483
1402.25	347.815
1403.78	302.824
1405.31	292.283
1406.83	292.987
1408.36	268.872
1409.89	236.229
1411.42	242.724
1412.95	235.062
1414.48	198.282
1416.01	208.771
1417.54	185.9
1419.06	172.005
1420.59	164.073
1422.12	138.374
1423.65	165.594
1425.18	152.629
1426.71	117.655
1428.24	123.191
1429.77	131.999
1431.29	118.063
1432.82	82.9675
1434.35	85.9675
1435.88	88.6165
1437.41	105.408
1438.94	70.8426
1440.47	84.589
1442	68.6366
1443.53	62.5111
1445.05	65.898
1446.58	47.436
1448.11	42.0103
1449.64	44.7372
1451.17	16.7117
1452.7	44.4507
1454.23	17.7655
1455.76	45.9634
1457.28	39.1452
1458.81	12.135
1460.34	28.9851
1461.87	4.63391
1463.4	10.2438
1464.93	68.4821
1466.46	12.3393
1467.99	17.4453
1469.51	19.0751
1471.04	-17.6019
1472.57	-3.43859
1474.1	-3.22164
1475.63	13.505
1477.16	3.07259
1478.69	-12.4254
1480.22	19.4967
1481.74	29.7642
1483.27	21.4588
1484.8	10.369
1486.33	17.8019
1487.86	40.1078
1489.39	44.0303
1490.92	36.5542
1492.45	54.4334
1493.97	80.2682
1495.5	75.1171
1497.03	77.788
1498.56	95.8685
1500.09	92.2572
1501.62	91.3915
1503.15	105.887
1504.68	123.056
1506.21	98.7717
1507.73	121.293
1509.26	140.79
1510.79	161.36
1512.32	162.641
1513.85	156.128
1515.38	177.661
1516.91	177.856
1518.44	214.731
1519.96	213.632
1521.49	216.854
1523.02	229.831
1524.55	254.23
1526.08	258.569
1527.61	290.454
1529.14	309.735
1530.67	309.903
1532.19	327.526
1533.72	359.957
1535.25	385.62
1536.78	379.76
1538.31	407.86
1539.84	462.041
1541.37	458.837
1542.9	489.107
1544.42	524.371
1545.95	555.384
1547.48	600.947
1549.01	602.51
1550.54	638.964
1552.07	713.556
1553.6	727.332
1555.13	751.33
1556.65	784.969
1558.18	799.979
1559.71	837.029
1561.24	890.529
1562.77	935.062
1564.3	970.222
1565.83	985.212
1567.36	1044.93
1568.88	1099.66
1570.41	1104.55
1571.94	1143.16
1573.47	1203.64
1575	1198.3
1576.53	1270.85
1578.06	1281.56
1579.59	1305.28
1581.12	1330.03
1582.64	1333.94
1584.17	1376.63
1585.7	1396.3
1587.23	1391.73
1588.76	1383.4
1590.29	1392.78
1591.82	1399.51
1593.35	1414.76
1594.87	1385.19
1596.4	1370.33
1597.93	1367.66
1599.46	1390.3
1600.99	1357.74
1602.52	1327.5
1604.05	1330.32
1605.58	1263.01
1607.1	1257.88
1608.63	1195.82
1610.16	1178.25
1611.69	1147.1
1613.22	1122.69
1614.75	1059.58
1616.28	1030.09
1617.81	983.485
1619.33	946.834
1620.86	882.041
1622.39	844.591
1623.92	804.732
1625.45	755.522
1626.98	708.113
1628.51	669.69
1630.04	626.819
1631.56	582.364
1633.09	566.215
1634.62	532.354
1636.15	484.719
1637.68	437.35
1639.21	422.555
1640.74	379.341
1642.27	365.751
1643.79	321.34
1645.32	301.21
1646.85	268.152
1648.38	262.354
1649.91	230.914
1651.44	222.278
1652.97	196.95
1654.5	180.061
1656.03	155.027
1657.55	139.351
1659.08	131.946
1660.61	118.201
1662.14	107.651
1663.67	87.8511
1665.2	78.6123
1666.73	63.8293
1668.26	57.1924
1669.78	47.4264
1671.31	31.1486
1672.84	28.4287
1674.37	29.8637
1675.9	23.6582
1677.43	16.3088
1678.96	17.6033
1680.49	10.3857
1682.01	8.94874
1683.54	-10.6339
1685.07	-0.158007
1686.6	-5.59867
1688.13	-3.28049
1689.66	6.56568
1691.19	-3.93603
1692.72	0.127698
1694.24	-5.28355
1695.77	-5.6633
1697.3	-4.18058
1698.83	-0.762295
1700.36	0.60571
1701.89	0.493308
1703.42	7.87944
1704.95	4.54905
1706.47	-4.03201
1708	9.37806
1709.53	8.3699
1711.06	3.81366
1712.59	3.98898
1714.12	2.16533
1715.65	4.881
1717.18	-0.633778
1718.71	-2.75573
1720.23	-1.36534
1721.76	-11.7887
1723.29	0.283642
1724.82	-0.738898
1726.35	-2.54016
1727.88	-0.744615
1729.41	1.62211
1730.94	3.51429
1732.46	-5.73901
1733.99	0.460479
1735.52	-5.17458
1737.05	0.743784
1738.58	4.41742
1740.11	5.31908
1741.64	-6.79249
1743.17	-5.91318
1744.69	-4.80914
1746.22	1.39529
1747.75	-0.444948
1749.28	0.830931
1750.81	-1.77868
1752.34	-7.67063
1753.87	-10.9676
1755.4	-11.076
1756.92	-5.46206
1758.45	-2.64708
1759.98	0.197076
1761.51	-6.5212
1763.04	-4.94334
1764.57	-2.15887
1766.1	-13.4241
1767.63	-0.0419774
1769.15	-6.97294
1770.68	-6.92131
1772.21	-2.15013
1773.74	-6.65115
1775.27	-3.97043
1776.8	-1.93975
1778.33	-9.21033
1779.86	-10.555
1781.38	-10.1051
1782.91	-2.36521
1784.44	-2.57429
1785.97	-2.05153
1787.5	-2.71255
1789.03	-8.21605
1790.56	-2.8203
1792.09	-1.92413
1793.62	-0.523348
1795.14	-11.9459
1796.67	-9.82688
1798.2	-5.45592
1799.73	-3.71852
1801.26	-1.90044
1802.79	-7.78035
1804.32	-7.62135
1805.85	2.74221
1807.37	-6.3147
1808.9	-4.43816
1810.43	-14.5808
1811.96	9.07146
1813.49	0.154562
1815.02	-6.85464
1816.55	-13.869
1818.08	-2.05636
1819.6	5.46775
1821.13	3.65011
1822.66	-9.62869
1824.19	2.8796
1825.72	-5.76753
1827.25	3.87155
1828.78	-7.4994
1830.31	-5.28037
1831.83	0.910232
1833.36	5.52146
1834.89	7.6313
1836.42	3.49561
1837.95	0.986311
1839.48	9.509
1841.01	4.57857
1842.54	3.89339
1844.06	0.761408
1845.59	0.647671
1847.12	13.7951
1848.65	2.33507
1850.18	11.9348
1851.71	1.15871
1853.24	2.60926
1854.77	4.81875
1856.29	-0.539808
1857.82	0.941074
1859.35	4.90236
1860.88	6.51508
1862.41	14.2186
1863.94	10.9715
1865.47	8.03528
1867	9.91014
1868.53	-0.359747
1870.05	9.94989
1871.58	2.67688
1873.11	3.29422
1874.64	-0.391917
1876.17	20.1966
1877.7	-7.01643
1879.23	3.31683
1880.76	6.03719
1882.28	9.06229
1883.81	1.45505
1885.34	-0.367986
1886.87	4.13672
1888.4	7.40138
1889.93	4.13242
1891.46	5.05273
1892.99	3.78259
1894.51	2.10888
1896.04	3.85145
1897.57	4.47208
1899.1	10.7192
1900.63	0.361181
1902.16	10.5518
1903.69	7.18201
1905.22	3.01494
1906.74	6.76586
1908.27	3.25145
1909.8	7.67179
1911.33	5.20208
1912.86	11.9485
1914.39	10.7148
1915.92	0.360953
1917.45	9.17249
1918.97	0.594522
1920.5	9.96553
1922.03	3.90941
1923.56	-0.100765
1925.09	16.8335
1926.62	0.574078
1928.15	3.48884
1929.68	4.61172
1931.21	6.418
1932.73	6.13476
1934.26	1.53568
1935.79	2.21727
1937.32	9.9514
1938.85	6.61563
1940.38	10.0609
1941.91	3.84458
1943.44	6.78983
1944.96	7.35545
1946.49	6.19556
1948.02	-1.0437
1949.55	5.98139
1951.08	-2.15191
1952.61	13.152
1954.14	12.6731
1955.67	10.6555
1957.19	6.65674
1958.72	5.56678
1960.25	6.30496
1961.78	6.319
1963.31	8.98229
1964.84	6.24311
1966.37	-3.4024
1967.9	7.03024
1969.42	13.7478
1970.95	4.40897
1972.48	10.6288
1974.01	13.0196
1975.54	15.3992
1977.07	17.05
1978.6	20.4976
1980.13	12.7169
1981.65	12.5851
1983.18	10.2341
1984.71	11.9653
1986.24	14.028
1987.77	11.4938
1989.3	13.0671
1990.83	9.08639
1992.36	15.5031
1993.88	5.82242
1995.41	21.3558
1996.94	15.9736
1998.47	14.2966
2000	15.0927