File: Example Data/Raman/CNT - TIM/Raytheon/Al foil/2011/02-10-11/Batch 25 - bottom.txt
300	274.402
301.529	283.832
303.058	299.26
304.586	302.191
306.115	295.412
307.644	302.494
309.173	301.36
310.701	296.922
312.23	282.786
313.759	297.443
315.288	287.2
316.817	294.797
318.345	295.822
319.874	284.001
321.403	270.958
322.932	296.902
324.46	288.09
325.989	296.208
327.518	288.199
329.047	286.923
330.576	287.23
332.104	291.192
333.633	285.647
335.162	297.946
336.691	286.5
338.219	273.768
339.748	280.807
341.277	279.835
342.806	277.067
344.335	269.066
345.863	264.664
347.392	283.894
348.921	294.177
350.45	280.136
351.978	278.399
353.507	269.427
355.036	268.647
356.565	273.685
358.094	278.072
359.622	279.055
361.151	270.714
362.68	262.504
364.209	271.909
365.737	276.034
367.266	268.794
368.795	273.245
370.324	271.211
371.853	263.823
373.381	262.069
374.91	267.27
376.439	266.845
377.968	260.834
379.496	256.984
381.025	263.728
382.554	276.451
384.083	250.332
385.612	254.989
387.14	262.802
388.669	256.903
390.198	249.413
391.727	259.954
393.255	257.792
394.784	258.195
396.313	243.297
397.842	252.404
399.371	258.316
400.899	250.674
402.428	246.586
403.957	256.982
405.486	250.623
407.014	252.67
408.543	258.784
410.072	243.432
411.601	243.334
413.129	245.113
414.658	248.556
416.187	252.25
417.716	239.159
419.245	248.44
420.773	249.856
422.302	239.071
423.831	251.493
425.36	251.5
426.888	243.408
428.417	245.854
429.946	250.675
431.475	254.472
433.004	243.53
434.532	241.475
436.061	234.689
437.59	234.061
439.119	238.544
440.647	241.09
442.176	246.508
443.705	239.456
445.234	241.836
446.763	239.834
448.291	235.744
449.82	242.72
451.349	232.895
452.878	229.958
454.406	241.942
455.935	239.551
457.464	238.706
458.993	236.618
460.522	234.027
462.05	236.431
463.579	239.288
465.108	231.854
466.637	236.225
468.165	230.386
469.694	234.165
471.223	224.795
472.752	225.813
474.281	222.926
475.809	223.596
477.338	230.324
478.867	226.25
480.396	223.417
481.924	227.741
483.453	211.7
484.982	223.77
486.511	214.722
488.04	228.056
489.568	212.737
491.097	223.195
492.626	210.57
494.155	219.408
495.683	205.737
497.212	208.902
498.741	214.15
500.27	208.563
501.799	212.995
503.327	214.798
504.856	213.174
506.385	207.253
507.914	208.769
509.442	204.977
510.971	209.906
512.5	209.967
514.029	205.842
515.558	202.987
517.086	207.51
518.615	201.316
520.144	200.878
521.673	200.844
523.201	206.685
524.73	210.034
526.259	219.307
527.788	200.337
529.317	218.031
530.845	200.555
532.374	208.354
533.903	211.526
535.432	205.053
536.96	206.864
538.489	208.864
540.018	215.766
541.547	209.874
543.076	216.237
544.604	197.293
546.133	204.132
547.662	210.179
549.191	213.405
550.719	206.597
552.248	213.203
553.777	205.184
555.306	214.775
556.835	209.361
558.363	211.117
559.892	214.552
561.421	214.947
562.95	223.688
564.478	208.821
566.007	216.934
567.536	213.896
569.065	208.488
570.594	216.271
572.122	208.547
573.651	213.561
575.18	223.497
576.709	220.269
578.237	214.11
579.766	209.501
581.295	221.278
582.824	215.088
584.353	205.202
585.881	216.056
587.41	212.158
588.939	222.692
590.468	213.341
591.996	214.806
593.525	215.735
595.054	222.533
596.583	224.1
598.112	215.559
599.64	219.248
601.169	221.894
602.698	215.308
604.227	220.448
605.755	217.657
607.284	221.887
608.813	220.005
610.342	215.447
611.87	213.138
613.399	211.365
614.928	215.486
616.457	224.049
617.986	208.008
619.514	223.591
621.043	220.176
622.572	220.024
624.101	218.147
625.63	230.468
627.158	221.471
628.687	222.108
630.216	221.026
631.745	222.418
633.273	225.449
634.802	213.286
636.331	226.576
637.86	234.001
639.388	226.705
640.917	227.836
642.446	225.715
643.975	230.055
645.504	225.194
647.032	235.949
648.561	229.939
650.09	226.342
651.619	225.706
653.147	229.443
654.676	235.467
656.205	227.364
657.734	229.762
659.263	233.162
660.791	230.631
662.32	218.335
663.849	238.565
665.378	242.987
666.906	231.559
668.435	231.54
669.964	231.313
671.493	233.497
673.022	227.219
674.55	231.561
676.079	227.442
677.608	232.427
679.137	237.179
680.665	233.893
682.194	230.108
683.723	224.346
685.252	232.806
686.781	229.652
688.309	229.362
689.838	237.251
691.367	228.318
692.896	231.389
694.424	224.326
695.953	245.398
697.482	238.061
699.011	236.25
700.54	233.177
702.068	241.191
703.597	240.981
705.126	236.718
706.655	236.674
708.183	233.825
709.712	248.991
711.241	235.967
712.77	249.514
714.299	250.404
715.827	245.523
717.356	250.662
718.885	243.859
720.414	256.981
721.942	253.212
723.471	247.15
725	255.667
726.529	247.117
728.058	241.769
729.586	244.295
731.115	251.521
732.644	252.118
734.173	260.964
735.701	263.052
737.23	247.807
738.759	255.286
740.288	249.483
741.817	258.876
743.345	265.203
744.874	267.299
746.403	256.337
747.932	265.622
749.46	252.54
750.989	263.762
752.518	260.91
754.047	269.711
755.576	269.178
757.104	256.922
758.633	264.198
760.162	268.933
761.691	263.516
763.219	270.408
764.748	263.816
766.277	272.574
767.806	271.571
769.335	273.723
770.863	257.976
772.392	264.645
773.921	265.431
775.45	275.426
776.978	272.862
778.507	265.106
780.036	287.269
781.565	266.332
783.094	288.457
784.622	278.232
786.151	289.493
787.68	275.169
789.209	290.809
790.737	275.572
792.266	271.728
793.795	270.273
795.324	281.249
796.853	285.77
798.381	277.451
799.91	280.275
801.439	308.34
802.968	273.592
804.496	281.995
806.025	284.673
807.554	294.383
809.083	287.975
810.612	283.334
812.14	289.674
813.669	290.896
815.198	291.42
816.727	293.186
818.255	298.282
819.784	282.89
821.313	293.154
822.842	293.864
824.37	302.857
825.899	301.072
827.428	295.397
828.957	290.356
830.486	294.516
832.014	315.803
833.543	294.007
835.072	302.729
836.601	298.974
838.13	305.265
839.658	302.563
841.187	301.529
842.716	305.372
844.245	310.37
845.773	298.845
847.302	301.684
848.831	308.32
850.36	311.609
851.888	314.656
853.417	306.484
854.946	315.903
856.475	287.724
858.004	300.125
859.532	296.74
861.061	302.552
862.59	286.265
864.119	294.202
865.647	282.057
867.176	287.459
868.705	278.669
870.234	283.693
871.763	281.775
873.291	281.095
874.82	283.142
876.349	280.584
877.878	278.009
879.406	287.389
880.935	284.123
882.464	280.616
883.993	260.92
885.522	276.769
887.05	272.656
888.579	267.522
890.108	269.587
891.637	264.704
893.165	270.682
894.694	269.188
896.223	265.652
897.752	257.75
899.281	264.108
900.809	250.792
902.338	258.946
903.867	257.889
905.396	263.39
906.924	268.733
908.453	260.754
909.982	253.507
911.511	247.633
913.04	247.319
914.568	249.663
916.097	251.382
917.626	263.608
919.155	259.754
920.683	254.387
922.212	261.488
923.741	262.171
925.27	254.119
926.799	253.728
928.327	254.06
929.856	256.232
931.385	264.249
932.914	248.859
934.442	256.175
935.971	262.115
937.5	249.056
939.029	260.645
940.558	248.55
942.086	241.286
943.615	261.485
945.144	256.602
946.673	259.031
948.201	252.049
949.73	255.333
951.259	252.006
952.788	253.683
954.317	246.094
955.845	261.173
957.374	248.138
958.903	275.336
960.432	256.301
961.96	263.086
963.489	256.15
965.018	253.666
966.547	254.75
968.076	254.682
969.604	255.22
971.133	268.523
972.662	262.921
974.191	258.467
975.719	263.196
977.248	259.917
978.777	264.307
980.306	266.537
981.835	267.483
983.363	261.486
984.892	262.596
986.421	285.245
987.95	276.852
989.478	264.748
991.007	279.495
992.536	279.967
994.065	279.271
995.594	277.673
997.122	287.379
998.651	290.685
1000.18	271.571
1001.71	286.175
1003.24	289.918
1004.77	288.104
1006.29	296.096
1007.82	292.557
1009.35	296.547
1010.88	299.716
1012.41	302.79
1013.94	298.21
1015.47	308.848
1017	301.179
1018.53	304.419
1020.05	316.253
1021.58	308.141
1023.11	313.699
1024.64	326.269
1026.17	318.7
1027.7	306.51
1029.23	337.835
1030.76	312.139
1032.28	329.641
1033.81	333.178
1035.34	339.929
1036.87	323.104
1038.4	338.544
1039.93	337.539
1041.46	333.333
1042.99	350.114
1044.51	334.007
1046.04	355.275
1047.57	352.254
1049.1	353.999
1050.63	354.559
1052.16	352.103
1053.69	351.665
1055.22	355.468
1056.74	354.585
1058.27	361.838
1059.8	362.582
1061.33	356.354
1062.86	357.513
1064.39	360.121
1065.92	365.917
1067.45	370.816
1068.97	368.813
1070.5	373.239
1072.03	375.171
1073.56	366.392
1075.09	391.127
1076.62	377.741
1078.15	376.024
1079.68	381.668
1081.21	388.365
1082.73	388.196
1084.26	385.509
1085.79	390.311
1087.32	396.855
1088.85	390.41
1090.38	394.933
1091.91	405.08
1093.44	398.072
1094.96	409.182
1096.49	402.368
1098.02	403.926
1099.55	406.13
1101.08	410.839
1102.61	411.877
1104.14	422.198
1105.67	426.675
1107.19	420.384
1108.72	422.255
1110.25	423.177
1111.78	417.994
1113.31	431.342
1114.84	439.878
1116.37	436.155
1117.9	427.077
1119.42	426.013
1120.95	445.42
1122.48	434.225
1124.01	426.819
1125.54	448.8
1127.07	446.612
1128.6	442.883
1130.13	443.066
1131.65	439.917
1133.18	459.748
1134.71	441.918
1136.24	457.604
1137.77	467.259
1139.3	450.547
1140.83	461.029
1142.36	476.815
1143.88	475.793
1145.41	462.632
1146.94	468.704
1148.47	484.544
1150	489.314
1151.53	486.4
1153.06	488.748
1154.59	487.403
1156.12	489.012
1157.64	494.524
1159.17	499.493
1160.7	495.095
1162.23	501.131
1163.76	515.427
1165.29	514.547
1166.82	511.613
1168.35	503.348
1169.87	511.278
1171.4	518.091
1172.93	508.195
1174.46	513.173
1175.99	535.9
1177.52	526.77
1179.05	536.595
1180.58	528.614
1182.1	531.477
1183.63	523.699
1185.16	524.01
1186.69	531.248
1188.22	525.282
1189.75	546.092
1191.28	535.563
1192.81	546.473
1194.33	558.452
1195.86	532.887
1197.39	558.622
1198.92	569.537
1200.45	567.937
1201.98	567.529
1203.51	573.905
1205.04	589.511
1206.56	588.723
1208.09	597.873
1209.62	598.92
1211.15	592.135
1212.68	615.583
1214.21	593.557
1215.74	618.506
1217.27	620.312
1218.79	633.034
1220.32	624.557
1221.85	636.796
1223.38	635.097
1224.91	639.011
1226.44	648.746
1227.97	638.809
1229.5	665.057
1231.03	667.286
1232.55	677.864
1234.08	667.266
1235.61	699.923
1237.14	682.223
1238.67	707.75
1240.2	700.73
1241.73	718.135
1243.26	734.454
1244.78	738.969
1246.31	742.766
1247.84	760.381
1249.37	768.618
1250.9	769.348
1252.43	783.468
1253.96	774.142
1255.49	786.275
1257.01	795.437
1258.54	810.352
1260.07	810.755
1261.6	827.238
1263.13	843.736
1264.66	852.744
1266.19	877.777
1267.72	881.322
1269.24	865.449
1270.77	898.981
1272.3	923.948
1273.83	912.394
1275.36	929.46
1276.89	941.402
1278.42	973.673
1279.95	982.052
1281.47	1015.11
1283	1011.67
1284.53	1028.69
1286.06	1050.57
1287.59	1076.24
1289.12	1092.58
1290.65	1110.27
1292.18	1126.82
1293.71	1144.02
1295.23	1145.51
1296.76	1172.79
1298.29	1214.4
1299.82	1234.72
1301.35	1256.49
1302.88	1282.02
1304.41	1295.51
1305.94	1345.61
1307.46	1341.14
1308.99	1371.03
1310.52	1406.49
1312.05	1438.55
1313.58	1469.64
1315.11	1505.43
1316.64	1504.35
1318.17	1531.63
1319.69	1567.9
1321.22	1616.92
1322.75	1608.31
1324.28	1668.84
1325.81	1649.88
1327.34	1694.36
1328.87	1699.36
1330.4	1734.6
1331.92	1730.89
1333.45	1725.97
1334.98	1748.62
1336.51	1748.83
1338.04	1716.64
1339.57	1734.82
1341.1	1728.72
1342.63	1688.39
1344.15	1715.36
1345.68	1683.09
1347.21	1672.39
1348.74	1640.69
1350.27	1655.61
1351.8	1621.48
1353.33	1591.24
1354.86	1569.53
1356.38	1535.66
1357.91	1553.51
1359.44	1491.54
1360.97	1464.09
1362.5	1450.62
1364.03	1426.65
1365.56	1388.23
1367.09	1384.61
1368.62	1351.84
1370.14	1326.23
1371.67	1294.14
1373.2	1272.63
1374.73	1267.3
1376.26	1244.48
1377.79	1211.85
1379.32	1202.12
1380.85	1190.17
1382.37	1151.08
1383.9	1158.17
1385.43	1140.58
1386.96	1122.82
1388.49	1087.56
1390.02	1103.42
1391.55	1072.99
1393.08	1066.81
1394.6	1034.51
1396.13	1008.46
1397.66	1028.8
1399.19	1008.44
1400.72	1011.81
1402.25	967.967
1403.78	968.726
1405.31	968.051
1406.83	944.191
1408.36	933.619
1409.89	932.811
1411.42	914.503
1412.95	915.307
1414.48	908.115
1416.01	896.299
1417.54	902.955
1419.06	903.123
1420.59	892.206
1422.12	880.479
1423.65	892.182
1425.18	890.432
1426.71	866.394
1428.24	857.428
1429.77	853.176
1431.29	886.111
1432.82	857.068
1434.35	844.081
1435.88	851.296
1437.41	848.155
1438.94	842.775
1440.47	816.811
1442	836.154
1443.53	819.931
1445.05	830.201
1446.58	848.889
1448.11	842.549
1449.64	851.501
1451.17	813.524
1452.7	850.16
1454.23	805.66
1455.76	824.035
1457.28	815.474
1458.81	827.241
1460.34	829.755
1461.87	828.918
1463.4	840.629
1464.93	823.879
1466.46	820.962
1467.99	817.952
1469.51	828.646
1471.04	827.603
1472.57	829.391
1474.1	844.89
1475.63	820.303
1477.16	841.147
1478.69	827.017
1480.22	844.463
1481.74	817.191
1483.27	838.708
1484.8	829.002
1486.33	827.823
1487.86	843.275
1489.39	841.835
1490.92	825.375
1492.45	843.274
1493.97	868.98
1495.5	843.068
1497.03	838.832
1498.56	858.745
1500.09	843.668
1501.62	852.531
1503.15	858.039
1504.68	841.948
1506.21	852.807
1507.73	904.387
1509.26	852.015
1510.79	871.298
1512.32	867.895
1513.85	924.859
1515.38	889.619
1516.91	892.901
1518.44	891.602
1519.96	913.424
1521.49	917.704
1523.02	923.312
1524.55	916.333
1526.08	941.24
1527.61	955.744
1529.14	957.971
1530.67	961.15
1532.19	979.705
1533.72	994.879
1535.25	1006.07
1536.78	1014.32
1538.31	1043.96
1539.84	1050.53
1541.37	1073.08
1542.9	1108.42
1544.42	1122.36
1545.95	1140.95
1547.48	1175.21
1549.01	1195.89
1550.54	1227.15
1552.07	1239.31
1553.6	1287.45
1555.13	1305.46
1556.65	1313.18
1558.18	1332
1559.71	1349.51
1561.24	1376.32
1562.77	1404.96
1564.3	1430.72
1565.83	1445.77
1567.36	1476.22
1568.88	1488.65
1570.41	1517.08
1571.94	1550.55
1573.47	1563.13
1575	1559.2
1576.53	1558.91
1578.06	1611.3
1579.59	1598.46
1581.12	1594.11
1582.64	1605.69
1584.17	1609.33
1585.7	1610.88
1587.23	1613.72
1588.76	1623.09
1590.29	1612.38
1591.82	1581.22
1593.35	1569.9
1594.87	1537.67
1596.4	1541.85
1597.93	1526.2
1599.46	1487.01
1600.99	1479.67
1602.52	1445.4
1604.05	1423.69
1605.58	1395.58
1607.1	1342.59
1608.63	1330.49
1610.16	1290.44
1611.69	1263.06
1613.22	1203.51
1614.75	1158.02
1616.28	1122.9
1617.81	1118.85
1619.33	1052.34
1620.86	1000.59
1622.39	984.711
1623.92	942.546
1625.45	902.348
1626.98	874.152
1628.51	840.246
1630.04	814.094
1631.56	774.702
1633.09	753.232
1634.62	707.669
1636.15	696.947
1637.68	670.497
1639.21	652.364
1640.74	629.862
1642.27	600.234
1643.79	590.258
1645.32	554.569
1646.85	541.427
1648.38	515.315
1649.91	499.312
1651.44	480.67
1652.97	468.2
1654.5	450.692
1656.03	438.223
1657.55	419.08
1659.08	412.888
1660.61	392.59
1662.14	380.001
1663.67	376.016
1665.2	368.395
1666.73	357.924
1668.26	351.883
1669.78	338.963
1671.31	320.217
1672.84	323.555
1674.37	321.197
1675.9	304.596
1677.43	297.214
1678.96	296.286
1680.49	299.546
1682.01	292.604
1683.54	282.565
1685.07	278.177
1686.6	265.79
1688.13	274.156
1689.66	259.514
1691.19	256.929
1692.72	265.003
1694.24	257.369
1695.77	247.765
1697.3	247.823
1698.83	243.259
1700.36	244.927
1701.89	241.566
1703.42	238.678
1704.95	235.559
1706.47	237.981
1708	226.931
1709.53	229.194
1711.06	220.71
1712.59	225.101
1714.12	225.389
1715.65	216.361
1717.18	220.763
1718.71	217.114
1720.23	213.409
1721.76	209.68
1723.29	211.963
1724.82	210.221
1726.35	207.355
1727.88	208.201
1729.41	208.584
1730.94	206.425
1732.46	212.339
1733.99	197.434
1735.52	208.966
1737.05	202.002
1738.58	206.949
1740.11	213.285
1741.64	205.039
1743.17	196.603
1744.69	207.013
1746.22	194.321
1747.75	202.836
1749.28	207.82
1750.81	188.576
1752.34	203.581
1753.87	199.77
1755.4	199.691
1756.92	204.035
1758.45	197.175
1759.98	192.925
1761.51	185.887
1763.04	193.068
1764.57	199.297
1766.1	190.833
1767.63	192.504
1769.15	189.225
1770.68	181.816
1772.21	190.261
1773.74	192.217
1775.27	186.775
1776.8	182.193
1778.33	176.893
1779.86	189.728
1781.38	181.749
1782.91	183.182
1784.44	186.659
1785.97	178.953
1787.5	177.453
1789.03	182.256
1790.56	181.38
1792.09	182.429
1793.62	190.129
1795.14	194.255
1796.67	183.716
1798.2	167.165
1799.73	174.773
1801.26	177.976
1802.79	181.292
1804.32	182.685
1805.85	179.176
1807.37	177.908
1808.9	180.14
1810.43	182.525
1811.96	177.249
1813.49	178.332
1815.02	176.412
1816.55	174.754
1818.08	169.682
1819.6	189.492
1821.13	175.244
1822.66	181.112
1824.19	174.594
1825.72	178.34
1827.25	179.005
1828.78	173.373
1830.31	184.33
1831.83	180.103
1833.36	180.505
1834.89	172.873
1836.42	176.207
1837.95	177.5
1839.48	174.184
1841.01	173.688
1842.54	173.072
1844.06	169.242
1845.59	185.599
1847.12	170.253
1848.65	176.524
1850.18	175.55
1851.71	173.704
1853.24	169.752
1854.77	175.194
1856.29	173.807
1857.82	172.581
1859.35	174.047
1860.88	168.637
1862.41	172.736
1863.94	180.489
1865.47	167.283
1867	172.444
1868.53	177.309
1870.05	170.62
1871.58	170.472
1873.11	170.067
1874.64	164.472
1876.17	175.928
1877.7	172.213
1879.23	170.911
1880.76	167.192
1882.28	162.971
1883.81	171.832
1885.34	168.091
1886.87	166.693
1888.4	167.597
1889.93	179.349
1891.46	167.072
1892.99	167.271
1894.51	171.533
1896.04	166.566
1897.57	172.852
1899.1	171.979
1900.63	168.792
1902.16	161.028
1903.69	171.612
1905.22	173.785
1906.74	166.745
1908.27	171.405
1909.8	167.849
1911.33	172.226
1912.86	160.999
1914.39	163.052
1915.92	167.086
1917.45	162.587
1918.97	163.955
1920.5	164.622
1922.03	168.609
1923.56	165.627
1925.09	179.246
1926.62	168.172
1928.15	163.453
1929.68	166.954
1931.21	163.265
1932.73	164.297
1934.26	165.685
1935.79	171.007
1937.32	161.305
1938.85	169.18
1940.38	166.186
1941.91	167.559
1943.44	169.521
1944.96	160.063
1946.49	163.793
1948.02	170.81
1949.55	176.118
1951.08	168.199
1952.61	157.509
1954.14	169.355
1955.67	165.751
1957.19	160.749
1958.72	166.05
1960.25	161.709
1961.78	165.108
1963.31	168.533
1964.84	176.286
1966.37	165.936
1967.9	170.061
1969.42	161.532
1970.95	165.53
1972.48	161.373
1974.01	167.999
1975.54	162.779
1977.07	168.075
1978.6	160.595
1980.13	166.825
1981.65	166.714
1983.18	164.47
1984.71	158.149
1986.24	161.772
1987.77	164.475
1989.3	178.715
1990.83	163.011
1992.36	162.969
1993.88	166.563
1995.41	168.335
1996.94	166.075
1998.47	163.522
2000	165.093