File: Example Data/Raman/CNT - TIM/Raytheon/Al foil/2011/02-10-11/Batch 26 - top_1.txt
300	102.251
301.529	102.781
303.058	123.797
304.586	123.466
306.115	119.505
307.644	121.854
309.173	107.058
310.701	117.296
312.23	112.946
313.759	115.588
315.288	115.269
316.817	111.099
318.345	102.131
319.874	106.344
321.403	112.23
322.932	111.071
324.46	97.7278
325.989	103.858
327.518	112.07
329.047	101.466
330.576	115.189
332.104	98.848
333.633	88.2539
335.162	99.878
336.691	99.7333
338.219	101.405
339.748	107.385
341.277	98.8105
342.806	78.444
344.335	98.5994
345.863	89.2363
347.392	82.1287
348.921	93.5979
350.45	97.0177
351.978	79.8629
353.507	76.3894
355.036	89.3349
356.565	88.3413
358.094	83.6384
359.622	78.5691
361.151	86.9767
362.68	84.9117
364.209	80.8276
365.737	87.8468
367.266	67.3132
368.795	80.2907
370.324	71.3728
371.853	82.5508
373.381	77.3229
374.91	93.8357
376.439	71.3949
377.968	83.9105
379.496	70.3798
381.025	58.6003
382.554	69.2084
384.083	59.4216
385.612	71.3455
387.14	60.7063
388.669	65.6864
390.198	60.107
391.727	54.8226
393.255	58.5998
394.784	67.3495
396.313	68.8268
397.842	73.9519
399.371	74.7352
400.899	69.5439
402.428	61.2174
403.957	55.4149
405.486	56.2755
407.014	66.8537
408.543	69.2446
410.072	74.1944
411.601	59.9761
413.129	55.0282
414.658	58.9095
416.187	60.7154
417.716	57.2557
419.245	67.6516
420.773	53.1205
422.302	39.1627
423.831	61.8891
425.36	49.8346
426.888	56.6624
428.417	59.8774
429.946	66.1019
431.475	50.4209
433.004	43.7996
434.532	55.8048
436.061	58.3359
437.59	50.1961
439.119	43.3313
440.647	40.1787
442.176	47.2605
443.705	37.3142
445.234	34.2784
446.763	40.5142
448.291	41.0685
449.82	44.6452
451.349	39.6808
452.878	40.4778
454.406	39.5399
455.935	44.2872
457.464	23.7632
458.993	33.5692
460.522	31.0347
462.05	33.047
463.579	25.3998
465.108	26.351
466.637	16.5222
468.165	31.0292
469.694	22.7259
471.223	13.3247
472.752	27.984
474.281	37.3691
475.809	17.8425
477.338	14.8789
478.867	4.69837
480.396	14.5267
481.924	15.0385
483.453	5.55538
484.982	20.555
486.511	2.51021
488.04	-5.36282
489.568	8.31463
491.097	-1.33828
492.626	7.14923
494.155	-1.19918
495.683	4.2648
497.212	-17.8061
498.741	-10.8537
500.27	-1.68953
501.799	0.379787
503.327	-7.99404
504.856	-16.4129
506.385	-9.37102
507.914	-5.18988
509.442	-6.15191
510.971	-9.97654
512.5	-5.14959
514.029	-6.20416
515.558	-10.324
517.086	-9.42349
518.615	-6.92372
520.144	-13.5822
521.673	-2.26326
523.201	-16.6684
524.73	-27.7869
526.259	-26.0127
527.788	-11.8875
529.317	-11.5427
530.845	-20.9059
532.374	-26.8437
533.903	-14.7581
535.432	-12.287
536.96	-28.2216
538.489	-4.14203
540.018	-13.1843
541.547	-13.7062
543.076	-5.40843
544.604	-10.1406
546.133	-10.1473
547.662	-6.80853
549.191	-13.7394
550.719	-14.0355
552.248	-11.1528
553.777	-21.2874
555.306	-12.8553
556.835	-13.3289
558.363	-15.9835
559.892	-18.445
561.421	-11.8662
562.95	-10.8094
564.478	-9.16575
566.007	-12.7666
567.536	-4.93528
569.065	-6.11843
570.594	-10.9132
572.122	-6.7871
573.651	-13.1679
575.18	-17.4622
576.709	-7.37254
578.237	-15.6616
579.766	-12.0061
581.295	-17.6299
582.824	-21.1156
584.353	-6.35818
585.881	-2.39289
587.41	-13.953
588.939	-22.7064
590.468	-4.67809
591.996	-14.4416
593.525	-12.023
595.054	-9.45911
596.583	-10.3307
598.112	-18.1718
599.64	-10.3107
601.169	-10.3933
602.698	-10.6885
604.227	-24.3237
605.755	-10.1915
607.284	-13.6609
608.813	-19.9748
610.342	-9.38669
611.87	-0.650804
613.399	-9.64698
614.928	-9.20638
616.457	-5.76422
617.986	-15.1737
619.514	-11.8343
621.043	-16.9866
622.572	-5.69974
624.101	-15.3727
625.63	9.49496
627.158	-9.68047
628.687	-18.2607
630.216	-3.20027
631.745	-2.94727
633.273	-10.9759
634.802	-4.7572
636.331	-10.4425
637.86	-14.078
639.388	-9.31007
640.917	-2.99795
642.446	-9.33323
643.975	3.67374
645.504	1.99974
647.032	-9.89767
648.561	-15.4826
650.09	-17.7134
651.619	2.16484
653.147	-7.79916
654.676	-2.86067
656.205	-4.01339
657.734	-4.53041
659.263	0.757239
660.791	-11.0763
662.32	3.3335
663.849	-3.95234
665.378	-3.30181
666.906	6.8745
668.435	3.73649
669.964	-4.35566
671.493	-14.1295
673.022	15.5652
674.55	14.7376
676.079	-11.4892
677.608	-8.51681
679.137	-3.65721
680.665	14.1643
682.194	6.50893
683.723	-12.3482
685.252	14.0888
686.781	-5.57659
688.309	0.1936
689.838	3.21577
691.367	-7.90036
692.896	-9.562
694.424	-8.40525
695.953	-13.818
697.482	2.229
699.011	6.39359
700.54	-9.7461
702.068	-5.01787
703.597	10.5746
705.126	23.5058
706.655	11.9964
708.183	-9.18029
709.712	4.24298
711.241	1.55354
712.77	3.22806
714.299	-3.99157
715.827	3.71576
717.356	5.0803
718.885	9.87689
720.414	5.70747
721.942	7.34607
723.471	6.11476
725	12.8151
726.529	14.2135
728.058	2.29959
729.586	25.6718
731.115	14.1594
732.644	19.8123
734.173	14.8215
735.701	15.7097
737.23	33.2975
738.759	23.6674
740.288	23.7371
741.817	21.1626
743.345	19.1734
744.874	20.3383
746.403	16.248
747.932	17.5528
749.46	29.7754
750.989	30.1218
752.518	16.5412
754.047	29.6966
755.576	28.7837
757.104	19.3881
758.633	27.869
760.162	32.417
761.691	21.3604
763.219	39.9973
764.748	13.7579
766.277	24.4882
767.806	31.7701
769.335	30.0683
770.863	24.0822
772.392	26.0104
773.921	33.2334
775.45	50.4872
776.978	37.4826
778.507	35.7366
780.036	26.7516
781.565	44.4891
783.094	27.5201
784.622	45.7292
786.151	38.2836
787.68	40.7219
789.209	29.0856
790.737	51.488
792.266	39.8163
793.795	39.4857
795.324	39.3665
796.853	40.7707
798.381	50.4122
799.91	46.3733
801.439	38.0079
802.968	45.953
804.496	40.0886
806.025	50.8204
807.554	50.6756
809.083	63.6963
810.612	51.8262
812.14	35.699
813.669	60.2697
815.198	67.7345
816.727	60.419
818.255	57.1106
819.784	60.0601
821.313	38.0293
822.842	73.2965
824.37	50.7136
825.899	64.3616
827.428	46.3014
828.957	53.8996
830.486	60.6952
832.014	52.9793
833.543	60.8128
835.072	71.3212
836.601	50.7356
838.13	70.8375
839.658	56.8081
841.187	67.128
842.716	67.9774
844.245	61.4436
845.773	83.4317
847.302	77.0167
848.831	66.1867
850.36	69.3853
851.888	72.9114
853.417	60.1591
854.946	63.9215
856.475	51.6359
858.004	61.3699
859.532	63.615
861.061	47.6538
862.59	47.4715
864.119	51.2315
865.647	46.0246
867.176	34.3349
868.705	47.8037
870.234	58.8944
871.763	42.118
873.291	36.021
874.82	35.3202
876.349	26.9177
877.878	30.9408
879.406	30.3699
880.935	32.511
882.464	30.1117
883.993	26.9575
885.522	22.8943
887.05	23.0672
888.579	14.6554
890.108	22.7415
891.637	11.1695
893.165	22.7838
894.694	8.40406
896.223	21.2151
897.752	26.6304
899.281	23.7866
900.809	18.8473
902.338	15.3273
903.867	14.7862
905.396	22.4994
906.924	17.0855
908.453	17.593
909.982	-2.73408
911.511	15.5557
913.04	22.8643
914.568	8.20563
916.097	15.7101
917.626	-1.82941
919.155	4.35356
920.683	15.6871
922.212	13.6371
923.741	12.7023
925.27	14.0531
926.799	0.0099783
928.327	15.0282
929.856	7.18368
931.385	2.21044
932.914	9.62057
934.442	-2.85853
935.971	12.5242
937.5	4.20461
939.029	12.5876
940.558	6.0409
942.086	-6.73745
943.615	-4.13701
945.144	6.69702
946.673	8.8447
948.201	1.23326
949.73	5.73149
951.259	5.44647
952.788	4.84808
954.317	8.46946
955.845	-6.05699
957.374	-2.62354
958.903	-0.273559
960.432	8.40635
961.96	8.00523
963.489	0.707451
965.018	-7.28235
966.547	-7.97854
968.076	12.847
969.604	8.30047
971.133	-9.07474
972.662	4.42509
974.191	6.02702
975.719	-6.39988
977.248	0.362701
978.777	4.85874
980.306	10.5411
981.835	15.6653
983.363	-6.55645
984.892	-11.0529
986.421	-3.26098
987.95	1.65595
989.478	-12.3298
991.007	11.1509
992.536	-8.91133
994.065	11.2207
995.594	-3.34154
997.122	-18.5721
998.651	-10.9643
1000.18	8.66649
1001.71	-5.86155
1003.24	-2.91454
1004.77	3.12121
1006.29	4.93105
1007.82	-17.553
1009.35	-9.0728
1010.88	0.145811
1012.41	-11.7749
1013.94	-8.24289
1015.47	-13.0261
1017	0.670529
1018.53	-8.75884
1020.05	-1.18036
1021.58	-7.2015
1023.11	-3.87922
1024.64	1.72703
1026.17	4.60521
1027.7	0.386813
1029.23	10.3923
1030.76	-1.47583
1032.28	-0.424334
1033.81	-2.10105
1035.34	5.60575
1036.87	4.1853
1038.4	0.070076
1039.93	8.71413
1041.46	-3.12048
1042.99	-4.9142
1044.51	-3.12826
1046.04	8.12676
1047.57	4.37634
1049.1	-0.294512
1050.63	12.6587
1052.16	0.968394
1053.69	0.256432
1055.22	-5.39031
1056.74	6.03292
1058.27	-2.17413
1059.8	4.1429
1061.33	-4.66049
1062.86	-1.33592
1064.39	-14.0214
1065.92	-0.925677
1067.45	1.42776
1068.97	1.48481
1070.5	0.318779
1072.03	1.7179
1073.56	10.3133
1075.09	-13.3927
1076.62	6.22951
1078.15	-4.37942
1079.68	8.97383
1081.21	-7.41449
1082.73	7.04405
1084.26	4.12722
1085.79	5.00569
1087.32	9.55749
1088.85	8.15128
1090.38	2.26571
1091.91	14.0411
1093.44	9.65593
1094.96	5.45218
1096.49	20.173
1098.02	-0.618532
1099.55	6.87053
1101.08	-1.30271
1102.61	31.0699
1104.14	9.68713
1105.67	8.09989
1107.19	16.7992
1108.72	9.78199
1110.25	2.53295
1111.78	9.34274
1113.31	9.05775
1114.84	16.3054
1116.37	13.62
1117.9	18.5526
1119.42	11.4579
1120.95	20.1298
1122.48	11.2399
1124.01	12.6527
1125.54	2.18695
1127.07	18.9844
1128.6	14.4201
1130.13	23.5961
1131.65	26.1299
1133.18	7.30742
1134.71	11.156
1136.24	8.65345
1137.77	30.1949
1139.3	27.7007
1140.83	9.47823
1142.36	20.9644
1143.88	2.68993
1145.41	18.7735
1146.94	24.6252
1148.47	25.4147
1150	37.4207
1151.53	32.1699
1153.06	32.0394
1154.59	37.4667
1156.12	24.9096
1157.64	36.7276
1159.17	38.2253
1160.7	33.5137
1162.23	31.9521
1163.76	26.9223
1165.29	32.5289
1166.82	42.628
1168.35	36.6002
1169.87	36.9169
1171.4	32.6701
1172.93	52.9178
1174.46	44.6941
1175.99	43.8234
1177.52	33.0611
1179.05	42.056
1180.58	49.486
1182.1	57.1682
1183.63	48.5347
1185.16	65.7343
1186.69	43.3947
1188.22	73.2743
1189.75	59.1621
1191.28	60.6118
1192.81	67.1072
1194.33	63.4301
1195.86	59.2384
1197.39	61.7022
1198.92	73.9022
1200.45	89.9563
1201.98	83.6345
1203.51	77.8213
1205.04	94.6249
1206.56	79.5455
1208.09	67.1786
1209.62	92.2629
1211.15	92.2975
1212.68	118.072
1214.21	110.856
1215.74	109.69
1217.27	112.38
1218.79	110.556
1220.32	134.259
1221.85	131.468
1223.38	134.911
1224.91	152.585
1226.44	131.344
1227.97	145.396
1229.5	157.741
1231.03	164.985
1232.55	170.567
1234.08	168.873
1235.61	180.706
1237.14	191.851
1238.67	206.096
1240.2	196.334
1241.73	214.584
1243.26	232.747
1244.78	226.429
1246.31	251.482
1247.84	246.46
1249.37	260.677
1250.9	279.487
1252.43	275.043
1253.96	291.762
1255.49	292.07
1257.01	296.785
1258.54	325.856
1260.07	342.619
1261.6	356.72
1263.13	361.898
1264.66	366.538
1266.19	364.446
1267.72	377.709
1269.24	403.938
1270.77	442.379
1272.3	439.405
1273.83	465.182
1275.36	467.584
1276.89	478.512
1278.42	501.937
1279.95	525.382
1281.47	552.95
1283	589.536
1284.53	564.333
1286.06	620.212
1287.59	628.491
1289.12	662.791
1290.65	695.35
1292.18	688.684
1293.71	720.194
1295.23	755.977
1296.76	786.837
1298.29	818.949
1299.82	866.513
1301.35	885.176
1302.88	912.701
1304.41	948.581
1305.94	972.672
1307.46	1026.93
1308.99	1052.23
1310.52	1080.94
1312.05	1128.6
1313.58	1178.61
1315.11	1201.67
1316.64	1252.13
1318.17	1262.99
1319.69	1264.77
1321.22	1259.4
1322.75	1392.8
1324.28	1376.64
1325.81	1383.52
1327.34	1448.52
1328.87	1467.39
1330.4	1485.04
1331.92	1473.23
1333.45	1504.82
1334.98	1485.81
1336.51	1464.14
1338.04	1473.11
1339.57	1492.21
1341.1	1457.54
1342.63	1460.09
1344.15	1437.21
1345.68	1418.23
1347.21	1375.5
1348.74	1366.09
1350.27	1302.33
1351.8	1274.31
1353.33	1257.21
1354.86	1218.77
1356.38	1180.15
1357.91	1155.74
1359.44	1107.72
1360.97	1075.79
1362.5	1022.23
1364.03	1009.75
1365.56	968.009
1367.09	892.733
1368.62	865.979
1370.14	823.566
1371.67	819.12
1373.2	801.297
1374.73	739.597
1376.26	747.435
1377.79	707.511
1379.32	687.885
1380.85	651.532
1382.37	608.056
1383.9	602.34
1385.43	572.213
1386.96	550.175
1388.49	508.262
1390.02	503.751
1391.55	476.689
1393.08	450.89
1394.6	433.794
1396.13	396.828
1397.66	399.066
1399.19	368.223
1400.72	358.305
1402.25	310.42
1403.78	306.824
1405.31	284.1
1406.83	302.212
1408.36	274.406
1409.89	293.721
1411.42	226.489
1412.95	234.695
1414.48	211.549
1416.01	191.835
1417.54	212.5
1419.06	184.96
1420.59	169.729
1422.12	139.105
1423.65	159.304
1425.18	159.247
1426.71	164.008
1428.24	138.065
1429.77	136.775
1431.29	90.1217
1432.82	117.965
1434.35	91.1675
1435.88	99.9786
1437.41	95.3037
1438.94	92.712
1440.47	94.7638
1442	76.9516
1443.53	66.7645
1445.05	75.9091
1446.58	67.9105
1448.11	68.9415
1449.64	31.8744
1451.17	69.7646
1452.7	66.7695
1454.23	44.0776
1455.76	67.5371
1457.28	49.8525
1458.81	39.0846
1460.34	18.9632
1461.87	49.727
1463.4	34.4456
1464.93	28.8737
1466.46	23.541
1467.99	26.7471
1469.51	27.6603
1471.04	6.27559
1472.57	13.6629
1474.1	-10.1891
1475.63	26.6911
1477.16	2.19645
1478.69	35.2619
1480.22	6.44599
1481.74	36.0347
1483.27	37.3402
1484.8	56.3007
1486.33	46.3129
1487.86	66.3513
1489.39	69.2628
1490.92	79.6066
1492.45	83.5198
1493.97	80.4222
1495.5	77.6239
1497.03	111.067
1498.56	113.311
1500.09	106.63
1501.62	111.627
1503.15	164.076
1504.68	128.423
1506.21	158.014
1507.73	173.712
1509.26	150.446
1510.79	181.58
1512.32	174.552
1513.85	204.525
1515.38	208.588
1516.91	249.27
1518.44	250.809
1519.96	252.309
1521.49	277.714
1523.02	313.385
1524.55	310.587
1526.08	340.663
1527.61	330.676
1529.14	385.041
1530.67	390.888
1532.19	423.38
1533.72	430.486
1535.25	457.25
1536.78	473.432
1538.31	505.788
1539.84	548.279
1541.37	601.552
1542.9	594.97
1544.42	660.393
1545.95	674.854
1547.48	705.552
1549.01	753.055
1550.54	802.744
1552.07	826.645
1553.6	882.925
1555.13	944.088
1556.65	961.178
1558.18	998.305
1559.71	1013.18
1561.24	1060.58
1562.77	1119.62
1564.3	1149.12
1565.83	1206.81
1567.36	1231.2
1568.88	1262.27
1570.41	1293.07
1571.94	1337.32
1573.47	1369.66
1575	1362.48
1576.53	1382.2
1578.06	1416.75
1579.59	1445.21
1581.12	1444.66
1582.64	1450.67
1584.17	1449.12
1585.7	1451.83
1587.23	1444.7
1588.76	1452.09
1590.29	1450.08
1591.82	1423.5
1593.35	1411.71
1594.87	1405.59
1596.4	1402.66
1597.93	1364.22
1599.46	1367.91
1600.99	1321.09
1602.52	1290.81
1604.05	1232.03
1605.58	1205.51
1607.1	1182.25
1608.63	1129.61
1610.16	1079.08
1611.69	1050.11
1613.22	992.494
1614.75	939.549
1616.28	917.575
1617.81	827.575
1619.33	791.603
1620.86	749.384
1622.39	684.181
1623.92	643.566
1625.45	614.844
1626.98	559.011
1628.51	840.774
1630.04	489.101
1631.56	458.004
1633.09	427.145
1634.62	389.91
1636.15	383.397
1637.68	315.528
1639.21	311.451
1640.74	290.422
1642.27	249.184
1643.79	218.061
1645.32	208.696
1646.85	190.239
1648.38	177.974
1649.91	159.291
1651.44	136.508
1652.97	128.441
1654.5	126.933
1656.03	79.7211
1657.55	77.046
1659.08	69.1488
1660.61	62.0074
1662.14	51.8732
1663.67	44.1701
1665.2	39.1429
1666.73	28.1133
1668.26	16.3648
1669.78	21.2311
1671.31	15.2831
1672.84	8.37658
1674.37	0.472104
1675.9	-5.00814
1677.43	-4.54229
1678.96	-13.6219
1680.49	-6.43139
1682.01	-11.155
1683.54	-17.8076
1685.07	-8.75454
1686.6	-13.1282
1688.13	-7.39115
1689.66	-21.4429
1691.19	0.295516
1692.72	-8.51817
1694.24	-10.9645
1695.77	-6.703
1697.3	10.6211
1698.83	-3.02966
1700.36	1.39637
1701.89	9.4301
1703.42	-0.680383
1704.95	3.44872
1706.47	-1.41033
1708	-1.25497
1709.53	-5.46589
1711.06	2.29743
1712.59	-2.92051
1714.12	-2.50282
1715.65	-3.0354
1717.18	2.63781
1718.71	0.809427
1720.23	-10.2337
1721.76	-5.6432
1723.29	-3.56533
1724.82	7.4031
1726.35	1.67463
1727.88	0.419279
1729.41	2.12062
1730.94	-10.725
1732.46	-1.40876
1733.99	-0.710346
1735.52	0.987457
1737.05	10.3177
1738.58	0.768042
1740.11	12.179
1741.64	10.8581
1743.17	6.16229
1744.69	-1.49528
1746.22	0.321632
1747.75	-5.09607
1749.28	8.81481
1750.81	-0.249306
1752.34	5.92153
1753.87	8.82415
1755.4	5.43435
1756.92	-4.75773
1758.45	0.681903
1759.98	12.095
1761.51	0.838215
1763.04	2.80312
1764.57	12.7742
1766.1	-3.9372
1767.63	6.36934
1769.15	4.74419
1770.68	2.14317
1772.21	3.07093
1773.74	6.27803
1775.27	1.45146
1776.8	7.33509
1778.33	4.58442
1779.86	5.32888
1781.38	-2.9499
1782.91	3.97313
1784.44	3.59892
1785.97	-3.5549
1787.5	-5.25745
1789.03	-11.7192
1790.56	-6.56627
1792.09	-3.5181
1793.62	0.766637
1795.14	6.57095
1796.67	15.7866
1798.2	2.66828
1799.73	-5.38532
1801.26	-3.59126
1802.79	-5.80321
1804.32	-3.29563
1805.85	0.0775789
1807.37	-3.0947
1808.9	-4.63591
1810.43	1.85634
1811.96	-12.4669
1813.49	1.37801
1815.02	-4.58089
1816.55	-8.55782
1818.08	-19.2397
1819.6	-1.59528
1821.13	-11.1678
1822.66	3.28903
1824.19	-14.1596
1825.72	-9.26892
1827.25	4.86628
1828.78	-1.41011
1830.31	-13.5052
1831.83	-11.0919
1833.36	-12.0546
1834.89	1.86598
1836.42	-1.89297
1837.95	-7.12634
1839.48	-7.88427
1841.01	-2.65673
1842.54	-12.2811
1844.06	-0.328898
1845.59	-14.172
1847.12	-9.53707
1848.65	-6.33206
1850.18	-11.8672
1851.71	-9.79212
1853.24	-4.95399
1854.77	-3.62522
1856.29	-12.3708
1857.82	-8.59665
1859.35	-10.1558
1860.88	-3.76223
1862.41	-0.894307
1863.94	-7.54595
1865.47	-5.48074
1867	1.34077
1868.53	-4.93126
1870.05	-6.20226
1871.58	-7.35415
1873.11	-11.4209
1874.64	0.769296
1876.17	-9.72468
1877.7	-9.06801
1879.23	-2.73623
1880.76	-1.04929
1882.28	-17.8881
1883.81	-2.50114
1885.34	2.22461
1886.87	-14.1465
1888.4	2.45354
1889.93	1.6676
1891.46	2.50652
1892.99	-5.79121
1894.51	-2.5423
1896.04	-10.7744
1897.57	-7.45333
1899.1	-2.00628
1900.63	-5.02309
1902.16	-3.8456
1903.69	-9.87999
1905.22	-2.72026
1906.74	-9.91007
1908.27	-2.79168
1909.8	-4.68346
1911.33	-13.6745
1912.86	5.26089
1914.39	-12.1806
1915.92	-8.20358
1917.45	-8.51015
1918.97	-14.3238
1920.5	-1.28832
1922.03	-3.79261
1923.56	-3.07174
1925.09	-1.99307
1926.62	-7.66929
1928.15	-5.41524
1929.68	-11.0397
1931.21	-5.57133
1932.73	-10.2813
1934.26	-2.44244
1935.79	-7.9613
1937.32	-3.38074
1938.85	-8.88362
1940.38	0.0194074
1941.91	3.77497
1943.44	-1.51808
1944.96	-13.3394
1946.49	-6.61027
1948.02	-2.54636
1949.55	-7.40893
1951.08	2.90248
1952.61	-4.14554
1954.14	-4.05878
1955.67	-0.570158
1957.19	-3.84254
1958.72	-10.4476
1960.25	-0.261812
1961.78	-4.11239
1963.31	-1.79602
1964.84	-0.414235
1966.37	5.8817
1967.9	-0.910495
1969.42	-4.26945
1970.95	-2.26541
1972.48	1.77936
1974.01	5.40625
1975.54	-3.90083
1977.07	-3.16617
1978.6	13.5693
1980.13	3.91102
1981.65	0.42243
1983.18	18.5493
1984.71	1.75662
1986.24	-3.44946
1987.77	7.10495
1989.3	-3.14515
1990.83	-0.710813
1992.36	12.4902
1993.88	-2.11277
1995.41	8.05818
1996.94	7.59124
1998.47	10.3938
2000	5.50958