File: Example Data/Raman/CNT - TIM/Raytheon/Al foil/2011/02-10-11/Batch 27 - top_1.txt
300	221.339
301.529	229.61
303.058	244.735
304.586	253.196
306.115	238.956
307.644	240.858
309.173	237.619
310.701	242.928
312.23	226.93
313.759	233.495
315.288	234.511
316.817	242.757
318.345	233.494
319.874	230.533
321.403	228.822
322.932	221.74
324.46	225.392
325.989	231.222
327.518	231
329.047	231.652
330.576	235.806
332.104	226.325
333.633	233.38
335.162	228.685
336.691	223.73
338.219	232.606
339.748	231.321
341.277	229.591
342.806	234.631
344.335	220.414
345.863	226.832
347.392	229.666
348.921	228.368
350.45	222.116
351.978	224.332
353.507	223.94
355.036	222.116
356.565	212.852
358.094	225.394
359.622	218.839
361.151	215.004
362.68	224.474
364.209	238.358
365.737	213.767
367.266	219.116
368.795	221.088
370.324	220.411
371.853	224.534
373.381	204.313
374.91	229.169
376.439	214.621
377.968	212.41
379.496	222.009
381.025	207.308
382.554	205.857
384.083	214.22
385.612	209.622
387.14	213.936
388.669	211.658
390.198	220.573
391.727	213.467
393.255	210.264
394.784	204.55
396.313	204.918
397.842	215.778
399.371	215.618
400.899	213.783
402.428	215.203
403.957	212.946
405.486	222.395
407.014	211.113
408.543	216.923
410.072	198.971
411.601	207.755
413.129	201.22
414.658	196.114
416.187	206.251
417.716	222.421
419.245	208.745
420.773	205.301
422.302	214.618
423.831	213.473
425.36	208.717
426.888	208.559
428.417	214.626
429.946	199.536
431.475	212.177
433.004	201.878
434.532	205.929
436.061	203.997
437.59	205.072
439.119	207.574
440.647	209.107
442.176	203.821
443.705	202.839
445.234	200.887
446.763	203.19
448.291	202.979
449.82	204.735
451.349	206.099
452.878	204.724
454.406	202.293
455.935	201.406
457.464	199.948
458.993	204.665
460.522	189.762
462.05	204.487
463.579	195.26
465.108	194.368
466.637	186.914
468.165	190.249
469.694	202.188
471.223	190.835
472.752	198.065
474.281	187.497
475.809	186.567
477.338	185.963
478.867	185.478
480.396	191.543
481.924	195.305
483.453	187.98
484.982	197.292
486.511	181.251
488.04	174.031
489.568	184.699
491.097	178.404
492.626	183.341
494.155	167.768
495.683	175.008
497.212	165.159
498.741	169.653
500.27	177.13
501.799	173
503.327	170.162
504.856	167.612
506.385	165.405
507.914	170.768
509.442	179.925
510.971	179.704
512.5	164.467
514.029	179.128
515.558	178.842
517.086	172.912
518.615	170.707
520.144	184.173
521.673	169.303
523.201	158.652
524.73	174.968
526.259	174.271
527.788	150.594
529.317	172.44
530.845	169.746
532.374	175.288
533.903	157.816
535.432	165.726
536.96	177.275
538.489	176.359
540.018	169.549
541.547	165.302
543.076	174.647
544.604	166.047
546.133	174.51
547.662	176.504
549.191	176.09
550.719	178.807
552.248	163.694
553.777	167.455
555.306	179.143
556.835	183.333
558.363	165.445
559.892	177.499
561.421	169.024
562.95	174.562
564.478	172.964
566.007	176.231
567.536	179.038
569.065	174.072
570.594	172.079
572.122	173.271
573.651	185.26
575.18	180.195
576.709	187.405
578.237	178.531
579.766	176.636
581.295	175.768
582.824	175.941
584.353	181.146
585.881	179.448
587.41	159.849
588.939	181.883
590.468	186.217
591.996	181.584
593.525	171.259
595.054	174.083
596.583	181.217
598.112	183.725
599.64	176.771
601.169	183.89
602.698	183.059
604.227	186.552
605.755	197.191
607.284	178.247
608.813	181.326
610.342	182.473
611.87	187.421
613.399	195.083
614.928	205.891
616.457	189.067
617.986	184.995
619.514	181.25
621.043	177.047
622.572	188.534
624.101	188.827
625.63	183.88
627.158	188.761
628.687	201.963
630.216	197.407
631.745	193.016
633.273	198.571
634.802	197.167
636.331	199.255
637.86	183.266
639.388	196.319
640.917	197.112
642.446	195.588
643.975	200.884
645.504	184.736
647.032	205.565
648.561	194.804
650.09	201.554
651.619	195.712
653.147	202.321
654.676	196.736
656.205	207.627
657.734	202.737
659.263	201.194
660.791	200.47
662.32	205.874
663.849	201.682
665.378	208.88
666.906	209.412
668.435	197.538
669.964	208.139
671.493	207.214
673.022	207.436
674.55	198.158
676.079	209.871
677.608	207.221
679.137	202.983
680.665	207.762
682.194	199.893
683.723	217.501
685.252	206.571
686.781	199.959
688.309	203.981
689.838	217.12
691.367	215.395
692.896	216.029
694.424	215.757
695.953	207.101
697.482	201.212
699.011	216.588
700.54	206.283
702.068	203.836
703.597	206.351
705.126	224.736
706.655	218.425
708.183	217.577
709.712	216.977
711.241	214.975
712.77	215.618
714.299	208.593
715.827	216.429
717.356	228.837
718.885	210.235
720.414	208.673
721.942	217.155
723.471	226.71
725	225.423
726.529	219.39
728.058	227.213
729.586	232.496
731.115	229.618
732.644	230.459
734.173	217.438
735.701	227.736
737.23	227.733
738.759	234.858
740.288	241.484
741.817	230.92
743.345	229.056
744.874	237.242
746.403	236.831
747.932	238.343
749.46	239.453
750.989	231.129
752.518	230.84
754.047	241.504
755.576	236.404
757.104	243.01
758.633	235.179
760.162	249.24
761.691	248.53
763.219	241.4
764.748	235.272
766.277	255.497
767.806	239.001
769.335	249.716
770.863	254.873
772.392	246.981
773.921	255.276
775.45	253.882
776.978	248.06
778.507	247.467
780.036	262.499
781.565	260.316
783.094	251.439
784.622	258.077
786.151	254.006
787.68	245.928
789.209	253.537
790.737	261.448
792.266	253.578
793.795	260.951
795.324	255.904
796.853	265.405
798.381	263.754
799.91	255.582
801.439	263.719
802.968	262.644
804.496	266.564
806.025	272.173
807.554	262.459
809.083	285.712
810.612	279.671
812.14	264.047
813.669	270.445
815.198	280.299
816.727	281.631
818.255	270.911
819.784	274.17
821.313	278.998
822.842	269.786
824.37	281.758
825.899	271.533
827.428	276.667
828.957	273.448
830.486	282.636
832.014	286.302
833.543	282.357
835.072	281.472
836.601	272.461
838.13	269.838
839.658	283.486
841.187	275.617
842.716	273.686
844.245	285.334
845.773	277.578
847.302	286.612
848.831	293.667
850.36	279.733
851.888	293.881
853.417	286.216
854.946	286.474
856.475	278.089
858.004	277.63
859.532	271.003
861.061	276.299
862.59	256.306
864.119	265.414
865.647	272.515
867.176	269.005
868.705	268.94
870.234	257.615
871.763	258.237
873.291	250.48
874.82	257.555
876.349	255.577
877.878	245.536
879.406	252.878
880.935	251.124
882.464	254.285
883.993	248.037
885.522	248.957
887.05	250.134
888.579	251.291
890.108	249.318
891.637	252.948
893.165	233.092
894.694	239.277
896.223	249.409
897.752	235.071
899.281	244.124
900.809	237.444
902.338	235.543
903.867	239.678
905.396	236.502
906.924	235.801
908.453	243.78
909.982	234.229
911.511	238.14
913.04	226.611
914.568	229.697
916.097	227.353
917.626	240.708
919.155	231.898
920.683	230.173
922.212	225.01
923.741	216.433
925.27	225.936
926.799	241.703
928.327	235.277
929.856	230.187
931.385	223.586
932.914	234.197
934.442	229.729
935.971	238.735
937.5	222.319
939.029	233.187
940.558	223.177
942.086	230.154
943.615	235.134
945.144	229.838
946.673	232.262
948.201	237.658
949.73	242.321
951.259	238.331
952.788	235.63
954.317	226.517
955.845	237.19
957.374	237.502
958.903	238.522
960.432	236.775
961.96	233.798
963.489	231.704
965.018	229.884
966.547	239.278
968.076	229.33
969.604	237.873
971.133	235.255
972.662	229.439
974.191	230.283
975.719	245.053
977.248	242.456
978.777	239.605
980.306	247.747
981.835	253.985
983.363	247.104
984.892	243.445
986.421	250.32
987.95	253.204
989.478	254.211
991.007	249.068
992.536	238.356
994.065	254.478
995.594	276.269
997.122	253.3
998.651	264.409
1000.18	263.771
1001.71	271.995
1003.24	259.14
1004.77	261.077
1006.29	257.951
1007.82	270.824
1009.35	272.233
1010.88	278.408
1012.41	276.332
1013.94	282.477
1015.47	273.594
1017	286.157
1018.53	287.969
1020.05	295.168
1021.58	291.857
1023.11	298.845
1024.64	299.399
1026.17	307.322
1027.7	303.89
1029.23	313.566
1030.76	310.442
1032.28	310.661
1033.81	335.359
1035.34	309.907
1036.87	316.38
1038.4	328.598
1039.93	329.443
1041.46	341.987
1042.99	311.929
1044.51	343.673
1046.04	339.3
1047.57	339.771
1049.1	336.385
1050.63	340.809
1052.16	335.291
1053.69	343.642
1055.22	345.922
1056.74	352.728
1058.27	349.14
1059.8	340.164
1061.33	362.437
1062.86	366.047
1064.39	351.14
1065.92	353.589
1067.45	362.581
1068.97	369.395
1070.5	368.449
1072.03	365.864
1073.56	371.592
1075.09	369.772
1076.62	376.732
1078.15	377.392
1079.68	375.989
1081.21	371.292
1082.73	390.611
1084.26	393.18
1085.79	391.02
1087.32	396.024
1088.85	400.46
1090.38	397.78
1091.91	410.725
1093.44	409.089
1094.96	410.434
1096.49	416.103
1098.02	421.774
1099.55	408.982
1101.08	421.831
1102.61	426.04
1104.14	423.112
1105.67	439.464
1107.19	432.982
1108.72	448.083
1110.25	452.755
1111.78	442.249
1113.31	447.181
1114.84	444.945
1116.37	449.755
1117.9	454.543
1119.42	459.224
1120.95	459.151
1122.48	461.33
1124.01	463.823
1125.54	481.473
1127.07	483.997
1128.6	480.54
1130.13	493.628
1131.65	474.861
1133.18	483.879
1134.71	512.204
1136.24	505.47
1137.77	506.117
1139.3	492.942
1140.83	507.954
1142.36	525.292
1143.88	521.739
1145.41	525.331
1146.94	510.009
1148.47	525.831
1150	524.246
1151.53	536.336
1153.06	558.99
1154.59	561.124
1156.12	558.052
1157.64	564.351
1159.17	555.968
1160.7	554.772
1162.23	557.852
1163.76	574.899
1165.29	567.726
1166.82	574.709
1168.35	561.33
1169.87	586.328
1171.4	581.787
1172.93	571.195
1174.46	592.702
1175.99	600.272
1177.52	595.697
1179.05	595.518
1180.58	596.229
1182.1	602.219
1183.63	599.46
1185.16	577.017
1186.69	602.152
1188.22	611.217
1189.75	591.822
1191.28	623.484
1192.81	627.245
1194.33	623.806
1195.86	612.703
1197.39	657.989
1198.92	633.544
1200.45	639.407
1201.98	634.549
1203.51	645.954
1205.04	645.444
1206.56	635.787
1208.09	658.3
1209.62	667.389
1211.15	656.657
1212.68	661.43
1214.21	680.481
1215.74	686.458
1217.27	693.161
1218.79	703.808
1220.32	669.227
1221.85	722.341
1223.38	709.407
1224.91	723.036
1226.44	720.215
1227.97	713.685
1229.5	731.707
1231.03	734.916
1232.55	730.821
1234.08	748.477
1235.61	752.648
1237.14	784.194
1238.67	767.025
1240.2	772.919
1241.73	786.57
1243.26	793.21
1244.78	792.05
1246.31	817.538
1247.84	822.646
1249.37	833.388
1250.9	859.523
1252.43	863.332
1253.96	859.22
1255.49	860.569
1257.01	885.452
1258.54	897.576
1260.07	913.935
1261.6	929.146
1263.13	928.79
1264.66	947.05
1266.19	961.017
1267.72	977.859
1269.24	964.381
1270.77	977.584
1272.3	1020.24
1273.83	1029.17
1275.36	1068.03
1276.89	1049.41
1278.42	1074.11
1279.95	1088.85
1281.47	1102.43
1283	1130.17
1284.53	1150.65
1286.06	1154.12
1287.59	1179.71
1289.12	1185.37
1290.65	1224.37
1292.18	1236.2
1293.71	1256.33
1295.23	1284.35
1296.76	1319.66
1298.29	1342.58
1299.82	1367.55
1301.35	1389.79
1302.88	1428.05
1304.41	1436.92
1305.94	1452.84
1307.46	1482.45
1308.99	1522.91
1310.52	1533.86
1312.05	1585.7
1313.58	1598.21
1315.11	1665.28
1316.64	1650.51
1318.17	1677.88
1319.69	1715.09
1321.22	1743.84
1322.75	1797.14
1324.28	1811.12
1325.81	1818.88
1327.34	1858.35
1328.87	1883.3
1330.4	1895.64
1331.92	1956.36
1333.45	1945.07
1334.98	1955.41
1336.51	2012.99
1338.04	2021.2
1339.57	1996.58
1341.1	2001.91
1342.63	2032.01
1344.15	2005.93
1345.68	1984.91
1347.21	2025.2
1348.74	1994.41
1350.27	1993.71
1351.8	1965.51
1353.33	1960.61
1354.86	1906.58
1356.38	1895.02
1357.91	1872.7
1359.44	1818.24
1360.97	1815.74
1362.5	1773.44
1364.03	1753.27
1365.56	1735.09
1367.09	1719.45
1368.62	1668.63
1370.14	1668.12
1371.67	1621.81
1373.2	1609.96
1374.73	1584.44
1376.26	1563.14
1377.79	1521.18
1379.32	1509.97
1380.85	1498.85
1382.37	1430.12
1383.9	1424.75
1385.43	1405.03
1386.96	1390.84
1388.49	1387.86
1390.02	1328.13
1391.55	1321.66
1393.08	1323.41
1394.6	1305.14
1396.13	1271.28
1397.66	1241.55
1399.19	1227.28
1400.72	1235.25
1402.25	1231.8
1403.78	1197.37
1405.31	1204.79
1406.83	1151.26
1408.36	1144.21
1409.89	1142.06
1411.42	1150.91
1412.95	1110.31
1414.48	1092.85
1416.01	1082.9
1417.54	1085.29
1419.06	1057.96
1420.59	1058.13
1422.12	1076.95
1423.65	1034.8
1425.18	1040.36
1426.71	1068.22
1428.24	1031.73
1429.77	1044.22
1431.29	1039.48
1432.82	1027.84
1434.35	1028.32
1435.88	989.803
1437.41	1023.99
1438.94	982.802
1440.47	994.205
1442	1016.21
1443.53	988.944
1445.05	988.163
1446.58	975.616
1448.11	992.363
1449.64	976.079
1451.17	994.661
1452.7	982.813
1454.23	960.714
1455.76	980.701
1457.28	988.883
1458.81	982.235
1460.34	956.49
1461.87	948.37
1463.4	961.438
1464.93	977.443
1466.46	979.776
1467.99	969.312
1469.51	930.794
1471.04	951.785
1472.57	981.197
1474.1	974.344
1475.63	964.562
1477.16	959.906
1478.69	957.572
1480.22	967.632
1481.74	976.189
1483.27	973.281
1484.8	967.059
1486.33	965.352
1487.86	960.547
1489.39	976.217
1490.92	948.561
1492.45	960.364
1493.97	986.173
1495.5	961.887
1497.03	978.819
1498.56	976.87
1500.09	966.214
1501.62	963.709
1503.15	973.144
1504.68	988.446
1506.21	973.501
1507.73	966.001
1509.26	981.129
1510.79	993.71
1512.32	995.264
1513.85	999.721
1515.38	995.092
1516.91	1010.14
1518.44	1010.1
1519.96	1011.31
1521.49	1022.28
1523.02	1017.57
1524.55	1031.5
1526.08	1012.65
1527.61	1056.05
1529.14	1054.8
1530.67	1091.28
1532.19	1058.88
1533.72	1099.84
1535.25	1089.68
1536.78	1091.83
1538.31	1126.23
1539.84	1149.35
1541.37	1169.15
1542.9	1179.53
1544.42	1193.22
1545.95	1221.31
1547.48	1230.43
1549.01	1267.08
1550.54	1269.14
1552.07	1307.82
1553.6	1345.4
1555.13	1352.43
1556.65	1379.32
1558.18	1397.88
1559.71	1433.54
1561.24	1460.23
1562.77	1481.79
1564.3	1505.79
1565.83	1547.66
1567.36	1598.12
1568.88	1609.2
1570.41	1640.22
1571.94	1674.34
1573.47	1679.22
1575	1708.29
1576.53	1783.29
1578.06	1806.4
1579.59	1791.49
1581.12	1830.69
1582.64	1880.84
1584.17	1901.8
1585.7	1909.78
1587.23	1941.68
1588.76	1966.36
1590.29	1957.54
1591.82	1947.7
1593.35	1982.7
1594.87	1951.69
1596.4	1962.9
1597.93	1944.07
1599.46	1930.6
1600.99	1904.11
1602.52	1892.58
1604.05	1880.15
1605.58	1857.54
1607.1	1825.6
1608.63	1795.04
1610.16	1762.43
1611.69	1737.73
1613.22	1684.17
1614.75	1661.42
1616.28	1607.19
1617.81	1535.47
1619.33	1467.1
1620.86	1442.56
1622.39	1387.3
1623.92	1330.34
1625.45	1274
1626.98	1231.65
1628.51	1187.03
1630.04	1154.65
1631.56	1105.08
1633.09	1050.41
1634.62	1013.02
1636.15	984.398
1637.68	922.242
1639.21	894.885
1640.74	867.684
1642.27	816.117
1643.79	802.427
1645.32	749.097
1646.85	739.15
1648.38	683.677
1649.91	678.149
1651.44	644.81
1652.97	620.154
1654.5	591.902
1656.03	574.586
1657.55	560.883
1659.08	524.939
1660.61	506.734
1662.14	484.887
1663.67	471.207
1665.2	446.641
1666.73	429.579
1668.26	418.377
1669.78	407.018
1671.31	388.906
1672.84	376.817
1674.37	365.469
1675.9	350.698
1677.43	346.429
1678.96	329.917
1680.49	323.696
1682.01	313.436
1683.54	304.277
1685.07	298.8
1686.6	294.916
1688.13	289.982
1689.66	287.698
1691.19	280.159
1692.72	266.424
1694.24	267.35
1695.77	255.773
1697.3	255.558
1698.83	247.361
1700.36	244.692
1701.89	238.456
1703.42	241.712
1704.95	224.632
1706.47	231.864
1708	228.08
1709.53	227.274
1711.06	223.523
1712.59	220.142
1714.12	219.613
1715.65	209.157
1717.18	206.663
1718.71	206.729
1720.23	212.207
1721.76	212.413
1723.29	205.845
1724.82	205.387
1726.35	199.389
1727.88	206.235
1729.41	203.95
1730.94	199.236
1732.46	198.894
1733.99	199.041
1735.52	195.366
1737.05	194.644
1738.58	200.745
1740.11	196.083
1741.64	192.486
1743.17	191.672
1744.69	185.652
1746.22	182.928
1747.75	185.267
1749.28	190.173
1750.81	186.936
1752.34	187.101
1753.87	183.301
1755.4	188.144
1756.92	192.844
1758.45	176.4
1759.98	181.894
1761.51	177.607
1763.04	186.099
1764.57	179.89
1766.1	179.687
1767.63	176.722
1769.15	178.028
1770.68	173.534
1772.21	176.96
1773.74	181.263
1775.27	178.27
1776.8	173.275
1778.33	179.019
1779.86	184.163
1781.38	177.721
1782.91	171.589
1784.44	175.007
1785.97	163.023
1787.5	176.395
1789.03	181.949
1790.56	172.671
1792.09	176.926
1793.62	174.227
1795.14	176.269
1796.67	167.389
1798.2	169.463
1799.73	176.069
1801.26	175.489
1802.79	171.479
1804.32	175.186
1805.85	173.925
1807.37	173.478
1808.9	169.731
1810.43	166.372
1811.96	178.044
1813.49	178.464
1815.02	168.732
1816.55	170.666
1818.08	166.594
1819.6	170.835
1821.13	174.404
1822.66	171.482
1824.19	166.797
1825.72	177.292
1827.25	171.781
1828.78	166.887
1830.31	161.474
1831.83	168.554
1833.36	167.027
1834.89	166.448
1836.42	172.589
1837.95	156.689
1839.48	173.269
1841.01	167.336
1842.54	170.302
1844.06	165.966
1845.59	168.656
1847.12	161.563
1848.65	165.713
1850.18	167.201
1851.71	173.757
1853.24	164.734
1854.77	166.873
1856.29	167.487
1857.82	166.388
1859.35	165.322
1860.88	164.629
1862.41	168.431
1863.94	162.755
1865.47	160.547
1867	163.396
1868.53	157.705
1870.05	172.266
1871.58	173.797
1873.11	169.24
1874.64	164.348
1876.17	163.914
1877.7	170.734
1879.23	167.233
1880.76	167.004
1882.28	163.17
1883.81	163.418
1885.34	173.469
1886.87	167.177
1888.4	163.86
1889.93	170.233
1891.46	173.771
1892.99	161.954
1894.51	166.42
1896.04	166.021
1897.57	167.05
1899.1	175.763
1900.63	167.349
1902.16	166.758
1903.69	161.504
1905.22	175.262
1906.74	164.963
1908.27	163.803
1909.8	161.791
1911.33	166.711
1912.86	170.694
1914.39	170.25
1915.92	168.316
1917.45	172.625
1918.97	165.972
1920.5	159.714
1922.03	172.205
1923.56	172.381
1925.09	166.483
1926.62	162.303
1928.15	166.19
1929.68	167.565
1931.21	164.552
1932.73	162.285
1934.26	165.828
1935.79	172.003
1937.32	172.973
1938.85	155.86
1940.38	157.759
1941.91	159.472
1943.44	168.861
1944.96	167.374
1946.49	155.241
1948.02	161.657
1949.55	168.22
1951.08	166.694
1952.61	169.909
1954.14	167.188
1955.67	161.115
1957.19	168.628
1958.72	157.504
1960.25	160.162
1961.78	162.793
1963.31	165.534
1964.84	167.213
1966.37	164.964
1967.9	169.961
1969.42	159.777
1970.95	160.68
1972.48	168.651
1974.01	175.278
1975.54	169.416
1977.07	169.739
1978.6	175.436
1980.13	161.432
1981.65	169.187
1983.18	168.319
1984.71	174.181
1986.24	168.401
1987.77	171.509
1989.3	168.925
1990.83	166.266
1992.36	175.23
1993.88	166.22
1995.41	168.889
1996.94	173.682
1998.47	174.31
2000	169.147