File: Example Data/Raman/Kara/12-20-10/Si-Graphene/4bulk/SGbulk_2.txt
300	331.411
302.53	329.651
305.06	323.335
307.589	311.67
310.119	321.687
312.649	320.73
315.179	323.851
317.708	335.218
320.238	348.035
322.768	323.445
325.298	332.077
327.827	333.51
330.357	333.147
332.887	340.011
335.417	356.534
337.946	351.29
340.476	348.777
343.006	342.298
345.536	333.735
348.065	334.975
350.595	334.001
353.125	324.145
355.655	322.99
358.185	323.825
360.714	314.552
363.244	336.326
365.774	323.962
368.304	313.039
370.833	309.529
373.363	310.566
375.893	308.125
378.423	303.519
380.952	296.332
383.482	291.879
386.012	289.2
388.542	281.576
391.071	291.518
393.601	292.21
396.131	294.269
398.661	296.089
401.19	291.905
403.72	280.636
406.25	294.722
408.78	298.549
411.31	298.3
413.839	301.606
416.369	309.153
418.899	305.229
421.429	323.628
423.958	328.27
426.488	315.601
429.018	303.908
431.548	329.281
434.077	316.302
436.607	309.35
439.137	315.664
441.667	328.943
444.196	332.96
446.726	340.836
449.256	338.059
451.786	337.33
454.315	349.643
456.845	376.404
459.375	388.726
461.905	396.625
464.435	413.673
466.964	437.166
469.494	462.624
472.024	485.29
474.554	493.025
477.083	523.663
479.613	567.587
482.143	615.18
484.673	662.921
487.202	720.107
489.732	805.75
492.262	858.808
494.792	949.995
497.321	1085.07
499.851	1246.73
502.381	1487.25
504.911	1658.4
507.44	1797.07
509.97	1816.48
512.5	1673.96
515.03	1394.78
517.56	1088.33
520.089	808.897
522.619	615.291
525.149	490.7
527.679	404.805
530.208	336.132
532.738	300.025
535.268	258.487
537.798	240.077
540.327	231.389
542.857	216.65
545.387	201.363
547.917	184.772
550.446	180.257
552.976	169.464
555.506	162.39
558.036	168.367
560.565	168.201
563.095	165.229
565.625	154.884
568.155	149.898
570.685	150.576
573.214	152.347
575.744	155.344
578.274	155.237
580.804	155.46
583.333	157.436
585.863	158.45
588.393	158.746
590.923	171.756
593.452	164.474
595.982	161.104
598.512	161.661
601.042	166.549
603.571	172.374
606.101	165.858
608.631	164.475
611.161	162.341
613.69	161.8
616.22	160.521
618.75	156.545
621.28	153.487
623.81	161.522
626.339	159.583
628.869	152.271
631.399	147.143
633.929	149.647
636.458	158.892
638.988	161.072
641.518	153.992
644.048	159.489
646.577	157.657
649.107	145.883
651.637	152.061
654.167	150.381
656.696	149.3
659.226	149.354
661.756	146.844
664.286	144.177
666.815	146.664
669.345	145.655
671.875	151.806
674.405	146.257
676.935	141.336
679.464	139.562
681.994	136.578
684.524	130.408
687.054	131.251
689.583	134.455
692.113	133.648
694.643	133.939
697.173	136.18
699.702	132
702.232	132
704.762	131.544
707.292	132.126
709.821	133.771
712.351	135.318
714.881	135.742
717.411	136.588
719.94	141.103
722.47	142.817
725	136.764
727.53	133.398
730.06	139.487
732.589	146.44
735.119	142.031
737.649	143.437
740.179	140.195
742.708	139.372
745.238	140.951
747.768	139.086
750.298	132.377
752.827	148.18
755.357	149.24
757.887	143.681
760.417	144.712
762.946	151.384
765.476	150.399
768.006	151.931
770.536	153.463
773.065	151.408
775.595	152.264
778.125	153.242
780.655	152.042
783.185	153.82
785.714	156.378
788.244	159.249
790.774	158.482
793.304	163.532
795.833	165.11
798.363	155.922
800.893	155.581
803.423	155.239
805.952	161.108
808.482	155.28
811.012	157.515
813.542	166.053
816.071	167.036
818.601	167.08
821.131	164.167
823.661	167.542
826.19	168.921
828.72	165.671
831.25	165.571
833.78	172.997
836.31	170.228
838.839	170.915
841.369	172.654
843.899	163.311
846.429	164.601
848.958	174.578
851.488	176.65
854.018	173.097
856.548	167.593
859.077	166.233
861.607	178.548
864.137	182.876
866.667	181.695
869.196	185.011
871.726	183.302
874.256	189.334
876.786	185.346
879.315	194.327
881.845	198.04
884.375	192.391
886.905	187.614
889.435	195.279
891.964	207.021
894.494	207.567
897.024	210.399
899.554	214.532
902.083	219.883
904.613	221.715
907.143	218.86
909.673	233.145
912.202	238.51
914.732	241.765
917.262	244.09
919.792	240.617
922.321	241.088
924.851	247.539
927.381	237.557
929.911	239.118
932.44	235.091
934.97	237.649
937.5	231.502
940.03	229.662
942.56	235.931
945.089	235.14
947.619	224.39
950.149	218.828
952.679	213.724
955.208	212.143
957.738	202.481
960.268	193.247
962.798	190.372
965.327	181.219
967.857	171.46
970.387	168.281
972.917	172.376
975.446	164.975
977.976	161.609
980.506	161.081
983.036	153.627
985.565	147.881
988.095	150.326
990.625	138.539
993.155	141.015
995.685	132.333
998.214	131.669
1000.74	137.901
1003.27	134.011
1005.8	127.432
1008.33	125.857
1010.86	124.45
1013.39	136.158
1015.92	131.493
1018.45	124.822
1020.98	123.421
1023.51	122.46
1026.04	124.76
1028.57	119.32
1031.1	113.876
1033.63	116.389
1036.16	118.706
1038.69	119.597
1041.22	120.841
1043.75	123.303
1046.28	124.359
1048.81	117.363
1051.34	113.842
1053.87	118.94
1056.4	115.791
1058.93	112.67
1061.46	113.516
1063.99	116.979
1066.52	120.071
1069.05	116.189
1071.58	109.666
1074.11	111.33
1076.64	98.6008
1079.17	104.341
1081.7	114.644
1084.23	113.551
1086.76	105.769
1089.29	102.895
1091.82	106.595
1094.35	104.473
1096.875	107.901
1099.4	111.098
1101.93	109.281
1104.46	105.863
1106.99	103.728
1109.52	101.602
1112.05	102.173
1114.58	116.71
1117.11	105.376
1119.64	105.334
1122.17	104.233
1124.7	104.03
1127.23	107.887
1129.76	111.576
1132.29	110.184
1134.82	112.389
1137.35	107.235
1139.88	108.359
1142.41	107.714
1144.94	108.279
1147.47	107.143
1150	106.823
1152.53	108.183
1155.06	105.611
1157.59	99.8867
1160.12	112.005
1162.65	102.391
1165.18	102.007
1167.71	104.081
1170.24	103.168
1172.77	104.101
1175.3	106.104
1177.83	101.922
1180.36	96.6888
1182.89	97.4294
1185.42	103.51
1187.95	104.517
1190.48	108.722
1193.01	108.274
1195.54	111.651
1198.07	113.48
1200.6	105.166
1203.125	99.9271
1205.65	102.086
1208.18	109.437
1210.71	102.469
1213.24	102.549
1215.77	101.189
1218.3	103.028
1220.83	108.402
1223.36	111.861
1225.89	112.436
1228.42	115.446
1230.95	109.456
1233.48	110.895
1236.01	113.501
1238.54	112.68
1241.07	113.339
1243.6	109.309
1246.13	108.844
1248.66	114.203
1251.19	116.107
1253.72	118.701
1256.25	120.432
1258.78	116.464
1261.31	118.727
1263.84	115.477
1266.37	118.342
1268.9	115.758
1271.43	112.435
1273.96	110.275
1276.49	108.593
1279.02	118.635
1281.55	118.377
1284.08	125.978
1286.61	116.54
1289.14	126.952
1291.67	122.624
1294.2	115.515
1296.73	115.301
1299.26	118.413
1301.79	120.978
1304.32	123.12
1306.85	120
1309.375	120.362
1311.9	129.984
1314.43	127.033
1316.96	129.279
1319.49	125.138
1322.02	130.878
1324.55	136.226
1327.08	133.513
1329.61	130.721
1332.14	131.042
1334.67	133.082
1337.2	146.307
1339.73	138.111
1342.26	148.192
1344.79	143.418
1347.32	144.784
1349.85	144.517
1352.38	146.105
1354.91	147.512
1357.44	142.597
1359.97	137.612
1362.5	141.171
1365.03	146.275
1367.56	141.707
1370.09	147.672
1372.62	148.077
1375.15	141.506
1377.68	140.655
1380.21	137.848
1382.74	135.454
1385.27	137.73
1387.8	135.242
1390.33	126.392
1392.86	137.1
1395.39	140.285
1397.92	138.083
1400.45	134.117
1402.98	134.56
1405.51	133.938
1408.04	131.818
1410.57	134.462
1413.1	133.988
1415.625	130.043
1418.15	129.051
1420.68	132.543
1423.21	148.144
1425.74	139.827
1428.27	137.619
1430.8	131.941
1433.33	135.069
1435.86	139.878
1438.39	137.951
1440.92	140.472
1443.45	140.282
1445.98	135.471
1448.51	136.608
1451.04	140.887
1453.57	136.644
1456.1	139.907
1458.63	127.293
1461.16	138.012
1463.69	134.931
1466.22	135.267
1468.75	135.097
1471.28	137.87
1473.81	140.418
1476.34	141.093
1478.87	142.383
1481.4	141.211
1483.93	135.606
1486.46	138.02
1488.99	151.374
1491.52	139.978
1494.05	145.429
1496.58	146.543
1499.11	141.669
1501.64	136.629
1504.17	136.486
1506.7	135.198
1509.23	134.758
1511.76	141.534
1514.29	147.217
1516.82	142.115
1519.35	139.173
1521.875	147.255
1524.4	141.017
1526.93	141.887
1529.46	141.347
1531.99	148.614
1534.52	152.617
1537.05	150.98
1539.58	147.191
1542.11	144.784
1544.64	144.585
1547.17	151.132
1549.7	155.494
1552.23	152.978
1554.76	153.536
1557.29	158.309
1559.82	158.745
1562.35	162.342
1564.88	151.672
1567.41	146.929
1569.94	155.544
1572.47	163.231
1575	152.175
1577.53	160.708
1580.06	162.754
1582.59	161.511
1585.12	160.505
1587.65	162.096
1590.18	165.388
1592.71	161.97
1595.24	157.602
1597.77	161.411
1600.3	161.816
1602.83	164.2
1605.36	164.526
1607.89	166.031
1610.42	159.31
1612.95	164.956
1615.48	152.941
1618.01	151.6
1620.54	146.1
1623.07	146.348
1625.6	149.149
1628.125	143.929
1630.65	142.457
1633.18	145.002
1635.71	151.13
1638.24	154.017
1640.77	148.202
1643.3	144.852
1645.83	135.102
1648.36	140.528
1650.89	151.004
1653.42	145.367
1655.95	150.646
1658.48	135.488
1661.01	146.01
1663.54	148.392
1666.07	146.842
1668.6	141.92
1671.13	144.85
1673.66	152.08
1676.19	153.578
1678.72	153.034
1681.25	148.78
1683.78	146.646
1686.31	148.045
1688.84	148.073
1691.37	155.869
1693.9	160.06
1696.43	158.068
1698.96	153.003
1701.49	146.175
1704.02	147.95
1706.55	150.777
1709.08	142.206
1711.61	147.43
1714.14	150.585
1716.67	146.925
1719.2	153.689
1721.73	149.491
1724.26	148.491
1726.79	150.592
1729.32	158.34
1731.85	156.677
1734.375	150.401
1736.9	147.144
1739.43	147.819
1741.96	151.602
1744.49	152.84
1747.02	159.835
1749.55	158.832
1752.08	155.609
1754.61	138.871
1757.14	149.251
1759.67	152.017
1762.2	162.527
1764.73	166.367
1767.26	151.751
1769.79	161.75
1772.32	166.809
1774.85	166.734
1777.38	171.514
1779.91	165.109
1782.44	162.028
1784.97	157.6
1787.5	156.367
1790.03	163.3
1792.56	166.471
1795.09	164.334
1797.62	163.396
1800.15	162.146
1802.68	162.24
1805.21	164.111
1807.74	163.417
1810.27	165.322
1812.8	164.088
1815.33	155.71
1817.86	162.468
1820.39	172.914
1822.92	173.979
1825.45	170.287
1827.98	161
1830.51	160.868
1833.04	157.912
1835.57	170.107
1838.1	163.974
1840.625	166.523
1843.15	170.329
1845.68	167.734
1848.21	166.05
1850.74	166.907
1853.27	170.091
1855.8	168.515
1858.33	175.881
1860.86	181.687
1863.39	175.46
1865.92	180.141
1868.45	173.733
1870.98	176.707
1873.51	181.448
1876.04	179.112
1878.57	176.29
1881.1	172.252
1883.63	178.33
1886.16	179.651
1888.69	173.389
1891.22	178.679
1893.75	174.932
1896.28	170.061
1898.81	180.641
1901.34	182.25
1903.87	179.705
1906.4	180.973
1908.93	175.958
1911.46	186.082
1913.99	186.715
1916.52	182.052
1919.05	190.058
1921.58	186.176
1924.11	180.249
1926.64	177.304
1929.17	181.199
1931.7	181.003
1934.23	186.6
1936.76	188.691
1939.29	181.02
1941.82	175.502
1944.35	195.069
1946.875	190.293
1949.4	185.453
1951.93	185.634
1954.46	188.739
1956.99	182.848
1959.52	186.829
1962.05	184.572
1964.58	185.198
1967.11	187.267
1969.64	177.899
1972.17	187.905
1974.7	187.887
1977.23	182.375
1979.76	187.056
1982.29	192.389
1984.82	195.364
1987.35	197.264
1989.88	193.331
1992.41	184.606
1994.94	195.526
1997.47	198.813
2000	196.881
2002.53	194.462
2005.06	192.459
2007.59	196.675
2010.12	195.134
2012.65	196.1
2015.18	201.18
2017.71	195.572
2020.24	193.109
2022.77	202.741
2025.3	205.987
2027.83	208.608
2030.36	213.202
2032.89	208.997
2035.42	208.415
2037.95	206.606
2040.48	199.571
2043.01	203.933
2045.54	202.16
2048.07	199.894
2050.6	207.583
2053.125	198.993
2055.65	198.515
2058.18	202.934
2060.71	208.493
2063.24	207.423
2065.77	211.587
2068.3	210.982
2070.83	208.371
2073.36	208.66
2075.89	208.191
2078.42	209.198
2080.95	213.059
2083.48	217.493
2086.01	211.812
2088.54	214.979
2091.07	214.971
2093.6	215.59
2096.13	212.521
2098.66	214.522
2101.19	217.896
2103.72	216.144
2106.25	214.338
2108.78	217.858
2111.31	219.135
2113.84	215.036
2116.37	220.793
2118.9	224.278
2121.43	226.83
2123.96	224.629
2126.49	226.773
2129.02	230.385
2131.55	223.935
2134.08	222.962
2136.61	230.05
2139.14	233.877
2141.67	229.007
2144.2	229.144
2146.73	227.658
2149.26	229.664
2151.79	227.924
2154.32	222.05
2156.85	222.669
2159.375	224.171
2161.9	229.482
2164.43	233.295
2166.96	238.228
2169.49	243.879
2172.02	238.767
2174.55	233.891
2177.08	234.84
2179.61	238.233
2182.14	235.655
2184.67	230.928
2187.2	231.459
2189.73	237.064
2192.26	237.999
2194.79	244.592
2197.32	237.505
2199.85	236.42
2202.38	237.413
2204.91	237.911
2207.44	243.991
2209.97	240.858
2212.5	236.867
2215.03	244.756
2217.56	243.066
2220.09	247.382
2222.62	251.112
2225.15	247.41
2227.68	245.704
2230.21	245.673
2232.74	248.13
2235.27	251.937
2237.8	251.761
2240.33	246.33
2242.86	258.95
2245.39	264.234
2247.92	261.892
2250.45	253.273
2252.98	263.227
2255.51	254.897
2258.04	262.13
2260.57	268.403
2263.1	270.512
2265.625	263.959
2268.15	261.312
2270.68	267.317
2273.21	256.216
2275.74	268.439
2278.27	270.635
2280.8	268.232
2283.33	273.419
2285.86	276.708
2288.39	274.074
2290.92	270.163
2293.45	269.957
2295.98	278.286
2298.51	276.75
2301.04	274.123
2303.57	273.292
2306.1	275.611
2308.63	279.992
2311.16	275.155
2313.69	277.441
2316.22	279.181
2318.75	279.416
2321.28	275.461
2323.81	283.357
2326.34	283.953
2328.87	283.885
2331.4	295.582
2333.93	309.043
2336.46	311.602
2338.99	301.811
2341.52	287.751
2344.05	277.629
2346.58	283.804
2349.11	295.327
2351.64	294.286
2354.17	294.922
2356.7	294.721
2359.23	291.505
2361.76	286.835
2364.29	292.898
2366.82	300.774
2369.35	295.049
2371.875	290.897
2374.4	294.745
2376.93	297.117
2379.46	297.507
2381.99	299.048
2384.52	305.313
2387.05	305.356
2389.58	302.084
2392.11	306.437
2394.64	309.64
2397.17	310.736
2399.7	308.813
2402.23	304.786
2404.76	313.991
2407.29	318.777
2409.82	318.915
2412.35	321.118
2414.88	309.515
2417.41	313.817
2419.94	320.418
2422.47	324.233
2425	328.206
2427.53	331.954
2430.06	325.035
2432.59	326.934
2435.12	343.104
2437.65	338.88
2440.18	347.561
2442.71	348.763
2445.24	351.631
2447.77	340.946
2450.3	340.524
2452.83	340.459
2455.36	341.575
2457.89	338.298
2460.42	338.742
2462.95	341.993
2465.48	344.161
2468.01	327.846
2470.54	331.32
2473.07	335.018
2475.6	333.187
2478.125	334.725
2480.65	337.457
2483.18	339.39
2485.71	330.899
2488.24	338.489
2490.77	335.014
2493.3	341.431
2495.83	338.214
2498.36	341.727
2500.89	342.203
2503.42	351.454
2505.95	345.113
2508.48	351.97
2511.01	346.363
2513.54	342.771
2516.07	352.068
2518.6	351.365
2521.13	356.539
2523.66	354.067
2526.19	353.379
2528.72	360.375
2531.25	364.744
2533.78	360.32
2536.31	360.861
2538.84	357.957
2541.37	366.978
2543.9	364.366
2546.43	366.191
2548.96	368.538
2551.49	367.716
2554.02	367.501
2556.55	372.062
2559.08	361.675
2561.61	369.766
2564.14	371.233
2566.67	366.91
2569.2	371.204
2571.73	372.197
2574.26	374.067
2576.79	377.147
2579.32	373.012
2581.85	370.051
2584.375	381.956
2586.9	387.467
2589.43	382.549
2591.96	391.085
2594.49	379.727
2597.02	376.731
2599.55	385.214
2602.08	377.823
2604.61	385.734
2607.14	389.054
2609.67	387.762
2612.2	397.91
2614.73	399.258
2617.26	391.269
2619.79	388.909
2622.32	400.002
2624.85	393.24
2627.38	392.908
2629.91	387.179
2632.44	400.687
2634.97	405.115
2637.5	397.896
2640.03	408.062
2642.56	398.975
2645.09	403.141
2647.62	403.725
2650.15	402.888
2652.68	408.027
2655.21	413.76
2657.74	417.335
2660.27	413.488
2662.8	422.702
2665.33	422.122
2667.86	416.333
2670.39	423.019
2672.92	420.948
2675.45	430.084
2677.98	430.351
2680.51	433.005
2683.04	435.967
2685.57	439.067
2688.1	445.127
2690.625	436.683
2693.15	431.438
2695.68	433.996
2698.21	439.968
2700.74	441.446
2703.27	453.967
2705.8	442.104
2708.33	442.284
2710.86	440.182
2713.39	440.968
2715.92	442.411
2718.45	449.166
2720.98	450.593
2723.51	451.751
2726.04	460.253
2728.57	446.288
2731.1	452.877
2733.63	461.917
2736.16	459.757
2738.69	458.046
2741.22	463.262
2743.75	459.365
2746.28	462.539
2748.81	460.531
2751.34	465.382
2753.87	463.315
2756.4	465.475
2758.93	452.929
2761.46	464.613
2763.99	479.168
2766.52	529.628
2769.05	559.408
2771.58	478.258
2774.11	478.505
2776.64	466.107
2779.17	473.993
2781.7	473.251
2784.23	463.594
2786.76	468.854
2789.29	490.86
2791.82	484.997
2794.35	483.724
2796.875	485.993
2799.4	488.606
2801.93	494.403
2804.46	497.994
2806.99	500.942
2809.52	493.909
2812.05	494.109
2814.58	506.277
2817.11	498.986
2819.64	488.419
2822.17	493.507
2824.7	503.15
2827.23	508.169
2829.76	517.214
2832.29	505.71
2834.82	504.694
2837.35	502.06
2839.88	511.262
2842.41	520.066
2844.94	522.552
2847.47	521.349
2850	511.542
2852.53	516.794
2855.06	529.18
2857.59	535.506
2860.12	534.494
2862.65	532.462
2865.18	535.765
2867.71	524.509
2870.24	528.145
2872.77	551.094
2875.3	538.325
2877.83	541.398
2880.36	535.082
2882.89	545.914
2885.42	545.061
2887.95	557.184
2890.48	563.354
2893.01	558.871
2895.54	550.937
2898.07	551.97
2900.6	564.302
2903.125	561.639
2905.65	566.762
2908.18	562.449
2910.71	569.003
2913.24	568.356
2915.77	559.067
2918.3	551.996
2920.83	569.644
2923.36	572.409
2925.89	587.559
2928.42	588.115
2930.95	577.818
2933.48	593.67
2936.01	589.6
2938.54	591.54
2941.07	570.114
2943.6	587.555
2946.13	596.884
2948.66	581.194
2951.19	582.246
2953.72	595.258
2956.25	599.737
2958.78	612.101
2961.31	612.751
2963.84	598.756
2966.37	595.135
2968.9	610.449
2971.43	595.645
2973.96	615.667
2976.49	610.643
2979.02	598.762
2981.55	607.206
2984.08	618.774
2986.61	603.892
2989.14	600.349
2991.67	624.037
2994.2	600.054
2996.73	614.594
2999.26	619.309
3001.79	610.366
3004.32	607.822
3006.85	614.98
3009.375	630.207
3011.9	620.871
3014.43	621.158
3016.96	635.865
3019.49	644.992
3022.02	634.474
3024.55	637.59
3027.08	638.467
3029.61	644.585
3032.14	646.394
3034.67	650.972
3037.2	648.742
3039.73	654.143
3042.26	647.54
3044.79	655.123
3047.32	664.08
3049.85	668.778
3052.38	664.937
3054.91	655.08
3057.44	680.271
3059.97	667.157
3062.5	667.61
3065.03	674.656
3067.56	685.194
3070.09	687.408
3072.62	685.153
3075.15	674.452
3077.68	679.95
3080.21	694.037
3082.74	694.549
3085.27	680.941
3087.8	697.208
3090.33	703.791
3092.86	701.287
3095.39	700.451
3097.92	715.616
3100.45	709.19
3102.98	702.538
3105.51	707.172
3108.04	716.055
3110.57	697.629
3113.1	732.863
3115.625	728.448
3118.15	729.333
3120.68	728.171
3123.21	722.336
3125.74	741.212
3128.27	725.607
3130.8	735.972
3133.33	736.756
3135.86	726.763
3138.39	727.684
3140.92	754.379
3143.45	753.529
3145.98	750.16
3148.51	747.516
3151.04	744.788
3153.57	748.003
3156.1	753.635
3158.63	754.17
3161.16	750.066
3163.69	762.217
3166.22	761.904
3168.75	758.22
3171.28	751.39
3173.81	766.895
3176.34	773.749
3178.87	748.391
3181.4	779.316
3183.93	789.055
3186.46	789.853
3188.99	795.046
3191.52	806.33
3194.05	807.872
3196.58	792.693
3199.11	797.948
3201.64	811.619
3204.17	805.083
3206.7	814.28
3209.23	822.531
3211.76	813.602
3214.29	811.608
3216.82	823.503
3219.35	834.591
3221.875	823.163
3224.4	823.136
3226.93	811.488
3229.46	833.758
3231.99	832.936
3234.52	849.663
3237.05	850.338
3239.58	847.719
3242.11	849.384
3244.64	849.878
3247.17	848.962
3249.7	864.322
3252.23	866.013
3254.76	860.929
3257.29	859.292
3259.82	851.659
3262.35	879.359
3264.88	867.554
3267.41	862.926
3269.94	871.508
3272.47	879.639
3275	900.544
3277.53	858.318
3280.06	872.162
3282.59	880.347
3285.12	897.916
3287.65	877.408
3290.18	874.226
3292.71	900.135
3295.24	905.044
3297.77	903.752
3300.3	905.077
3302.83	899.388
3305.36	915.026
3307.89	908.625
3310.42	928.448
3312.95	911.108
3315.48	919.19
3318.01	917.319
3320.54	926.117
3323.07	928.472
3325.6	930.369
3328.125	944.134
3330.65	934.441
3333.18	932.872
3335.71	943.191
3338.24	945.808
3340.77	942.727
3343.3	937.548
3345.83	935.574
3348.36	932.642
3350.89	934.865
3353.42	967.078
3355.95	938.414
3358.48	961.296
3361.01	949.562
3363.54	966.369
3366.07	973.434
3368.6	976.352
3371.13	970.839
3373.66	989.009
3376.19	987.933
3378.72	983.276
3381.25	996.732
3383.78	990.674
3386.31	999.903
3388.84	992.568
3391.37	1000.34
3393.9	1000.35
3396.43	990.49
3398.96	1002.6
3401.49	1010.41
3404.02	1008.72
3406.55	1014.36
3409.08	1046.02
3411.61	1024.32
3414.14	1030.13
3416.67	1026.43
3419.2	1032.53
3421.73	1024.96
3424.26	1044.93
3426.79	1044.7
3429.32	1021.14
3431.85	1034.52
3434.375	1039.73
3436.9	1049.56
3439.43	1078.59
3441.96	1080.29
3444.49	1078.5
3447.02	1061.72
3449.55	1061.2
3452.08	1066.83
3454.61	1102.02
3457.14	1078.97
3459.67	1079.18
3462.2	1091.35
3464.73	1093.17
3467.26	1086.94
3469.79	1090
3472.32	1102.57
3474.85	1104.6
3477.38	1107.47
3479.91	1112.87
3482.44	1107.73
3484.97	1113.75
3487.5	1084.79
3490.03	1130.68
3492.56	1126.68
3495.09	1150.74
3497.62	1133.51
3500.15	1126.26
3502.68	1141.62
3505.21	1141.44
3507.74	1136.73
3510.27	1152.5
3512.8	1147.27
3515.33	1155.16
3517.86	1128.8
3520.39	1144.87
3522.92	1143.53
3525.45	1165.51
3527.98	1158.48
3530.51	1180.87
3533.04	1172.3
3535.57	1175.38
3538.1	1188.62
3540.625	1173.03
3543.15	1173.94
3545.68	1174.31
3548.21	1196.61
3550.74	1182.24
3553.27	1179.8
3555.8	1201.35
3558.33	1207.15
3560.86	1224.56
3563.39	1202.63
3565.92	1220.13
3568.45	1232.08
3570.98	1244.49
3573.51	1222.94
3576.04	1236.34
3578.57	1247.27
3581.1	1245.73
3583.63	1236.61
3586.16	1237.54
3588.69	1280.4
3591.22	1244.25
3593.75	1260.93
3596.28	1259.19
3598.81	1280.08
3601.34	1276.05
3603.87	1253.02
3606.4	1252.41
3608.93	1284.03
3611.46	1303.07
3613.99	1273.04
3616.52	1293.12
3619.05	1296.96
3621.58	1310.92
3624.11	1295.49
3626.64	1327.29
3629.17	1310
3631.7	1327.93
3634.23	1302.78
3636.76	1309.67
3639.29	1332.2
3641.82	1321.66
3644.35	1295.55
3646.875	1318.83
3649.4	1328.71
3651.93	1337.65
3654.46	1352.07
3656.99	1333.41
3659.52	1350.1
3662.05	1356.07
3664.58	1364.36
3667.11	1339.98
3669.64	1371.1
3672.17	1343.75
3674.7	1365.42
3677.23	1372.43
3679.76	1381.69
3682.29	1372.8
3684.82	1361.55
3687.35	1377.12
3689.88	1378.36
3692.41	1392.31
3694.94	1395.13
3697.47	1404.27
3700	1407.2