File: Example Data/Raman/Kara/12-20-10/Si-Graphene/4bulk/SGbulk_1.txt
400	219.645
402.515	215.227
405.03	221.759
407.546	240.91
410.061	242.696
412.576	249.875
415.091	264.59
417.607	279.177
420.122	286.436
422.637	295.379
425.152	310.382
427.668	308.328
430.183	311.028
432.698	326.141
435.213	328.585
437.729	335.885
440.244	331.984
442.759	336.241
445.274	350.275
447.79	362.716
450.305	361.737
452.82	364.406
455.335	378.338
457.851	397.954
460.366	413.912
462.881	416.69
465.396	436.572
467.912	462.349
470.427	480.502
472.942	495.034
475.457	522.507
477.973	547.715
480.488	594.679
483.003	644.265
485.518	691.153
488.034	734.636
490.549	775.451
493.064	868.494
495.579	990.586
498.095	1121.17
500.61	1265.55
503.125	1444.16
505.64	1630.19
508.155	1688.02
510.671	1598.72
513.186	1396.14
515.701	1134.07
518.216	868.055
520.732	676.985
523.247	532.32
525.762	440.049
528.277	378.922
530.793	323.465
533.308	293.163
535.823	261.029
538.338	243.666
540.854	229.036
543.369	215.397
545.884	211.913
548.399	190.138
550.915	185.446
553.43	185.119
555.945	183.755
558.46	177.722
560.976	164.059
563.491	169.346
566.006	171.857
568.521	170.84
571.037	166.979
573.552	164.03
576.067	172.308
578.582	170.684
581.098	169.824
583.613	172.054
586.128	174.717
588.643	174.936
591.159	181.902
593.674	176.551
596.189	184.746
598.704	186.169
601.219	180.493
603.735	184.484
606.25	187.14
608.765	183.052
611.281	172.309
613.796	167.906
616.311	172.269
618.826	176.092
621.341	181.583
623.857	171.717
626.372	167.886
628.887	168.526
631.402	169.222
633.918	168.097
636.433	169.263
638.948	167.194
641.463	171.979
643.979	170.956
646.494	165.719
649.009	173.151
651.524	165.638
654.04	169.993
656.555	168.684
659.07	165.576
661.585	162.668
664.101	158.05
666.616	164.572
669.131	156.88
671.646	156.691
674.162	159.174
676.677	158.384
679.192	153.025
681.707	150.009
684.223	158.064
686.738	155.583
689.253	152.418
691.768	150.374
694.284	146.214
696.799	147.556
699.314	147.762
701.829	148.842
704.344	150.284
706.86	152.591
709.375	155.434
711.89	155.387
714.406	139.91
716.921	149.546
719.436	153.502
721.951	151.598
724.466	149.597
726.982	146.108
729.497	147.624
732.012	154.948
734.527	156.813
737.043	155.969
739.558	156.605
742.073	158.84
744.588	151.92
747.104	161.094
749.619	168.591
752.134	167.945
754.649	163.859
757.165	162.325
759.68	160.566
762.195	171.558
764.71	165.147
767.226	159.853
769.741	160.914
772.256	164.697
774.771	165.215
777.287	171.821
779.802	164.533
782.317	171.123
784.832	176.096
787.348	175.172
789.863	173.292
792.378	174.978
794.893	165.473
797.409	168.905
799.924	175.041
802.439	179.328
804.954	179.327
807.469	176.213
809.985	180.126
812.5	183.537
815.015	179.818
817.531	180.049
820.046	182.696
822.561	183.182
825.076	181.325
827.591	182.518
830.107	183.076
832.622	179.842
835.137	180.491
837.652	183.351
840.168	184.245
842.683	185.431
845.198	188.844
847.713	196.241
850.229	194.808
852.744	185.115
855.259	181.727
857.774	192.716
860.29	196.684
862.805	194.119
865.32	199.046
867.835	198.863
870.351	195.201
872.866	199.453
875.381	210.701
877.896	192.655
880.412	205.172
882.927	208.142
885.442	210.168
887.957	214.521
890.473	217.697
892.988	219.261
895.503	233.031
898.018	224.269
900.534	230.745
903.049	235.41
905.564	236.8
908.079	239.535
910.594	248.479
913.11	262.925
915.625	261.72
918.14	255.862
920.656	260.311
923.171	259.218
925.686	253.161
928.201	249.669
930.716	246.819
933.232	251.131
935.747	247.356
938.262	242.501
940.777	250.454
943.293	250.782
945.808	238.295
948.323	237.773
950.838	236.217
953.354	229.015
955.869	216.999
958.384	215.608
960.899	213.64
963.415	206.844
965.93	200.639
968.445	191.715
970.96	190.156
973.476	177.516
975.991	174
978.506	172.561
981.021	167.385
983.537	162.444
986.052	164.61
988.567	152.809
991.082	156.354
993.598	152.382
996.113	154.734
998.628	158.244
1001.14	154.457
1003.66	143.81
1006.17	139.201
1008.69	151.899
1011.2	147.785
1013.72	143.745
1016.23	141.959
1018.75	140.335
1021.27	138.073
1023.78	137.722
1026.3	142.158
1028.81	136.401
1031.33	147.054
1033.84	146.667
1036.36	149.335
1038.87	150.436
1041.39	145.945
1043.9	146.303
1046.42	149.065
1048.93	143.644
1051.45	143.771
1053.96	139.353
1056.48	139.402
1058.99	139.98
1061.51	136.17
1064.02	135.691
1066.54	148.579
1069.05	132.457
1071.57	140.535
1074.09	143.4
1076.6	138.1
1079.12	136.658
1081.63	138.323
1084.15	129.784
1086.66	126.019
1089.18	134.978
1091.69	132.766
1094.21	135.522
1096.72	135.307
1099.24	130.398
1101.75	129.222
1104.27	135.337
1106.78	131.389
1109.3	126.633
1111.81	133.266
1114.33	128.564
1116.84	127.639
1119.36	126.963
1121.875	124.982
1124.39	125.926
1126.91	129.694
1129.42	127.638
1131.94	130.817
1134.45	128.403
1136.97	127.468
1139.48	125.66
1142	133.952
1144.51	142.631
1147.03	131.427
1149.54	125.228
1152.06	127.706
1154.57	127.118
1157.09	128.916
1159.6	137.321
1162.12	137.421
1164.63	133.158
1167.15	133.851
1169.66	137.065
1172.18	146.433
1174.7	134.366
1177.21	131.106
1179.73	126.141
1182.24	126.465
1184.76	128.891
1187.27	135.154
1189.79	140.387
1192.3	133.052
1194.82	136.127
1197.33	131.501
1199.85	133.198
1202.36	131.142
1204.88	128.606
1207.39	133.954
1209.91	138.222
1212.42	133.421
1214.94	130.502
1217.45	136.935
1219.97	131.044
1222.48	144.313
1225	137.771
1227.52	136.98
1230.03	134.352
1232.55	132.198
1235.06	134.443
1237.58	136.102
1240.09	138.99
1242.61	153.324
1245.12	140.443
1247.64	144.566
1250.15	139.507
1252.67	141.762
1255.18	144.435
1257.7	143.854
1260.21	144.435
1262.73	143.519
1265.24	141.683
1267.76	147.965
1270.27	145.608
1272.79	137.274
1275.3	147.081
1277.82	142.226
1280.34	138.066
1282.85	145.239
1285.37	148.813
1287.88	151.096
1290.4	154.38
1292.91	163.92
1295.43	147.803
1297.94	146.512
1300.46	152.255
1302.97	152.099
1305.49	151.362
1308	151.971
1310.52	151.958
1313.03	158.694
1315.55	161.686
1318.06	154.822
1320.58	163.86
1323.09	166.288
1325.61	167.825
1328.125	164.424
1330.64	163.165
1333.16	164.8
1335.67	162.058
1338.19	155.843
1340.7	159.682
1343.22	183.249
1345.73	173.101
1348.25	172.53
1350.76	168.501
1353.28	175.94
1355.79	184.165
1358.31	178.283
1360.82	166.703
1363.34	166.811
1365.85	173.928
1368.37	175.877
1370.88	170.243
1373.4	175.612
1375.91	168.9
1378.43	175.991
1380.95	176.375
1383.46	170.278
1385.98	165.249
1388.49	167.065
1391.01	173.091
1393.52	172.617
1396.04	170.973
1398.55	162.996
1401.07	162.266
1403.58	169.831
1406.1	169.47
1408.61	165.787
1411.13	166.358
1413.64	170.213
1416.16	165.811
1418.67	157.5
1421.19	165.051
1423.7	174.918
1426.22	173.953
1428.73	166.086
1431.25	160.506
1433.77	166.181
1436.28	167.086
1438.8	168.941
1441.31	171.401
1443.83	168.977
1446.34	165.683
1448.86	167.571
1451.37	169.443
1453.89	169.732
1456.4	170.63
1458.92	171.181
1461.43	178.117
1463.95	173.52
1466.46	176.116
1468.98	179.147
1471.49	176.164
1474.01	171.748
1476.52	172.222
1479.04	175.07
1481.55	174.062
1484.07	173.471
1486.59	181.959
1489.1	183.614
1491.62	184.905
1494.13	178.506
1496.65	172.893
1499.16	181.818
1501.68	177.23
1504.19	171.8
1506.71	179.323
1509.22	183.856
1511.74	176.844
1514.25	174.849
1516.77	175.369
1519.28	176.511
1521.8	169.932
1524.31	176.596
1526.83	185.18
1529.34	184.648
1531.86	180.153
1534.375	182.368
1536.89	176.788
1539.41	175.938
1541.92	183.45
1544.44	183.603
1546.95	177.315
1549.47	181.753
1551.98	194.997
1554.5	185.341
1557.01	196.991
1559.53	194.759
1562.04	192.354
1564.56	181.048
1567.07	190.511
1569.59	193.366
1572.1	195.566
1574.62	197.179
1577.13	195.071
1579.65	195.26
1582.16	199.477
1584.68	197.71
1587.2	189.691
1589.71	204.509
1592.23	201.81
1594.74	193.78
1597.26	196.704
1599.77	198.526
1602.29	200.365
1604.8	201.087
1607.32	201.07
1609.83	202.763
1612.35	206.512
1614.86	206.043
1617.38	203.354
1619.89	200.544
1622.41	193.146
1624.92	192.215
1627.44	188.538
1629.95	186.1
1632.47	202.893
1634.98	197.827
1637.5	194.909
1640.02	195.603
1642.53	190.529
1645.05	188
1647.56	187.077
1650.08	188.583
1652.59	190.335
1655.11	190.325
1657.62	186.969
1660.14	180.569
1662.65	179.132
1665.17	186.434
1667.68	186.59
1670.2	182.428
1672.71	190.373
1675.23	181.768
1677.74	179.127
1680.26	185.288
1682.77	194.423
1685.29	187.82
1687.8	185.308
1690.32	188.579
1692.84	192.808
1695.35	197.344
1697.87	197.757
1700.38	196.641
1702.9	196.996
1705.41	190.724
1707.93	184.897
1710.44	197.615
1712.96	201.947
1715.47	197.497
1717.99	187.542
1720.5	193.482
1723.02	200.879
1725.53	193.161
1728.05	194.895
1730.56	199.361
1733.08	202.39
1735.59	196.997
1738.11	203.947
1740.625	206.3
1743.14	202.98
1745.66	202.685
1748.17	209.741
1750.69	209.765
1753.2	201.722
1755.72	197.478
1758.23	196.003
1760.75	207.305
1763.26	198.483
1765.78	210.144
1768.29	211.845
1770.81	210.885
1773.32	214.713
1775.84	200.58
1778.35	212.469
1780.87	207.205
1783.38	214.64
1785.9	205.204
1788.41	207.07
1790.93	215.982
1793.45	210.333
1795.96	200.26
1798.48	207.149
1800.99	209.313
1803.51	211.87
1806.02	211.975
1808.54	210.651
1811.05	216.637
1813.57	208.866
1816.08	206.893
1818.6	210.735
1821.11	218.336
1823.63	212.374
1826.14	212.501
1828.66	209.227
1831.17	220.72
1833.69	219.339
1836.2	216.259
1838.72	206.388
1841.23	209.97
1843.75	223.784
1846.27	219.806
1848.78	223.856
1851.3	222.768
1853.81	221.131
1856.33	223.004
1858.84	224.654
1861.36	221.781
1863.87	221.553
1866.39	223.35
1868.9	226.069
1871.42	231.189
1873.93	231.528
1876.45	225.339
1878.96	226.732
1881.48	234.579
1883.99	233.036
1886.51	231.687
1889.02	231.736
1891.54	231.459
1894.05	234.805
1896.57	225.807
1899.09	230.736
1901.6	228.938
1904.12	229.242
1906.63	239.2
1909.15	221.547
1911.66	231.451
1914.18	239.253
1916.69	222.88
1919.21	239.255
1921.72	234.736
1924.24	234.646
1926.75	240.044
1929.27	242.31
1931.78	238.001
1934.3	238.673
1936.81	228.109
1939.33	238.901
1941.84	239.555
1944.36	237.68
1946.875	239.384
1949.39	240.236
1951.91	243.803
1954.42	244.769
1956.94	239.548
1959.45	237.593
1961.97	242.431
1964.48	242.648
1967	244.375
1969.51	251.509
1972.03	245.214
1974.54	243.003
1977.06	251.355
1979.57	246.902
1982.09	250.7
1984.6	251.255
1987.12	250.397
1989.63	260.115
1992.15	255.287
1994.66	246.11
1997.18	228.258
1999.7	251.856
2002.21	261.132
2004.73	254.615
2007.24	261.813
2009.76	251.557
2012.27	260.99
2014.79	257.28
2017.3	263.068
2019.82	258.231
2022.33	272.55
2024.85	263.335
2027.36	258.015
2029.88	265.472
2032.39	264.824
2034.91	259.637
2037.42	275.799
2039.94	253.93
2042.45	264.674
2044.97	272.135
2047.48	273.514
2050	276.597
2052.52	278.566
2055.03	276.738
2057.55	266.047
2060.06	271.409
2062.58	263.359
2065.09	271.384
2067.61	272.306
2070.12	282.401
2072.64	276.928
2075.15	270.417
2077.67	273.382
2080.18	278.435
2082.7	275.955
2085.21	270.589
2087.73	275.014
2090.24	268.217
2092.76	267.248
2095.27	267.513
2097.79	273.824
2100.3	269.251
2102.82	275.354
2105.34	279.811
2107.85	281.996
2110.37	278.247
2112.88	278.881
2115.4	290.677
2117.91	296.705
2120.43	289.893
2122.94	300.715
2125.46	288.864
2127.97	283.105
2130.49	285.281
2133	293.238
2135.52	295.045
2138.03	300.413
2140.55	301.948
2143.06	294.314
2145.58	298.444
2148.09	297.485
2150.61	297.148
2153.125	297.686
2155.64	297.886
2158.16	298.069
2160.67	306.247
2163.19	299.343
2165.7	299.957
2168.22	306.305
2170.73	306.209
2173.25	305.581
2175.76	302.795
2178.28	306.505
2180.79	301.892
2183.31	311.689
2185.82	312.031
2188.34	312.891
2190.85	304.995
2193.37	308.419
2195.88	316.549
2198.4	328.201
2200.91	323.407
2203.43	318.342
2205.95	314.479
2208.46	313.892
2210.98	305.725
2213.49	326.002
2216.01	317.846
2218.52	312.54
2221.04	319.342
2223.55	312.259
2226.07	320.523
2228.58	318.361
2231.1	327.406
2233.61	316.332
2236.13	319.111
2238.64	318.88
2241.16	330.536
2243.67	336.532
2246.19	323.048
2248.7	324.357
2251.22	327.765
2253.73	322.935
2256.25	334.789
2258.77	336.7
2261.28	334.401
2263.8	343.898
2266.31	339.229
2268.83	343.461
2271.34	348.655
2273.86	343.425
2276.37	349.608
2278.89	350.37
2281.4	340.506
2283.92	354.718
2286.43	351.897
2288.95	351.542
2291.46	359.753
2293.98	358.63
2296.49	357.948
2299.01	357.483
2301.52	358.527
2304.04	356.912
2306.55	359.011
2309.07	368.234
2311.59	372.882
2314.1	361.831
2316.62	353.434
2319.13	367.352
2321.65	367.87
2324.16	366.292
2326.68	373.32
2329.19	371.096
2331.71	377.892
2334.22	386.168
2336.74	380.337
2339.25	383.737
2341.77	377.61
2344.28	369.374
2346.8	378.207
2349.31	373.352
2351.83	383.769
2354.34	380.646
2356.86	379.022
2359.375	371.398
2361.89	372.759
2364.41	372.351
2366.92	389.289
2369.44	384.929
2371.95	389.967
2374.47	378.125
2376.98	391.882
2379.5	389.617
2382.01	388.23
2384.53	386.791
2387.04	389.631
2389.56	392.441
2392.07	391.686
2394.59	396.994
2397.1	396.564
2399.62	396.25
2402.13	400.75
2404.65	391.527
2407.16	398.815
2409.68	400.42
2412.2	399.521
2414.71	410.023
2417.23	420.443
2419.74	413.89
2422.26	406.459
2424.77	419.913
2427.29	424.973
2429.8	422.072
2432.32	425.533
2434.83	427.909
2437.35	430.5
2439.86	434.68
2442.38	438.661
2444.89	446.415
2447.41	452.851
2449.92	431.655
2452.44	442.938
2454.95	436.791
2457.47	447.035
2459.98	438.577
2462.5	440.54
2465.02	436.127
2467.53	441.681
2470.05	442.741
2472.56	448.268
2475.08	443.921
2477.59	438.717
2480.11	443.604
2482.62	448.911
2485.14	527.223
2487.65	641.524
2490.17	489.195
2492.68	446.289
2495.2	449.409
2497.71	449.573
2500.23	449.838
2502.74	434.437
2505.26	438.426
2507.77	437.267
2510.29	451.547
2512.8	451.068
2515.32	457.011
2517.84	454.782
2520.35	453.398
2522.87	462.456
2525.38	467.936
2527.9	465.822
2530.41	465.798
2532.93	465.481
2535.44	464.141
2537.96	468.406
2540.47	466.021
2542.99	468.927
2545.5	471.568
2548.02	459.353
2550.53	463.814
2553.05	477.373
2555.56	469.776
2558.08	481.488
2560.59	483.383
2563.11	486.369
2565.625	484.008
2568.14	487.822
2570.66	489.418
2573.17	493.157
2575.69	488.786
2578.2	494.517
2580.72	487.351
2583.23	485.825
2585.75	485.938
2588.26	495.401
2590.78	486.928
2593.29	495.055
2595.81	504.75
2598.32	502.014
2600.84	496.744
2603.35	500.668
2605.87	504.233
2608.38	512.671
2610.9	503.499
2613.41	500.977
2615.93	499.247
2618.45	510.093
2620.96	496.031
2623.48	510.919
2625.99	503.583
2628.51	507.978
2631.02	517.682
2633.54	515.871
2636.05	513.43
2638.57	515.76
2641.08	517.582
2643.6	517.137
2646.11	523.147
2648.63	527.21
2651.14	525.568
2653.66	525.43
2656.17	525.098
2658.69	525.051
2661.2	523.225
2663.72	537.672
2666.23	540.047
2668.75	538.229
2671.27	540.958
2673.78	544.331
2676.3	547.775
2678.81	531.718
2681.33	535.522
2683.84	538.095
2686.36	552.9
2688.87	552.851
2691.39	559.255
2693.9	549.843
2696.42	561.11
2698.93	554.007
2701.45	564.758
2703.96	558.789
2706.48	568.781
2708.99	564.794
2711.51	568.128
2714.02	567.307
2716.54	573.534
2719.05	574.01
2721.57	575.441
2724.09	578.134
2726.6	577.956
2729.12	575.495
2731.63	581.113
2734.15	577.226
2736.66	586.854
2739.18	593.11
2741.69	582.782
2744.21	576.165
2746.72	583.756
2749.24	584.189
2751.75	586.188
2754.27	585.37
2756.78	595.476
2759.3	586.491
2761.81	597.221
2764.33	591.556
2766.84	580.684
2769.36	592.499
2771.875	588.476
2774.39	596.336
2776.91	605.753
2779.42	607.246
2781.94	602.249
2784.45	601.739
2786.97	612.275
2789.48	606.721
2792	612.376
2794.51	614.139
2797.03	612.789
2799.54	617.48
2802.06	620.692
2804.57	614.237
2807.09	629.414
2809.6	628.457
2812.12	620.18
2814.63	618.026
2817.15	625.377
2819.66	633.491
2822.18	638.746
2824.7	634.31
2827.21	638.968
2829.73	641.91
2832.24	642.031
2834.76	629.1
2837.27	641.71
2839.79	638.845
2842.3	633.458
2844.82	648.524
2847.33	654.359
2849.85	651.581
2852.36	657.711
2854.88	667.384
2857.39	660.698
2859.91	648.805
2862.42	658.639
2864.94	659.512
2867.45	663.828
2869.97	661.676
2872.48	671.695
2875	683.531
2877.52	669.686
2880.03	674.237
2882.55	664.48
2885.06	683.129
2887.58	692.133
2890.09	676.439
2892.61	683.357
2895.12	688.377
2897.64	699.218
2900.15	686.34
2902.67	696.142
2905.18	699.653
2907.7	698.75
2910.21	700.428
2912.73	712.311
2915.24	715.896
2917.76	709.663
2920.27	708.891
2922.79	714.732
2925.3	719.987
2927.82	721.056
2930.34	717.793
2932.85	735.585
2935.37	719.835
2937.88	732.232
2940.4	721.291
2942.91	731.792
2945.43	733.25
2947.94	735.266
2950.46	741.589
2952.97	744.064
2955.49	741.381
2958	757.398
2960.52	742.321
2963.03	731.886
2965.55	741.055
2968.06	752.406
2970.58	755.049
2973.09	744.386
2975.61	748.011
2978.125	751.961
2980.64	743.655
2983.16	753.669
2985.67	759.883
2988.19	757.422
2990.7	764.377
2993.22	759.232
2995.73	763.311
2998.25	762.957
3000.76	744.038
3003.28	758.901
3005.79	762.298
3008.31	766.058
3010.82	766.038
3013.34	767.555
3015.85	768.081
3018.37	780.79
3020.88	764.805
3023.4	776.827
3025.91	806.215
3028.43	784.947
3030.95	797.485
3033.46	798.728
3035.98	797.947
3038.49	788.429
3041.01	793.817
3043.52	817.63
3046.04	800.031
3048.55	822.497
3051.07	833.289
3053.58	826.798
3056.1	823.657
3058.61	835.736
3061.13	836.789
3063.64	829.085
3066.16	838.23
3068.67	827.389
3071.19	844.607
3073.7	834.366
3076.22	838.419
3078.73	852.736
3081.25	850.571
3083.77	843.606
3086.28	857.426
3088.8	848.569
3091.31	862.692
3093.83	869.087
3096.34	847.293
3098.86	865.187
3101.37	879.937
3103.89	875.148
3106.4	867.646
3108.92	861.012
3111.43	868.226
3113.95	853.879
3116.46	874.254
3118.98	876.674
3121.49	880.458
3124.01	891.184
3126.52	891.126
3129.04	889.211
3131.55	893.76
3134.07	886.099
3136.59	903.911
3139.1	898.976
3141.62	904.343
3144.13	905.986
3146.65	900.683
3149.16	922.891
3151.68	916.648
3154.19	908.799
3156.71	911.238
3159.22	927.606
3161.74	911.944
3164.25	913.677
3166.77	916.297
3169.28	915.486
3171.8	915.12
3174.31	926.796
3176.83	937.12
3179.34	946.728
3181.86	936.184
3184.375	961.708
3186.89	955.67
3189.41	948.316
3191.92	951.922
3194.44	948.739
3196.95	958.964
3199.47	969.374
3201.98	965.591
3204.5	977.063
3207.01	969.943
3209.53	971.681
3212.04	989.743
3214.56	981.602
3217.07	985.858
3219.59	990.187
3222.1	997.602
3224.62	1005.09
3227.13	1013.99
3229.65	1011.55
3232.16	1013.18
3234.68	1014.97
3237.2	1004.25
3239.71	1007.97
3242.23	998.545
3244.74	999.846
3247.26	1033.84
3249.77	1037.73
3252.29	1040.81
3254.8	1029.8
3257.32	1030.48
3259.83	1042.45
3262.35	1041.35
3264.86	1044.79
3267.38	1053.41
3269.89	1043.85
3272.41	1055.05
3274.92	1052.55
3277.44	1051.71
3279.95	1067.47
3282.47	1059.93
3284.98	1068.4
3287.5	1057.01
3290.02	1076.51
3292.53	1080.26
3295.05	1076.46
3297.56	1086.86
3300.08	1073.01
3302.59	1092.48
3305.11	1098.13
3307.62	1104.22
3310.14	1109.09
3312.65	1106.09
3315.17	1115.04
3317.68	1101.44
3320.2	1097.59
3322.71	1100.16
3325.23	1108.65
3327.74	1136.01
3330.26	1123.42
3332.77	1121.28
3335.29	1119.19
3337.8	1132.17
3340.32	1128.29
3342.84	1119.24
3345.35	1145.74
3347.87	1125.12
3350.38	1116.18
3352.9	1120.93
3355.41	1137.74
3357.93	1146.57
3360.44	1149.35
3362.96	1170.44
3365.47	1150.99
3367.99	1146.19
3370.5	1156.79
3373.02	1163.57
3375.53	1165.69
3378.05	1187.31
3380.56	1188.93
3383.08	1170.36
3385.59	1180.82
3388.11	1196.21
3390.625	1182.69
3393.14	1190.04
3395.66	1195.64
3398.17	1212.86
3400.69	1201.38
3403.2	1186.39
3405.72	1204.3
3408.23	1220.45
3410.75	1235.54
3413.26	1222.41
3415.78	1206.67
3418.29	1243.34
3420.81	1234.15
3423.32	1229.74
3425.84	1231.91
3428.35	1236.93
3430.87	1235.15
3433.38	1244.47
3435.9	1244.82
3438.41	1265.3
3440.93	1267.13
3443.45	1269.19
3445.96	1263.7
3448.48	1276.35
3450.99	1281.18
3453.51	1271.88
3456.02	1284.47
3458.54	1277.1
3461.05	1286.6
3463.57	1280.72
3466.08	1299.72
3468.6	1298.75
3471.11	1308
3473.63	1301.69
3476.14	1335.05
3478.66	1334.88
3481.17	1329.76
3483.69	1330.23
3486.2	1329.95
3488.72	1333.73
3491.23	1329
3493.75	1344.88
3496.27	1333.77
3498.78	1323.34
3501.3	1345.96
3503.81	1353.55
3506.33	1344.06
3508.84	1329.93
3511.36	1342.06
3513.87	1363
3516.39	1350.28
3518.9	1348.81
3521.42	1373.21
3523.93	1377.65
3526.45	1369.44
3528.96	1378.05
3531.48	1379.67
3533.99	1405.53
3536.51	1410.24
3539.02	1403.53
3541.54	1407.13
3544.05	1395.99
3546.57	1410.95
3549.09	1436.55
3551.6	1398.11
3554.12	1408.73
3556.63	1408.9
3559.15	1427.38
3561.66	1440.25
3564.18	1446.23
3566.69	1430.7
3569.21	1441.99
3571.72	1452.69
3574.24	1454.45
3576.75	1448.34
3579.27	1463.35
3581.78	1471.54
3584.3	1463.05
3586.81	1465.82
3589.33	1480.42
3591.84	1488.33
3594.36	1481.24
3596.875	1502.57
3599.39	1496.22
3601.91	1516.72
3604.42	1488.97
3606.94	1500.71
3609.45	1504.23
3611.97	1527.8
3614.48	1527.47
3617	1521
3619.51	1528.67
3622.03	1515.81
3624.54	1531.51
3627.06	1535.06
3629.57	1554.35
3632.09	1526.54
3634.6	1509.93
3637.12	1564.98
3639.63	1575.07
3642.15	1558.26
3644.66	1566.2
3647.18	1577.53
3649.7	1563.17
3652.21	1557.38
3654.73	1570.29
3657.24	1589.18
3659.76	1590.11
3662.27	1580.7
3664.79	1587.09
3667.3	1580.15
3669.82	1579.3
3672.33	1589.13
3674.85	1586.81
3677.36	1603.31
3679.88	1609.93
3682.39	1637.09
3684.91	1631.96
3687.42	1604.51
3689.94	1629.13
3692.45	1644.9
3694.97	1651.58
3697.48	1628.81
3700	1646.25