File: Example Data/Raman/CNT - TIM/Raytheon/Silicon - Ola/05-13-10/Si - Low Pressure - 10 min.txt
300	219.47
301.529	210
303.058	219.719
304.586	204.925
306.115	221.967
307.644	211.953
309.173	206.276
310.701	219.677
312.23	213.449
313.759	205.413
315.288	202.346
316.817	206.31
318.345	218.285
319.874	204.8
321.403	205.161
322.932	209.928
324.46	203.984
325.989	211.355
327.518	217.169
329.047	209.082
330.576	204.843
332.104	199.512
333.633	211.644
335.162	203.302
336.691	203.596
338.219	213.137
339.748	198.727
341.277	185.209
342.806	216.899
344.335	204.187
345.863	210.55
347.392	195.015
348.921	192.262
350.45	189.977
351.978	194.341
353.507	203.876
355.036	189.654
356.565	194.077
358.094	191.666
359.622	195.003
361.151	179.885
362.68	195.759
364.209	177.234
365.737	183.332
367.266	179.715
368.795	182
370.324	171.2
371.853	183.691
373.381	185.573
374.91	182.388
376.439	175.625
377.968	182.792
379.496	170.906
381.025	190.233
382.554	174.393
384.083	171.07
385.612	180.078
387.14	178.481
388.669	175.484
390.198	184.959
391.727	170.723
393.255	169.744
394.784	171.524
396.313	172.055
397.842	181.615
399.371	162.353
400.899	165.98
402.428	161.242
403.957	175.601
405.486	173.476
407.014	179.327
408.543	158.243
410.072	166.17
411.601	172.782
413.129	160.802
414.658	169.721
416.187	165.892
417.716	160.843
419.245	165.612
420.773	169.606
422.302	156.957
423.831	152.359
425.36	157.885
426.888	166.049
428.417	169.087
429.946	179.219
431.475	162.317
433.004	152.361
434.532	155.783
436.061	166.019
437.59	159.764
439.119	156.331
440.647	168.518
442.176	163.357
443.705	165.11
445.234	154.816
446.763	158.463
448.291	155.08
449.82	164.71
451.349	161.345
452.878	147.443
454.406	153.878
455.935	152.465
457.464	162.349
458.993	149.277
460.522	161.24
462.05	155.347
463.579	156.678
465.108	152.2
466.637	153.321
468.165	155.005
469.694	156.983
471.223	139.568
472.752	160.47
474.281	151.586
475.809	162.856
477.338	157.111
478.867	155.933
480.396	150.358
481.924	165.882
483.453	155.275
484.982	147.166
486.511	147.044
488.04	148.571
489.568	158.196
491.097	144.417
492.626	157.416
494.155	142.704
495.683	129.547
497.212	146.339
498.741	150.561
500.27	143.013
501.799	149.362
503.327	139.253
504.856	144.979
506.385	137.473
507.914	136.788
509.442	142.808
510.971	137.058
512.5	147.955
514.029	134.979
515.558	152.113
517.086	156.115
518.615	137.533
520.144	145.589
521.673	137.822
523.201	139.905
524.73	140.201
526.259	154.471
527.788	152.826
529.317	143.714
530.845	149.312
532.374	146.098
533.903	139.931
535.432	144.89
536.96	148.555
538.489	131.597
540.018	137.02
541.547	140.407
543.076	143.762
544.604	138.568
546.133	138.351
547.662	136.071
549.191	140.246
550.719	150.639
552.248	142.987
553.777	140.382
555.306	135.324
556.835	131.702
558.363	140.571
559.892	143.984
561.421	146.199
562.95	146.333
564.478	148.277
566.007	141.234
567.536	144.202
569.065	152.783
570.594	136.403
572.122	149.229
573.651	144.951
575.18	136
576.709	143.738
578.237	137.025
579.766	148.174
581.295	140.788
582.824	147.239
584.353	140.371
585.881	140.218
587.41	144.399
588.939	157.101
590.468	146.559
591.996	151.791
593.525	147.357
595.054	155.21
596.583	158.759
598.112	149.31
599.64	148.949
601.169	153.527
602.698	146.393
604.227	143.24
605.755	156.936
607.284	145.28
608.813	144.054
610.342	147.62
611.87	142.741
613.399	149.372
614.928	130.789
616.457	142.894
617.986	155.586
619.514	153.072
621.043	153.127
622.572	139.077
624.101	145.928
625.63	155.156
627.158	153.097
628.687	152.211
630.216	145.98
631.745	150.421
633.273	152
634.802	158.463
636.331	152.183
637.86	153.398
639.388	157.266
640.917	157.087
642.446	140.343
643.975	151.334
645.504	154.822
647.032	155.365
648.561	158.257
650.09	160.136
651.619	150.751
653.147	167.172
654.676	148.257
656.205	152.516
657.734	160.202
659.263	165.679
660.791	164.521
662.32	166.361
663.849	157.915
665.378	169.158
666.906	159.6
668.435	158.155
669.964	173.535
671.493	167.453
673.022	157.231
674.55	174.671
676.079	162.883
677.608	160.178
679.137	167.377
680.665	162.124
682.194	173.774
683.723	163.606
685.252	161.176
686.781	169.171
688.309	171.475
689.838	166.812
691.367	161.024
692.896	157.223
694.424	175.884
695.953	165.172
697.482	171.222
699.011	175.201
700.54	172.373
702.068	168.876
703.597	173.48
705.126	178.533
706.655	171.615
708.183	166.592
709.712	171.582
711.241	177.392
712.77	181.348
714.299	182.037
715.827	171.914
717.356	178.463
718.885	181.309
720.414	173.713
721.942	175.551
723.471	179.769
725	184.88
726.529	181.92
728.058	186.144
729.586	186.687
731.115	190.802
732.644	185.633
734.173	190.814
735.701	189.575
737.23	193.455
738.759	195.942
740.288	189.788
741.817	195.797
743.345	186.497
744.874	196.57
746.403	198.418
747.932	187
749.46	194.574
750.989	189.789
752.518	205.079
754.047	200.926
755.576	197.353
757.104	210.509
758.633	201.869
760.162	195.411
761.691	197.865
763.219	207
764.748	202.076
766.277	194.688
767.806	192.925
769.335	197.387
770.863	207.484
772.392	206.359
773.921	211.204
775.45	208.997
776.978	205.298
778.507	212.758
780.036	205.665
781.565	225.909
783.094	212.41
784.622	206.543
786.151	214.517
787.68	208.286
789.209	206.507
790.737	213.362
792.266	226.281
793.795	217.869
795.324	206.788
796.853	219.997
798.381	229.141
799.91	217.681
801.439	224.565
802.968	209.959
804.496	214.133
806.025	227.402
807.554	200.778
809.083	219.939
810.612	227.099
812.14	221.637
813.669	231.252
815.198	235.572
816.727	224.011
818.255	230.08
819.784	236.023
821.313	228.533
822.842	232.961
824.37	226.057
825.899	233.263
827.428	233.871
828.957	234.299
830.486	237.139
832.014	229.825
833.543	237.619
835.072	234.259
836.601	238.446
838.13	256.535
839.658	234.362
841.187	231.27
842.716	229.917
844.245	226.654
845.773	226.178
847.302	237.6
848.831	232.809
850.36	239.684
851.888	231.143
853.417	226.513
854.946	242.742
856.475	229.778
858.004	231.903
859.532	233.801
861.061	225.327
862.59	234.452
864.119	225.262
865.647	225.272
867.176	218.664
868.705	228.641
870.234	221.606
871.763	232.645
873.291	215.976
874.82	210.482
876.349	209.084
877.878	217.488
879.406	205.132
880.935	202.375
882.464	206.558
883.993	206.667
885.522	189.779
887.05	197.354
888.579	203.469
890.108	199.04
891.637	194.095
893.165	188.681
894.694	188.378
896.223	190.292
897.752	187.524
899.281	176.465
900.809	182.128
902.338	180.256
903.867	171.29
905.396	169.975
906.924	177.996
908.453	165.355
909.982	172.053
911.511	174.324
913.04	168.323
914.568	172.029
916.097	165.792
917.626	164.975
919.155	162.884
920.683	164.35
922.212	162.82
923.741	154.01
925.27	176.266
926.799	148.218
928.327	153.718
929.856	166.342
931.385	162.31
932.914	150.845
934.442	171.569
935.971	146.727
937.5	159.828
939.029	167.572
940.558	159.467
942.086	153.434
943.615	157.27
945.144	158.941
946.673	156.08
948.201	148.329
949.73	160.011
951.259	151.386
952.788	151.72
954.317	159.082
955.845	150.902
957.374	153.428
958.903	151.803
960.432	143.795
961.96	154.694
963.489	150.065
965.018	150.13
966.547	150.667
968.076	146.101
969.604	152.048
971.133	160.302
972.662	150.252
974.191	150.641
975.719	150.241
977.248	138.64
978.777	147.077
980.306	146.987
981.835	157.45
983.363	145.011
984.892	148
986.421	152.448
987.95	146.525
989.478	142.161
991.007	158.959
992.536	154.261
994.065	162.542
995.594	146.1
997.122	157.976
998.651	145.788
1000.18	161.9
1001.71	150.217
1003.24	169.044
1004.77	161.447
1006.29	162.529
1007.82	148.082
1009.35	160.271
1010.88	141.836
1012.41	155.762
1013.94	157.585
1015.47	156.14
1017	156.71
1018.53	157.333
1020.05	162.687
1021.58	164.256
1023.11	166.359
1024.64	167.166
1026.17	163.943
1027.7	171.355
1029.23	169.605
1030.76	180.572
1032.28	167.374
1033.81	179.033
1035.34	168.519
1036.87	170.694
1038.4	178.16
1039.93	174.695
1041.46	179.713
1042.99	175.184
1044.51	171.318
1046.04	169.261
1047.57	175.432
1049.1	173.662
1050.63	168.717
1052.16	170.745
1053.69	170.026
1055.22	169.538
1056.74	175.646
1058.27	170.556
1059.8	166.238
1061.33	167.433
1062.86	166.624
1064.39	152.644
1065.92	164.496
1067.45	166.639
1068.97	168.311
1070.5	164.114
1072.03	163.719
1073.56	167.731
1075.09	172.685
1076.62	163.493
1078.15	165.667
1079.68	153.785
1081.21	165.849
1082.73	162.227
1084.26	158.923
1085.79	161.409
1087.32	160.647
1088.85	158.501
1090.38	160.456
1091.91	156.051
1093.44	155.498
1094.96	157.64
1096.49	163.471
1098.02	155.421
1099.55	150.499
1101.08	160.492
1102.61	151.212
1104.14	164.262
1105.67	160.558
1107.19	147.81
1108.72	160.805
1110.25	156.943
1111.78	161.473
1113.31	149.599
1114.84	151.703
1116.37	154.095
1117.9	161.073
1119.42	157.282
1120.95	160.697
1122.48	146.291
1124.01	156.28
1125.54	154.486
1127.07	155.065
1128.6	149.953
1130.13	156.239
1131.65	153.371
1133.18	143.986
1134.71	145.577
1136.24	149.595
1137.77	144.543
1139.3	154.394
1140.83	152.384
1142.36	157.568
1143.88	145.743
1145.41	153.482
1146.94	147.19
1148.47	142.68
1150	147.543
1151.53	154.05
1153.06	152.754
1154.59	146.595
1156.12	155.032
1157.64	152.881
1159.17	150.008
1160.7	147.496
1162.23	151.093
1163.76	150.893
1165.29	155.899
1166.82	151.288
1168.35	150.673
1169.87	159.144
1171.4	155.451
1172.93	156.763
1174.46	158.124
1175.99	163.084
1177.52	156.907
1179.05	152.548
1180.58	158.74
1182.1	146.398
1183.63	165.518
1185.16	153.885
1186.69	171.333
1188.22	173.254
1189.75	155.043
1191.28	167.831
1192.81	170.566
1194.33	164.027
1195.86	167.468
1197.39	169.401
1198.92	159.51
1200.45	171.407
1201.98	174.685
1203.51	172.752
1205.04	171.208
1206.56	175.28
1208.09	165.354
1209.62	182.504
1211.15	180.275
1212.68	186.62
1214.21	181.339
1215.74	184.192
1217.27	173.652
1218.79	189.667
1220.32	185.699
1221.85	187.683
1223.38	176.848
1224.91	182.628
1226.44	179.724
1227.97	187.399
1229.5	197.85
1231.03	197.945
1232.55	187.949
1234.08	194.677
1235.61	211.433
1237.14	198.207
1238.67	202.457
1240.2	201.502
1241.73	214.682
1243.26	219.513
1244.78	213.447
1246.31	218.825
1247.84	228.35
1249.37	215.21
1250.9	221.102
1252.43	223.94
1253.96	232.664
1255.49	232.635
1257.01	231.97
1258.54	239.844
1260.07	236.861
1261.6	238.756
1263.13	253.821
1264.66	255.154
1266.19	265.301
1267.72	261.834
1269.24	258.624
1270.77	266.853
1272.3	277.749
1273.83	281.336
1275.36	280.551
1276.89	291.727
1278.42	282.146
1279.95	305.047
1281.47	311.308
1283	309.713
1284.53	309.825
1286.06	310.445
1287.59	321.32
1289.12	334.765
1290.65	336.81
1292.18	352.65
1293.71	347.559
1295.23	354.865
1296.76	374.903
1298.29	392.917
1299.82	407.281
1301.35	406.924
1302.88	426.922
1304.41	446.9
1305.94	438.586
1307.46	460.475
1308.99	475.54
1310.52	497.844
1312.05	501.463
1313.58	509.21
1315.11	544.576
1316.64	578.646
1318.17	581.319
1319.69	591.495
1321.22	591.891
1322.75	602.652
1324.28	622.777
1325.81	668.626
1327.34	637.136
1328.87	670.324
1330.4	674.286
1331.92	666.896
1333.45	688.081
1334.98	665.438
1336.51	672.095
1338.04	677.972
1339.57	664.304
1341.1	663.869
1342.63	637.215
1344.15	643.253
1345.68	617.725
1347.21	619.981
1348.74	584.04
1350.27	576.424
1351.8	564.592
1353.33	550.061
1354.86	537.724
1356.38	527.935
1357.91	505.804
1359.44	496.721
1360.97	476.777
1362.5	485.073
1364.03	457.297
1365.56	430.906
1367.09	437.332
1368.62	417.162
1370.14	416.573
1371.67	391.685
1373.2	403.652
1374.73	380.529
1376.26	374.577
1377.79	362.753
1379.32	354.333
1380.85	349.223
1382.37	333.194
1383.9	332.54
1385.43	344.009
1386.96	320.229
1388.49	320.879
1390.02	309.449
1391.55	306.378
1393.08	305.453
1394.6	301.874
1396.13	286.025
1397.66	279.317
1399.19	282.407
1400.72	267.72
1402.25	265.874
1403.78	267.072
1405.31	273.589
1406.83	253.303
1408.36	264.097
1409.89	258.739
1411.42	257.213
1412.95	251.565
1414.48	252.573
1416.01	260.483
1417.54	242.7
1419.06	238.279
1420.59	230.594
1422.12	239.53
1423.65	237.124
1425.18	244.525
1426.71	219.395
1428.24	229.077
1429.77	239.752
1431.29	232.534
1432.82	218.518
1434.35	227.787
1435.88	224.023
1437.41	219.858
1438.94	231.607
1440.47	231.802
1442	232.056
1443.53	217.864
1445.05	222.044
1446.58	218.776
1448.11	230.717
1449.64	216.698
1451.17	227.618
1452.7	222.523
1454.23	224.517
1455.76	209.924
1457.28	209.918
1458.81	226.742
1460.34	231.159
1461.87	233.851
1463.4	217.256
1464.93	216.468
1466.46	206.086
1467.99	228.335
1469.51	224.623
1471.04	209.166
1472.57	224.51
1474.1	225.089
1475.63	215.581
1477.16	237.487
1478.69	222.093
1480.22	218.138
1481.74	216.236
1483.27	216.38
1484.8	223.843
1486.33	232.21
1487.86	232.3
1489.39	223.622
1490.92	221.561
1492.45	227.766
1493.97	225.601
1495.5	221.094
1497.03	226.433
1498.56	226.829
1500.09	225.902
1501.62	239.181
1503.15	220.367
1504.68	236.623
1506.21	226.312
1507.73	230.764
1509.26	236.727
1510.79	239.142
1512.32	232.566
1513.85	233.082
1515.38	246.605
1516.91	242.851
1518.44	248.348
1519.96	234.277
1521.49	260.328
1523.02	239.725
1524.55	254.502
1526.08	253.34
1527.61	261.575
1529.14	248.625
1530.67	272.276
1532.19	268.635
1533.72	276.87
1535.25	283.348
1536.78	287.045
1538.31	298.76
1539.84	301.799
1541.37	317.43
1542.9	322.212
1544.42	312.475
1545.95	330.486
1547.48	359.623
1549.01	359.29
1550.54	374.693
1552.07	396.636
1553.6	398.005
1555.13	415.012
1556.65	449.213
1558.18	448.811
1559.71	450.139
1561.24	470.04
1562.77	484.177
1564.3	499.67
1565.83	511.352
1567.36	506.14
1568.88	542.219
1570.41	522.456
1571.94	562.704
1573.47	555.169
1575	557.318
1576.53	572.258
1578.06	560.869
1579.59	550.023
1581.12	554.649
1582.64	546.974
1584.17	545.26
1585.7	528.831
1587.23	528.305
1588.76	521.474
1590.29	514.781
1591.82	496.286
1593.35	499.536
1594.87	499.529
1596.4	483.353
1597.93	477.182
1599.46	458.447
1600.99	467.65
1602.52	461.102
1604.05	452.204
1605.58	454.228
1607.1	437.65
1608.63	434.645
1610.16	408.952
1611.69	396.07
1613.22	386.155
1614.75	365.916
1616.28	338.855
1617.81	333.478
1619.33	316.142
1620.86	304.214
1622.39	288.913
1623.92	273.869
1625.45	258.007
1626.98	245.74
1628.51	233.347
1630.04	228.632
1631.56	217.323
1633.09	213.155
1634.62	202.476
1636.15	191.967
1637.68	193.204
1639.21	173.536
1640.74	168.981
1642.27	167.461
1643.79	159.964
1645.32	164.095
1646.85	155.642
1648.38	153.312
1649.91	145.179
1651.44	147.175
1652.97	139.569
1654.5	133.007
1656.03	129.449
1657.55	132.758
1659.08	120.022
1660.61	117.508
1662.14	116.335
1663.67	117.728
1665.2	121.043
1666.73	117.847
1668.26	119.724
1669.78	114.045
1671.31	113.132
1672.84	110.998
1674.37	104.163
1675.9	105.278
1677.43	103.117
1678.96	107.121
1680.49	102.695
1682.01	105.564
1683.54	100.07
1685.07	99.9607
1686.6	101.818
1688.13	100.679
1689.66	98.0061
1691.19	98.1759
1692.72	106.13
1694.24	97.6821
1695.77	94.4442
1697.3	93.8021
1698.83	97.8313
1700.36	97.2763
1701.89	94.4138
1703.42	83.8376
1704.95	93.5097
1706.47	99.0877
1708	91.3893
1709.53	89.6515
1711.06	87.3318
1712.59	90.9885
1714.12	92.3315
1715.65	93.5803
1717.18	82.2547
1718.71	90.1497
1720.23	89.2485
1721.76	84.6209
1723.29	84.6894
1724.82	92.406
1726.35	89.7478
1727.88	84.9308
1729.41	87.2412
1730.94	87.3662
1732.46	88.4339
1733.99	85.8325
1735.52	85.1061
1737.05	82.0914
1738.58	89.4387
1740.11	81.0219
1741.64	87.3434
1743.17	88.8913
1744.69	88.643
1746.22	84.2703
1747.75	86.1081
1749.28	87.0568
1750.81	83.9732
1752.34	82.9382
1753.87	89.1828
1755.4	85.1066
1756.92	77.209
1758.45	87.4303
1759.98	84.9661
1761.51	86.1528
1763.04	82.5561
1764.57	83.8131
1766.1	74.2558
1767.63	82.3036
1769.15	77.7797
1770.68	81.5796
1772.21	85.0463
1773.74	76.588
1775.27	85.8572
1776.8	82.5844
1778.33	78.939
1779.86	79.8373
1781.38	83.1182
1782.91	90.022
1784.44	80.6047
1785.97	70.728
1787.5	80.0951
1789.03	83.5972
1790.56	79.6287
1792.09	82.8698
1793.62	77.3064
1795.14	80.0904
1796.67	84.1941
1798.2	87.002
1799.73	80.6244
1801.26	85.4436
1802.79	81.6053
1804.32	74.4848
1805.85	73.0122
1807.37	84.867
1808.9	82.489
1810.43	75.3732
1811.96	76.6703
1813.49	84.2494
1815.02	83.3914
1816.55	77.5815
1818.08	79.2003
1819.6	80.126
1821.13	74.5668
1822.66	85.4032
1824.19	70.9876
1825.72	83.5766
1827.25	80.3333
1828.78	80.2418
1830.31	81.1127
1831.83	77.7726
1833.36	82.006
1834.89	80.3885
1836.42	79.815
1837.95	78.8292
1839.48	75.4479
1841.01	75.1491
1842.54	79.1158
1844.06	79.0381
1845.59	78.4941
1847.12	74.1111
1848.65	77.8853
1850.18	79.5338
1851.71	74.6086
1853.24	73.6495
1854.77	79.3679
1856.29	81.3493
1857.82	79.5511
1859.35	76.1793
1860.88	81.035
1862.41	79.3489
1863.94	77.8558
1865.47	77
1867	75.8191
1868.53	75.2084
1870.05	77.4918
1871.58	79.4586
1873.11	72.1259
1874.64	79.5573
1876.17	79.2999
1877.7	77.7946
1879.23	76.1257
1880.76	77.1794
1882.28	71.2122
1883.81	76.3579
1885.34	76.8657
1886.87	76.8502
1888.4	74.527
1889.93	77.3362
1891.46	75.6354
1892.99	74.7429
1894.51	75.7358
1896.04	76.3201
1897.57	84.7797
1899.1	73.7552
1900.63	79.9076
1902.16	71.4053
1903.69	79.6581
1905.22	79.6641
1906.74	74.6142
1908.27	68.5223
1909.8	75.1322
1911.33	78.3196
1912.86	77.5439
1914.39	68.2135
1915.92	80.1655
1917.45	78.1672
1918.97	68.9904
1920.5	67.9064
1922.03	71.0921
1923.56	79.5181
1925.09	73.9224
1926.62	76.9279
1928.15	72.6937
1929.68	72.6352
1931.21	76.375
1932.73	83.6442
1934.26	77.918
1935.79	78.7397
1937.32	79.1269
1938.85	76.332
1940.38	78.3067
1941.91	72.3631
1943.44	76.6632
1944.96	85.7383
1946.49	68.9153
1948.02	77.3934
1949.55	76.0945
1951.08	74.5624
1952.61	80.7765
1954.14	76.2229
1955.67	76.4012
1957.19	85.9719
1958.72	70.7516
1960.25	69.1839
1961.78	79.5072
1963.31	72.7687
1964.84	77.8226
1966.37	71.3648
1967.9	69.5311
1969.42	76.2304
1970.95	83.1559
1972.48	83.954
1974.01	72.8914
1975.54	80.113
1977.07	75.545
1978.6	68.4721
1980.13	76.6942
1981.65	74.9388
1983.18	73.5965
1984.71	86.4981
1986.24	82.3468
1987.77	79.6598
1989.3	79.7725
1990.83	74.3884
1992.36	74.5525
1993.88	74.2344
1995.41	76.0049
1996.94	69.3816
1998.47	71.1855
2000	72.458