File: Example Data/Raman/CNT - TIM/Raytheon/Silicon - Ola/05-13-10/Si - High Pressure.txt
300	228.664
301.529	233.62
303.058	228.346
304.586	229.443
306.115	228.511
307.644	230.639
309.173	229.619
310.701	224.154
312.23	222.593
313.759	220.922
315.288	224.229
316.817	216.379
318.345	226.349
319.874	219.47
321.403	214.023
322.932	216.477
324.46	204.789
325.989	224.915
327.518	220.101
329.047	213.501
330.576	213.308
332.104	212.168
333.633	215.847
335.162	222.125
336.691	214.521
338.219	205.19
339.748	217.876
341.277	215.97
342.806	229.374
344.335	203.692
345.863	211.178
347.392	197.786
348.921	210.539
350.45	200.547
351.978	199.268
353.507	196.228
355.036	211.142
356.565	203.224
358.094	203.428
359.622	202.169
361.151	202.303
362.68	196.089
364.209	190.095
365.737	198.437
367.266	200.586
368.795	207.717
370.324	208.856
371.853	201.994
373.381	198.532
374.91	201.997
376.439	195.85
377.968	190.042
379.496	183.59
381.025	189.7
382.554	204.225
384.083	187.717
385.612	194.365
387.14	186.299
388.669	188.559
390.198	182.014
391.727	184.333
393.255	185.548
394.784	186.738
396.313	184.914
397.842	171.068
399.371	185.285
400.899	178.162
402.428	189.637
403.957	175.231
405.486	180.517
407.014	186.46
408.543	180.326
410.072	190.007
411.601	179.274
413.129	174.267
414.658	171.946
416.187	163.274
417.716	186.621
419.245	182.69
420.773	177.032
422.302	176.953
423.831	188.352
425.36	168.318
426.888	172.862
428.417	171.801
429.946	174.811
431.475	173.255
433.004	165.312
434.532	173.317
436.061	169.093
437.59	165.516
439.119	175.349
440.647	178.284
442.176	167.273
443.705	163.858
445.234	170.161
446.763	173.932
448.291	161.584
449.82	170.09
451.349	161.65
452.878	159.675
454.406	166.455
455.935	160.037
457.464	169.566
458.993	152.148
460.522	170.337
462.05	165.897
463.579	159.128
465.108	164.848
466.637	163.604
468.165	163.062
469.694	167.497
471.223	164.089
472.752	171.415
474.281	166.081
475.809	148.968
477.338	166.245
478.867	166.396
480.396	161.547
481.924	170.357
483.453	159.042
484.982	160.175
486.511	161.803
488.04	159.308
489.568	163.637
491.097	159.741
492.626	160.808
494.155	155.418
495.683	161.547
497.212	157.987
498.741	151.406
500.27	155.683
501.799	155.594
503.327	154.403
504.856	162.287
506.385	163.955
507.914	157.52
509.442	150.117
510.971	161.638
512.5	163.543
514.029	158.773
515.558	151.119
517.086	152.127
518.615	150.503
520.144	161.02
521.673	142.616
523.201	164.897
524.73	148.77
526.259	150.23
527.788	154.399
529.317	158.886
530.845	147.157
532.374	155.817
533.903	152.053
535.432	140.667
536.96	153.396
538.489	157.935
540.018	140.371
541.547	154.016
543.076	148.476
544.604	149.653
546.133	149.832
547.662	156.052
549.191	152.285
550.719	151.604
552.248	147.441
553.777	147.717
555.306	148.126
556.835	156.663
558.363	156.097
559.892	145.287
561.421	151.642
562.95	162.126
564.478	155.164
566.007	150.912
567.536	159.43
569.065	153.308
570.594	154.088
572.122	162.743
573.651	163.46
575.18	159.487
576.709	150.448
578.237	157.34
579.766	159.014
581.295	152.402
582.824	157.051
584.353	161.634
585.881	155.884
587.41	161.026
588.939	153.382
590.468	167.843
591.996	157.738
593.525	158.965
595.054	152.702
596.583	165.157
598.112	159.98
599.64	155.746
601.169	159.476
602.698	151.327
604.227	155.386
605.755	148.862
607.284	161.733
608.813	156.384
610.342	145.813
611.87	163.034
613.399	156.164
614.928	148.638
616.457	168.773
617.986	162.333
619.514	164.595
621.043	154.917
622.572	159.231
624.101	158.876
625.63	158.313
627.158	163.361
628.687	156.109
630.216	168.02
631.745	173.736
633.273	171.337
634.802	165.331
636.331	163.978
637.86	165.221
639.388	171.134
640.917	158
642.446	178.826
643.975	171.866
645.504	179.751
647.032	170.547
648.561	168.896
650.09	166.465
651.619	174.141
653.147	172.567
654.676	166.195
656.205	171.615
657.734	176.558
659.263	177
660.791	168.279
662.32	177.924
663.849	171.211
665.378	178.098
666.906	178.323
668.435	175.873
669.964	181.868
671.493	174.591
673.022	175.052
674.55	182.869
676.079	176.652
677.608	186.511
679.137	185.275
680.665	173.582
682.194	176.979
683.723	174.744
685.252	179.292
686.781	194.903
688.309	183.47
689.838	181.793
691.367	183.952
692.896	185.045
694.424	181.97
695.953	179.42
697.482	183.509
699.011	176.552
700.54	177.706
702.068	184.086
703.597	186.333
705.126	197.356
706.655	197.249
708.183	193.544
709.712	192.301
711.241	191.799
712.77	195.41
714.299	198.32
715.827	190.839
717.356	188.643
718.885	191.236
720.414	195.821
721.942	199.024
723.471	192.94
725	186.967
726.529	197.176
728.058	199.735
729.586	202.277
731.115	196.99
732.644	199.752
734.173	207.883
735.701	192.848
737.23	201.724
738.759	205.382
740.288	210.612
741.817	210.769
743.345	205.378
744.874	213.463
746.403	218.67
747.932	204.693
749.46	211.787
750.989	221.7
752.518	212.111
754.047	218.532
755.576	207.24
757.104	218.597
758.633	222.739
760.162	221.771
761.691	224.101
763.219	217.232
764.748	205.351
766.277	214.176
767.806	224.125
769.335	222.581
770.863	223.954
772.392	217.347
773.921	220.741
775.45	220.884
776.978	224.37
778.507	235.422
780.036	218.367
781.565	234.834
783.094	218.55
784.622	220.731
786.151	228.952
787.68	227.237
789.209	227.189
790.737	235.018
792.266	242.672
793.795	228.466
795.324	231.257
796.853	226.477
798.381	233.272
799.91	229.167
801.439	236.141
802.968	242.832
804.496	240.828
806.025	229.242
807.554	232.697
809.083	231.622
810.612	241.733
812.14	246.33
813.669	231.953
815.198	237.36
816.727	251.976
818.255	238.588
819.784	251.748
821.313	251.249
822.842	249.34
824.37	248.85
825.899	249.59
827.428	244.735
828.957	255.517
830.486	247.167
832.014	247.773
833.543	250.941
835.072	256.926
836.601	249.431
838.13	259.471
839.658	261.123
841.187	261.236
842.716	248.715
844.245	261.385
845.773	254.422
847.302	250.134
848.831	250.868
850.36	264.166
851.888	253.16
853.417	252.399
854.946	247.065
856.475	250.929
858.004	246.767
859.532	253.059
861.061	250.897
862.59	248.266
864.119	256.494
865.647	235.975
867.176	241.742
868.705	228.504
870.234	228.801
871.763	236.677
873.291	228.507
874.82	231.051
876.349	221.653
877.878	221.438
879.406	227.114
880.935	221.738
882.464	219.481
883.993	224.078
885.522	216.864
887.05	207.374
888.579	208.834
890.108	208.801
891.637	222.578
893.165	200.802
894.694	209.664
896.223	196.089
897.752	207.787
899.281	203.434
900.809	190.573
902.338	195.821
903.867	190.372
905.396	189.975
906.924	183.621
908.453	187.174
909.982	180.203
911.511	183.664
913.04	173.626
914.568	177.88
916.097	186.873
917.626	179.423
919.155	171.909
920.683	172.08
922.212	169.054
923.741	185.955
925.27	178.774
926.799	179.281
928.327	159.429
929.856	183.861
931.385	170.777
932.914	177.451
934.442	162.788
935.971	165.394
937.5	162.806
939.029	168.821
940.558	165.134
942.086	164.602
943.615	167.416
945.144	166.26
946.673	175.76
948.201	168.408
949.73	161.128
951.259	158.082
952.788	163.548
954.317	168.798
955.845	173.706
957.374	178.571
958.903	166.197
960.432	164.363
961.96	158.369
963.489	158.111
965.018	166.311
966.547	179.933
968.076	143.939
969.604	160.161
971.133	167.839
972.662	167.215
974.191	169.881
975.719	165.693
977.248	166.64
978.777	166.275
980.306	156.369
981.835	163.537
983.363	160.793
984.892	162.199
986.421	156.899
987.95	166.778
989.478	171.02
991.007	159.891
992.536	169.964
994.065	169.142
995.594	167.577
997.122	174.633
998.651	162.23
1000.18	165.533
1001.71	171.913
1003.24	171.696
1004.77	174.285
1006.29	166.359
1007.82	165.307
1009.35	166.849
1010.88	172.813
1012.41	166.833
1013.94	174.745
1015.47	176.136
1017	187.725
1018.53	177.588
1020.05	185.358
1021.58	178.217
1023.11	176.897
1024.64	183.802
1026.17	181.445
1027.7	188.795
1029.23	184.924
1030.76	193.353
1032.28	187.046
1033.81	181.771
1035.34	200.171
1036.87	184.362
1038.4	190.56
1039.93	196.986
1041.46	190.895
1042.99	194.635
1044.51	192.332
1046.04	190.266
1047.57	194.992
1049.1	189.653
1050.63	183.489
1052.16	203.216
1053.69	188.073
1055.22	180.986
1056.74	186.129
1058.27	200.414
1059.8	183.639
1061.33	186.851
1062.86	184.496
1064.39	173.128
1065.92	177.848
1067.45	174.188
1068.97	170.898
1070.5	177.963
1072.03	176.504
1073.56	179.615
1075.09	169.324
1076.62	175.456
1078.15	177.593
1079.68	178.834
1081.21	172.514
1082.73	168.873
1084.26	172.635
1085.79	162.376
1087.32	180.469
1088.85	172.25
1090.38	170.122
1091.91	168.352
1093.44	172.355
1094.96	168.522
1096.49	173.086
1098.02	172.068
1099.55	172.198
1101.08	166.733
1102.61	171.931
1104.14	166.353
1105.67	158.392
1107.19	172.005
1108.72	162.184
1110.25	171.152
1111.78	165.741
1113.31	166.82
1114.84	162.874
1116.37	162.348
1117.9	156.734
1119.42	161.232
1120.95	165.78
1122.48	165.813
1124.01	159.867
1125.54	162.436
1127.07	164.37
1128.6	160.009
1130.13	165.213
1131.65	156.033
1133.18	161.755
1134.71	160.621
1136.24	167.253
1137.77	148.771
1139.3	145.555
1140.83	154.506
1142.36	164.339
1143.88	165.682
1145.41	165.632
1146.94	161.004
1148.47	155.912
1150	166.59
1151.53	164.163
1153.06	169.925
1154.59	156.399
1156.12	163.441
1157.64	166.926
1159.17	160.693
1160.7	169.504
1162.23	156.263
1163.76	156.172
1165.29	162.093
1166.82	165.171
1168.35	159.561
1169.87	162.667
1171.4	158.583
1172.93	169.38
1174.46	171.125
1175.99	168.121
1177.52	167.438
1179.05	162.115
1180.58	170.675
1182.1	167.645
1183.63	159.62
1185.16	172.866
1186.69	172.22
1188.22	169.644
1189.75	185.613
1191.28	172.563
1192.81	174.081
1194.33	176.862
1195.86	179.034
1197.39	169.895
1198.92	181.618
1200.45	172.604
1201.98	175.383
1203.51	178.107
1205.04	170.96
1206.56	192.969
1208.09	178.879
1209.62	178.821
1211.15	184.093
1212.68	178.714
1214.21	192.994
1215.74	179.6
1217.27	182.956
1218.79	198.113
1220.32	189.595
1221.85	183.786
1223.38	202.276
1224.91	198.841
1226.44	197.38
1227.97	199.403
1229.5	198.964
1231.03	200.139
1232.55	205.679
1234.08	210.162
1235.61	205.376
1237.14	200.639
1238.67	209.709
1240.2	220.813
1241.73	213.349
1243.26	221.614
1244.78	224.492
1246.31	229.594
1247.84	225.744
1249.37	233.172
1250.9	224.824
1252.43	229.25
1253.96	230.417
1255.49	243.374
1257.01	246.703
1258.54	244.742
1260.07	252.409
1261.6	249.801
1263.13	248.33
1264.66	257.413
1266.19	243.863
1267.72	259.566
1269.24	255.313
1270.77	257.69
1272.3	268.402
1273.83	287.188
1275.36	279.353
1276.89	287.819
1278.42	294.892
1279.95	288.335
1281.47	302.332
1283	312.538
1284.53	311.07
1286.06	316.198
1287.59	328.594
1289.12	327.057
1290.65	343.074
1292.18	353.433
1293.71	346.435
1295.23	353.425
1296.76	373.364
1298.29	384.835
1299.82	387.461
1301.35	404.714
1302.88	413.691
1304.41	426.114
1305.94	439.648
1307.46	432.045
1308.99	467.996
1310.52	482.293
1312.05	492.186
1313.58	507.769
1315.11	513.25
1316.64	567.715
1318.17	538.336
1319.69	584.435
1321.22	599.211
1322.75	582.936
1324.28	610.751
1325.81	594.902
1327.34	650.149
1328.87	668.016
1330.4	655.224
1331.92	674.428
1333.45	653.834
1334.98	667.198
1336.51	677.031
1338.04	676.519
1339.57	679.174
1341.1	655.829
1342.63	656.067
1344.15	640.291
1345.68	642.443
1347.21	626.781
1348.74	604.378
1350.27	578.942
1351.8	579.543
1353.33	564.346
1354.86	542.557
1356.38	520.505
1357.91	516.216
1359.44	497.27
1360.97	489.199
1362.5	469.536
1364.03	468.328
1365.56	443.492
1367.09	433.668
1368.62	433.892
1370.14	433.913
1371.67	404.352
1373.2	400.366
1374.73	387.609
1376.26	369.417
1377.79	369.753
1379.32	362.257
1380.85	346.804
1382.37	356.859
1383.9	337.204
1385.43	346.297
1386.96	320.781
1388.49	325.407
1390.02	315.459
1391.55	330.652
1393.08	300.813
1394.6	299.821
1396.13	291.51
1397.66	294.132
1399.19	283.338
1400.72	292.483
1402.25	290.536
1403.78	270.25
1405.31	274.648
1406.83	271.183
1408.36	268.848
1409.89	259.718
1411.42	249.333
1412.95	249.24
1414.48	255.118
1416.01	255.789
1417.54	244.513
1419.06	253.849
1420.59	253.543
1422.12	252.254
1423.65	230.294
1425.18	248.938
1426.71	233.08
1428.24	236.623
1429.77	247.154
1431.29	252.773
1432.82	234.831
1434.35	237.441
1435.88	228.635
1437.41	247.142
1438.94	236.206
1440.47	239.207
1442	237.021
1443.53	234.474
1445.05	237.649
1446.58	232.997
1448.11	230.014
1449.64	229.287
1451.17	223.833
1452.7	227.065
1454.23	232.227
1455.76	237.086
1457.28	242.048
1458.81	234.38
1460.34	232.276
1461.87	234.486
1463.4	231.284
1464.93	234.111
1466.46	238.061
1467.99	239.659
1469.51	242.628
1471.04	238.659
1472.57	224.351
1474.1	228.717
1475.63	232.582
1477.16	238.259
1478.69	224.231
1480.22	237.032
1481.74	234.778
1483.27	246.378
1484.8	229.904
1486.33	234.972
1487.86	226.756
1489.39	232.736
1490.92	239.841
1492.45	232.766
1493.97	259.071
1495.5	225.559
1497.03	249.118
1498.56	241.95
1500.09	252.275
1501.62	244.462
1503.15	255.276
1504.68	245.657
1506.21	239.853
1507.73	250.081
1509.26	236.139
1510.79	236.468
1512.32	249.864
1513.85	252.151
1515.38	252.995
1516.91	254.844
1518.44	264.493
1519.96	252.252
1521.49	262.581
1523.02	259.59
1524.55	254.047
1526.08	267.023
1527.61	274.412
1529.14	275.236
1530.67	297.222
1532.19	286.987
1533.72	303.941
1535.25	304.639
1536.78	307.211
1538.31	312.24
1539.84	341.726
1541.37	333.501
1542.9	342.922
1544.42	362.475
1545.95	372.862
1547.48	398.91
1549.01	394.889
1550.54	413.724
1552.07	426.198
1553.6	443.214
1555.13	454.899
1556.65	472.376
1558.18	484.796
1559.71	486.821
1561.24	499.614
1562.77	508.048
1564.3	518.927
1565.83	538.349
1567.36	546.871
1568.88	564.667
1570.41	557.461
1571.94	569.074
1573.47	558.147
1575	561.576
1576.53	555.497
1578.06	548.651
1579.59	551.404
1581.12	556.826
1582.64	534.214
1584.17	524.796
1585.7	516.885
1587.23	504.7
1588.76	514.211
1590.29	502.132
1591.82	494.522
1593.35	503.82
1594.87	489.617
1596.4	471.408
1597.93	484.339
1599.46	470.497
1600.99	463.246
1602.52	441.352
1604.05	456.249
1605.58	441.713
1607.1	412.728
1608.63	412.786
1610.16	398.768
1611.69	385.639
1613.22	387.953
1614.75	344.372
1616.28	336.97
1617.81	325.575
1619.33	306.971
1620.86	306.241
1622.39	289.233
1623.92	273.831
1625.45	264.361
1626.98	257.036
1628.51	244.159
1630.04	233.757
1631.56	231.627
1633.09	223.059
1634.62	207.432
1636.15	199.671
1637.68	185.024
1639.21	191.788
1640.74	176.869
1642.27	177.985
1643.79	180.252
1645.32	169.514
1646.85	170.556
1648.38	157.702
1649.91	158.161
1651.44	151.479
1652.97	149.464
1654.5	149.39
1656.03	140.845
1657.55	142.864
1659.08	137.335
1660.61	133.4
1662.14	128.932
1663.67	126.216
1665.2	124.261
1666.73	123.594
1668.26	127.746
1669.78	116.78
1671.31	117.899
1672.84	121.078
1674.37	117.905
1675.9	113.638
1677.43	111.137
1678.96	110.658
1680.49	113.397
1682.01	110.265
1683.54	106.049
1685.07	112.319
1686.6	110.467
1688.13	106.517
1689.66	108.21
1691.19	104.571
1692.72	109.094
1694.24	106.578
1695.77	100.879
1697.3	100.924
1698.83	105.451
1700.36	96.8075
1701.89	103.576
1703.42	103.39
1704.95	104.409
1706.47	102.741
1708	101.676
1709.53	99.811
1711.06	95.995
1712.59	99.2372
1714.12	97.3618
1715.65	102.989
1717.18	97.2789
1718.71	97.6987
1720.23	92.0899
1721.76	97.7389
1723.29	91.9824
1724.82	87.8524
1726.35	101.54
1727.88	93.0844
1729.41	90.7748
1730.94	95.671
1732.46	92.4794
1733.99	88.3367
1735.52	95.0677
1737.05	94.7197
1738.58	95.071
1740.11	94.7976
1741.64	92.4003
1743.17	88.3777
1744.69	92.2282
1746.22	99.85
1747.75	89.5455
1749.28	94.5083
1750.81	93.5526
1752.34	92.2332
1753.87	89.8651
1755.4	95.0005
1756.92	93.2511
1758.45	88.7258
1759.98	91.2387
1761.51	89.5436
1763.04	87.7853
1764.57	91.3115
1766.1	90.3871
1767.63	84.6703
1769.15	82.5213
1770.68	87.6497
1772.21	90.7264
1773.74	90.3475
1775.27	84.6931
1776.8	79.3797
1778.33	88.5256
1779.86	84.7991
1781.38	89.3734
1782.91	90.7522
1784.44	87.2375
1785.97	96.986
1787.5	83.472
1789.03	96.697
1790.56	89.2793
1792.09	88.2158
1793.62	91.0384
1795.14	90.6158
1796.67	93.6657
1798.2	88.2113
1799.73	77.1576
1801.26	84.7715
1802.79	92.3586
1804.32	78.3434
1805.85	91.5012
1807.37	83.9072
1808.9	85.3863
1810.43	87.6172
1811.96	89.2639
1813.49	85.7139
1815.02	83.2172
1816.55	87.9148
1818.08	92.4354
1819.6	85.8135
1821.13	82.6569
1822.66	89.9243
1824.19	82.8808
1825.72	86.5672
1827.25	89.1082
1828.78	84.5935
1830.31	80.0197
1831.83	87.8784
1833.36	84.988
1834.89	80.9724
1836.42	83.9425
1837.95	87.8648
1839.48	81.6667
1841.01	89.4303
1842.54	86.1158
1844.06	90.6762
1845.59	92.6335
1847.12	91.8485
1848.65	80.9793
1850.18	91.1996
1851.71	92.5222
1853.24	93.9725
1854.77	86.8725
1856.29	87.2063
1857.82	83.2687
1859.35	85.4765
1860.88	84.0443
1862.41	89.3824
1863.94	88.6161
1865.47	88.2454
1867	84.8284
1868.53	89.8295
1870.05	87.7576
1871.58	82.4609
1873.11	86.5034
1874.64	84.8284
1876.17	84.3408
1877.7	84.0268
1879.23	79.7416
1880.76	82.5568
1882.28	80.9894
1883.81	91.192
1885.34	84.1991
1886.87	84.2722
1888.4	84.2365
1889.93	81.7173
1891.46	91.2629
1892.99	89.0179
1894.51	84.6353
1896.04	87.9882
1897.57	90.4992
1899.1	86.4775
1900.63	85.1958
1902.16	83.2432
1903.69	82.598
1905.22	86.3281
1906.74	81.9652
1908.27	83.7076
1909.8	84.5977
1911.33	82.3523
1912.86	84.4671
1914.39	81.7747
1915.92	85.8058
1917.45	86.2439
1918.97	78.7722
1920.5	82.3125
1922.03	81.6235
1923.56	89.5717
1925.09	80.5861
1926.62	81.0928
1928.15	79.6006
1929.68	79.9435
1931.21	93.225
1932.73	83.3269
1934.26	88.092
1935.79	79.1251
1937.32	78.1337
1938.85	84.4566
1940.38	82.3886
1941.91	76.6502
1943.44	80.8085
1944.96	83.7155
1946.49	88.5897
1948.02	83.2142
1949.55	90.0623
1951.08	79.527
1952.61	92.1136
1954.14	84.6892
1955.67	79.2919
1957.19	88.0218
1958.72	86.8189
1960.25	83.0117
1961.78	83.2051
1963.31	79.5087
1964.84	85.4207
1966.37	86.1429
1967.9	87.2123
1969.42	82.0494
1970.95	83.2281
1972.48	84.5477
1974.01	83.8166
1975.54	84.2203
1977.07	80.6963
1978.6	84.7179
1980.13	76.216
1981.65	82.367
1983.18	82.8744
1984.71	82.6049
1986.24	84.7356
1987.77	81.1476
1989.3	81.2928
1990.83	86.0551
1992.36	86.1013
1993.88	82.5403
1995.41	82.8309
1996.94	83.3333
1998.47	83.8013
2000	87.1401