File: Example Data/Raman/Kara/12-20-10/Si wafer/Siwafer_2.txt
400	118.538
402.515	117.402
405.03	114.359
407.546	107.59
410.061	113.923
412.576	111.495
415.091	108.534
417.607	108.938
420.122	111.921
422.637	104.116
425.152	112.855
427.668	111.228
430.183	108.153
432.698	109.259
435.213	106.815
437.729	104.21
440.244	99.9806
442.759	101.313
445.274	103.917
447.79	97.856
450.305	91.4911
452.82	90.4597
455.335	85.6364
457.851	78.1919
460.366	71.8384
462.881	69.8774
465.396	64.7785
467.912	66.8919
470.427	74.49
472.942	80.8968
475.457	78.3989
477.973	84.2919
480.488	87.8318
483.003	89
485.518	91.9697
488.034	99.1946
490.549	105.751
493.064	112.783
495.579	123.117
498.095	135.454
500.61	155.451
503.125	193.083
505.64	250.714
508.155	350.352
510.671	597.003
513.186	1141.86
515.701	2104.94
518.216	3527.56
520.732	4213.16
523.247	4125.16
525.762	3582.8
528.277	2773.81
530.793	1835.59
533.308	1055.81
535.823	667.824
538.338	459.781
540.854	355.13
543.369	301.479
545.884	265.851
548.399	225.601
550.915	192.683
553.43	185.122
555.945	176.601
558.46	153.091
560.976	142.882
563.491	150.318
566.006	134.584
568.521	122.573
571.037	118.821
573.552	118.515
576.067	121.495
578.582	111.381
581.098	110.428
583.613	105.856
586.128	99.5396
588.643	100.445
591.159	100.776
593.674	102.185
596.189	102.001
598.704	99.799
601.219	97.8654
603.735	99.6086
606.25	103.427
608.765	104.55
611.281	107.239
613.796	110.318
616.311	116.911
618.826	130.511
621.341	118.364
623.857	119.362
626.372	114.266
628.887	111.977
631.402	114.256
633.918	110.592
636.433	103.263
638.948	99.0168
641.463	102.013
643.979	105.523
646.494	106.19
649.009	106.569
651.524	103.898
654.04	109.386
656.555	106.091
659.07	100.551
661.585	99.1899
664.101	102.417
666.616	104.591
669.131	107.977
671.646	106.983
674.162	109.126
676.677	111.343
679.192	104.85
681.707	106.86
684.223	98.2685
686.738	97.7763
689.253	97.3591
691.768	93.81
694.284	90.8282
696.799	96.0294
699.314	90.0314
701.829	88.3396
704.344	86.3342
706.86	87.4469
709.375	93.3602
711.89	92.1074
714.406	85.3783
716.921	90.3037
719.436	88.2921
721.951	85.5556
724.466	86.8407
726.982	83.7227
729.497	88.2724
732.012	84.1837
734.527	86.5942
737.043	90.6057
739.558	92.8025
742.073	93.6039
744.588	87.8654
747.104	90.4966
749.619	91.7191
752.134	94.1716
754.649	95.5208
757.165	96.7981
759.68	109.772
762.195	96.9194
764.71	101.184
767.226	103.374
769.741	102.46
772.256	102.328
774.771	104.248
777.287	98.1497
779.802	107.703
782.317	103.226
784.832	102.556
787.348	107.096
789.863	108.313
792.378	103.154
794.893	111.131
797.409	106.759
799.924	112.28
802.439	117.253
804.954	113.741
807.469	107.119
809.985	114.264
812.5	123.075
815.015	121.103
817.531	119.186
820.046	119.464
822.561	118.488
825.076	113.911
827.591	122.604
830.107	119.073
832.622	115.933
835.137	115.398
837.652	116.14
840.168	118.65
842.683	126.361
845.198	111
847.713	109.094
850.229	115.813
852.744	117.347
855.259	118.67
857.774	127.693
860.29	128.46
862.805	116.489
865.32	112.602
867.835	112.889
870.351	112.308
872.866	111.753
875.381	113.487
877.896	111.963
880.412	110.934
882.927	107.221
885.442	104.552
887.957	102.401
890.473	102.47
892.988	104.247
895.503	98.0434
898.018	99.0743
900.534	98.1437
903.049	91.4143
905.564	88.0633
908.079	91.0678
910.594	95.1748
913.11	93.0024
915.625	86.6333
918.14	96.8556
920.656	95.1618
923.171	104.054
925.686	116.735
928.201	120.439
930.716	128.991
933.232	143.306
935.747	181.083
938.262	209.025
940.777	233.609
943.293	259.565
945.808	278.012
948.323	276.255
950.838	279.366
953.354	288.125
955.869	288.016
958.384	277.339
960.899	274.97
963.415	281.368
965.93	281.91
968.445	278.544
970.96	273.867
973.476	284.324
975.991	292.834
978.506	296.828
981.021	289.866
983.537	279.24
986.052	283.148
988.567	261.975
991.082	249.825
993.598	217.059
996.113	188.075
998.628	165.807
1001.14	149.584
1003.66	138.739
1006.17	127.534
1008.69	121.62
1011.2	112.788
1013.72	107.945
1016.23	105.499
1018.75	98.4429
1021.27	87.7156
1023.78	84.3403
1026.3	94.8848
1028.81	87.383
1031.33	76.4404
1033.84	71.768
1036.36	70.0618
1038.87	63.6316
1041.39	54.6163
1043.9	54.8713
1046.42	62.0471
1048.93	55.9271
1051.45	56.5871
1053.96	55.0638
1056.48	50.045
1058.99	42.2062
1061.51	37.3725
1064.02	41.3944
1066.54	40.232
1069.05	41.4587
1071.57	38.9611
1074.09	39.8979
1076.6	43.6621
1079.12	45.7113
1081.63	43.8032
1084.15	39.2663
1086.66	31.4
1089.18	31.4
1091.69	34.1145
1094.21	35.6127
1096.72	36.334
1099.24	33.2853
1101.75	30.6424
1104.27	33.2983
1106.78	29.524
1109.3	28.6432
1111.81	30.9447
1114.33	28.6693
1116.84	28.6796
1119.36	27.3784
1121.875	26.3629
1124.39	27.2703
1126.91	24.2595
1129.42	27.3749
1131.94	25.2555
1134.45	19.562
1136.97	23.1481
1139.48	24.4953
1142	24.5976
1144.51	25.0766
1147.03	23.4651
1149.54	26.4789
1152.06	20.8142
1154.57	20.9408
1157.09	22.9162
1159.6	21.6075
1162.12	18.7719
1164.63	19.966
1167.15	22.9031
1169.66	20.0401
1172.18	21.8956
1174.7	17.104
1177.21	18.2964
1179.73	17.5931
1182.24	16.9571
1184.76	17.6923
1187.27	18.6769
1189.79	18.9096
1192.3	19.2
1194.82	19.0217
1197.33	15.9969
1199.85	18.6307
1202.36	22.3805
1204.88	20.1657
1207.39	16.9915
1209.91	17.1865
1212.42	17.623
1214.94	14.2
1217.45	14.5243
1219.97	18.6298
1222.48	21.3657
1225	15.9639
1227.52	16.4362
1230.03	19.8307
1232.55	21.6
1235.06	22.8221
1237.58	23.6294
1240.09	17.0674
1242.61	16.0064
1245.12	17.0798
1247.64	20.0625
1250.15	19.6948
1252.67	17.5576
1255.18	16.7859
1257.7	16.6702
1260.21	16.4601
1262.73	18.0624
1265.24	17.3862
1267.76	17.2067
1270.27	17.2
1272.79	20.0959
1275.3	13.8692
1277.82	15.1166
1280.34	17.2619
1282.85	14.416
1285.37	14.2778
1287.88	17.132
1290.4	12.7939
1292.91	19.2739
1295.43	13.4403
1297.94	16.1807
1300.46	14.5096
1302.97	17.9097
1305.49	19.5944
1308	15.5544
1310.52	14.9477
1313.03	18.186
1315.55	7.64869
1318.06	16.3194
1320.58	16.9494
1323.09	20.5753
1325.61	18.1963
1328.125	19.2899
1330.64	19.3421
1333.16	19.2092
1335.67	19.6153
1338.19	14.3652
1340.7	16.2983
1343.22	20.3515
1345.73	17.0896
1348.25	17.2955
1350.76	19.8885
1353.28	15.819
1355.79	14.4188
1358.31	14.7845
1360.82	14.9533
1363.34	15.9822
1365.85	13.5167
1368.37	15.3711
1370.88	19.3692
1373.4	16.5138
1375.91	19.6067
1378.43	19.6794
1380.95	21.669
1383.46	20.2987
1385.98	16.108
1388.49	16.471
1391.01	20.0588
1393.52	17.5482
1396.04	19.9248
1398.55	19.1956
1401.07	18.4661
1403.58	24.8696
1406.1	18.7773
1408.61	14.6278
1411.13	17.4349
1413.64	21.9318
1416.16	21.8264
1418.67	17.6266
1421.19	15.7127
1423.7	18.7479
1426.22	22.0336
1428.73	19.1065
1431.25	18.6471
1433.77	17.9619
1436.28	18.5136
1438.8	19.3037
1441.31	18.508
1443.83	17.0449
1446.34	18.8284
1448.86	23.2747
1451.37	23.3304
1453.89	20.376
1456.4	26.7699
1458.92	26.2192
1461.43	19.2834
1463.95	16.9495
1466.46	17.3251
1468.98	22.6287
1471.49	21.5636
1474.01	16.1799
1476.52	15.5411
1479.04	17.3599
1481.55	16.1346
1484.07	18.6657
1486.59	16.876
1489.1	15.6103
1491.62	16.5323
1494.13	17.2836
1496.65	12.5822
1499.16	17.7787
1501.68	21.2229
1504.19	19.5242
1506.71	15.6372
1509.22	15.3297
1511.74	16.1156
1514.25	11.1401
1516.77	12.9042
1519.28	16.4932
1521.8	17.422
1524.31	18.5326
1526.83	13.2048
1529.34	11.763
1531.86	17.6698
1534.375	19.4803
1536.89	17.2394
1539.41	13.3804
1541.92	12.6408
1544.44	13.5772
1546.95	11.1696
1549.47	11.5517
1551.98	15.785
1554.5	20.7733
1557.01	25.4224
1559.53	31.188
1562.04	42.4823
1564.56	34.5182
1567.07	23.8895
1569.59	17.9175
1572.1	16.2827
1574.62	17.2358
1577.13	14.6926
1579.65	10.0185
1582.16	10.3401
1584.68	13.0395
1587.2	14.8212
1589.71	14.112
1592.23	14.7731
1594.74	10.1048
1597.26	14.5652
1599.77	15
1602.29	20.3208
1604.8	18.2138
1607.32	15.6258
1609.83	19.4661
1612.35	19.7744
1614.86	15.2704
1617.38	13.9503
1619.89	15.1341
1622.41	12.9845
1624.92	9.3028
1627.44	12.0576
1629.95	12.3348
1632.47	11.6915
1634.98	16.0067
1637.5	14.2267
1640.02	12.9972
1642.53	14.0401
1645.05	12.8283
1647.56	15.2097
1650.08	19.0581
1652.59	18.2478
1655.11	14.3931
1657.62	13.1495
1660.14	14.057
1662.65	14.8771
1665.17	17.2553
1667.68	15.4798
1670.2	10.2769
1672.71	15.0409
1675.23	15.6226
1677.74	17.5094
1680.26	21.3731
1682.77	13.8824
1685.29	15.0742
1687.8	16.3848
1690.32	14.167
1692.84	13.3725
1695.35	14.5059
1697.87	14.9953
1700.38	14.2507
1702.9	14.7309
1705.41	14.8585
1707.93	12.7134
1710.44	14.7426
1712.96	16.3376
1715.47	17.6789
1717.99	12.3498
1720.5	15.8264
1723.02	11.2742
1725.53	12.5066
1728.05	11.5406
1730.56	13.3971
1733.08	17.5544
1735.59	16.1108
1738.11	13.6982
1740.625	15.5328
1743.14	13.0271
1745.66	10.2
1748.17	12.0505
1750.69	14.4391
1753.2	15.2347
1755.72	17.2487
1758.23	17.9694
1760.75	11.501
1763.26	12.1208
1765.78	21.2372
1768.29	13.2416
1770.81	16.4634
1773.32	11.7047
1775.84	16.8613
1778.35	17.9295
1780.87	11.6278
1783.38	11.809
1785.9	12.7968
1788.41	13
1790.93	11.1544
1793.45	13.0669
1795.96	12.7778
1798.48	12.2651
1800.99	12.0605
1803.51	12.1974
1806.02	11.8876
1808.54	11.3807
1811.05	10.7044
1813.57	9.86745
1816.08	14.196
1818.6	16.3471
1821.11	14.5757
1823.63	10.4526
1826.14	9.90171
1828.66	16.2716
1831.17	9.63949
1833.69	13.7413
1836.2	20.8629
1838.72	14.0181
1841.23	15.9568
1843.75	8.5519
1846.27	9.39806
1848.78	10.2778
1851.3	14.3516
1853.81	12.9931
1856.33	15.5817
1858.84	14.8465
1861.36	15.9522
1863.87	14.1268
1866.39	14.9897
1868.9	18.6315
1871.42	17.0929
1873.93	14.2205
1876.45	14.6652
1878.96	15.217
1881.48	14.8804
1883.99	16.4824
1886.51	17.6533
1889.02	13.5735
1891.54	9.68609
1894.05	9.06363
1896.57	11.8121
1899.09	15.8415
1901.6	14.4515
1904.12	11.6033
1906.63	14.2688
1909.15	15.9007
1911.66	22.6977
1914.18	14.3813
1916.69	15.672
1919.21	15.4397
1921.72	15.9241
1924.24	15.4924
1926.75	12.1227
1929.27	15.5235
1931.78	13.9941
1934.3	14.6811
1936.81	13.0562
1939.33	10.5458
1941.84	9.93287
1944.36	12.1753
1946.875	10.8167
1949.39	9.90897
1951.91	13.9159
1954.42	14.2079
1956.94	12.8247
1959.45	13.4
1961.97	15.6808
1964.48	18.2
1967	14.9249
1969.51	13.4649
1972.03	17.8327
1974.54	18.0533
1977.06	16.0007
1979.57	14.0974
1982.09	15.7946
1984.6	12.6572
1987.12	13.3862
1989.63	14.9012
1992.15	13.9609
1994.66	11.674
1997.18	12.1196
1999.7	15.3406
2002.21	12.1375
2004.73	11.8832
2007.24	12.3024
2009.76	12.1258
2012.27	16.5287
2014.79	15.8291
2017.3	16.2687
2019.82	17.151
2022.33	11.5278
2024.85	16.1807
2027.36	14.6045
2029.88	14.0101
2032.39	14.1939
2034.91	9.80163
2037.42	14.6894
2039.94	17.2313
2042.45	20.8854
2044.97	12.5119
2047.48	15.5298
2050	17.4105
2052.52	14.6411
2055.03	17.637
2057.55	17.6909
2060.06	18.6059
2062.58	20.2906
2065.09	12.0895
2067.61	16.3469
2070.12	13.7995
2072.64	18.4978
2075.15	17.6519
2077.67	19.0134
2080.18	16.8391
2082.7	16.3037
2085.21	15.197
2087.73	18.2285
2090.24	16.3418
2092.76	14.4238
2095.27	14.4106
2097.79	14.2114
2100.3	16.4925
2102.82	18.6181
2105.34	17.0738
2107.85	17.729
2110.37	19.2875
2112.88	18.3759
2115.4	18.4038
2117.91	16.0549
2120.43	13.1369
2122.94	13.3472
2125.46	14.5899
2127.97	16.246
2130.49	16.6161
2133	14.6389
2135.52	15.6034
2138.03	15.7801
2140.55	14.752
2143.06	12.4819
2145.58	14.2851
2148.09	16.1846
2150.61	16.5102
2153.125	17.1942
2155.64	17.4781
2158.16	15.5177
2160.67	18.3535
2163.19	21.091
2165.7	15.7909
2168.22	18.7979
2170.73	18.9546
2173.25	14.1445
2175.76	11.8013
2178.28	17.6502
2180.79	17.9766
2183.31	15.5865
2185.82	16.0636
2188.34	18.2027
2190.85	18.9723
2193.37	18.4464
2195.88	18.3543
2198.4	16.7419
2200.91	16.7048
2203.43	18.9366
2205.95	18.5489
2208.46	17.5015
2210.98	18.2352
2213.49	19.8762
2216.01	14.5516
2218.52	20.8415
2221.04	17.5514
2223.55	19.0341
2226.07	20.3709
2228.58	18.8119
2231.1	16.5043
2233.61	15.9202
2236.13	16.1104
2238.64	18.1166
2241.16	19.1512
2243.67	20.1672
2246.19	20.0012
2248.7	17.3988
2251.22	11.4156
2253.73	17.5154
2256.25	17.1076
2258.77	20.6759
2261.28	15.1367
2263.8	18.1788
2266.31	20.5483
2268.83	22.9782
2271.34	21.6839
2273.86	20.753
2276.37	20.5578
2278.89	20.1361
2281.4	19.656
2283.92	20.169
2286.43	24.6506
2288.95	21.3627
2291.46	22.9774
2293.98	24.0069
2296.49	21.8998
2299.01	20.0243
2301.52	19.1554
2304.04	18.2708
2306.55	19.3708
2309.07	22.1025
2311.59	22.42
2314.1	22.6862
2316.62	24.1537
2319.13	21.9493
2321.65	18.0532
2324.16	19.332
2326.68	21.8663
2329.19	35.6109
2331.71	62.8303
2334.22	90.9509
2336.74	94.1145
2339.25	69.9043
2341.77	37.5195
2344.28	25.7753
2346.8	24.1241
2349.31	20.2456
2351.83	21.5384
2354.34	20.1788
2356.86	26.5351
2359.375	21.5755
2361.89	21.3194
2364.41	24.4505
2366.92	24.1404
2369.44	17.9095
2371.95	23.9295
2374.47	22.2401
2376.98	25.5029
2379.5	21.7708
2382.01	18.3305
2384.53	18.9476
2387.04	18.6965
2389.56	21.4198
2392.07	25.3115
2394.59	26.1182
2397.1	27.9783
2399.62	26.1319
2402.13	23.4157
2404.65	24.1244
2407.16	24.2369
2409.68	26.5226
2412.2	26.967
2414.71	25.2584
2417.23	26.1549
2419.74	24.9847
2422.26	26.0117
2424.77	25.3616
2427.29	24.4482
2429.8	29.8844
2432.32	27.7071
2434.83	29.0102
2437.35	30.4975
2439.86	28.5514
2442.38	23.3946
2444.89	25.6058
2447.41	24.747
2449.92	24.378
2452.44	25.2412
2454.95	23.6635
2457.47	26.8094
2459.98	28.933
2462.5	25.4687
2465.02	25.0912
2467.53	29.5114
2470.05	25.1506
2472.56	22.5322
2475.08	26.4174
2477.59	27.3074
2480.11	25.7588
2482.62	27.0549
2485.14	26.4245
2487.65	28.8713
2490.17	26.125
2492.68	27.524
2495.2	21.3473
2497.71	24.3699
2500.23	26.2019
2502.74	26.9799
2505.26	25.5832
2507.77	27.965
2510.29	24.4573
2512.8	26.1345
2515.32	27.208
2517.84	28.3888
2520.35	25.6618
2522.87	29.1299
2525.38	33.1395
2527.9	27.6008
2530.41	21.4141
2532.93	25.1615
2535.44	24.633
2537.96	27.7352
2540.47	27.3099
2542.99	28.7889
2545.5	29.2654
2548.02	25.8239
2550.53	28.7216
2553.05	27.4153
2555.56	28.1258
2558.08	27.7747
2560.59	27.061
2563.11	28.5895
2565.625	25.4815
2568.14	29.5019
2570.66	29.6638
2573.17	30.7276
2575.69	29.6829
2578.2	30.6857
2580.72	24.7774
2583.23	31.3601
2585.75	30.7869
2588.26	32.1982
2590.78	26.8223
2593.29	28.4906
2595.81	34.1824
2598.32	29.0346
2600.84	25.8235
2603.35	26.7071
2605.87	26.7561
2608.38	27.9021
2610.9	28.344
2613.41	31.2601
2615.93	27.8886
2618.45	29.6243
2620.96	28.3106
2623.48	28.4767
2625.99	34.0883
2628.51	27.8662
2631.02	25.9808
2633.54	25.904
2636.05	28.983
2638.57	27.6344
2641.08	29.1267
2643.6	27.2749
2646.11	27.2647
2648.63	31.4572
2651.14	31.8933
2653.66	28.007
2656.17	25.9389
2658.69	28.5003
2661.2	31.1471
2663.72	26.5432
2666.23	28.0165
2668.75	27.2095
2671.27	31.0546
2673.78	30.7195
2676.3	30.7119
2678.81	29.0399
2681.33	31.4215
2683.84	33.0821
2686.36	30.0215
2688.87	31.51
2691.39	35.1543
2693.9	30.6889
2696.42	35.6373
2698.93	32.8887
2701.45	33.8758
2703.96	32.9122
2706.48	30.7732
2708.99	31.3006
2711.51	31.3195
2714.02	30.8445
2716.54	31.9544
2719.05	31.9533
2721.57	32.4587
2724.09	34.0054
2726.6	32.5003
2729.12	34.1506
2731.63	34.4572
2734.15	35.2693
2736.66	32.5846
2739.18	34.4904
2741.69	33.3925
2744.21	33.4093
2746.72	32.5806
2749.24	32.5308
2751.75	32.3819
2754.27	29.5007
2756.78	28.4993
2759.3	36.7164
2761.81	34.65
2764.33	32.8331
2766.84	31.8676
2769.36	32.5463
2771.875	33.4529
2774.39	31.0376
2776.91	29.1292
2779.42	32.9628
2781.94	34.3445
2784.45	34.4015
2786.97	34.481
2789.48	33.3731
2792	33.5779
2794.51	33.2654
2797.03	32.2628
2799.54	33.4134
2802.06	38.5328
2804.57	31.3746
2807.09	30.2949
2809.6	35.5452
2812.12	38.2242
2814.63	36.7781
2817.15	31.5385
2819.66	33.5717
2822.18	33.6059
2824.7	34.7764
2827.21	32.1517
2829.73	33.5994
2832.24	34.779
2834.76	33.4292
2837.27	34.7812
2839.79	32.8015
2842.3	35.8956
2844.82	36.052
2847.33	38.044
2849.85	35.5458
2852.36	36.5091
2854.88	32.8032
2857.39	35.6229
2859.91	37.2072
2862.42	33.5091
2864.94	36.2434
2867.45	39.4515
2869.97	35.671
2872.48	35.5336
2875	35.5691
2877.52	37.785
2880.03	39.291
2882.55	35.9032
2885.06	41.6829
2887.58	38.0034
2890.09	40.6697
2892.61	40.9614
2895.12	40.148
2897.64	39.8558
2900.15	40.486
2902.67	35.3223
2905.18	42.7831
2907.7	41.265
2910.21	39.3383
2912.73	38.3042
2915.24	37.3334
2917.76	42.3149
2920.27	38.3416
2922.79	36.6715
2925.3	38.3173
2927.82	40.7301
2930.34	36.0912
2932.85	40.958
2935.37	38.9802
2937.88	39.3257
2940.4	37.4515
2942.91	38.3863
2945.43	40.3341
2947.94	38.2788
2950.46	38.8997
2952.97	36.8004
2955.49	46.2681
2958	40.8111
2960.52	34.5751
2963.03	35.5626
2965.55	37.9237
2968.06	43.0796
2970.58	42.6963
2973.09	40.6772
2975.61	36.0322
2978.125	44.8145
2980.64	40.5476
2983.16	45.5346
2985.67	39.9822
2988.19	37.7908
2990.7	39.2771
2993.22	40.1703
2995.73	38.667
2998.25	44.5477
3000.76	44.4199
3003.28	37.9364
3005.79	41.1305
3008.31	38
3010.82	36.7176
3013.34	38.3168
3015.85	34.9972
3018.37	30.7877
3020.88	41.9897
3023.4	44.6712
3025.91	40.2749
3028.43	40.6694
3030.95	37.9497
3033.46	39.8963
3035.98	45.3818
3038.49	41.5685
3041.01	37.6934
3043.52	39.2872
3046.04	45.6577
3048.55	43.1651
3051.07	39.4468
3053.58	42.4077
3056.1	37.1422
3058.61	39.9832
3061.13	43.251
3063.64	42.6537
3066.16	38.3644
3068.67	45.2813
3071.19	42.3676
3073.7	43.035
3076.22	36.3611
3078.73	39.841
3081.25	43.9287
3083.77	45.7426
3086.28	39.9704
3088.8	42.3876
3091.31	42.9836
3093.83	42.931
3096.34	43.4921
3098.86	44.394
3101.37	43.6671
3103.89	39.6718
3106.4	45.9006
3108.92	44.9306
3111.43	46.1279
3113.95	42.2743
3116.46	41.7074
3118.98	39.0564
3121.49	43.5626
3124.01	41.6881
3126.52	42.8028
3129.04	39.5937
3131.55	40.7302
3134.07	42.0501
3136.59	42.2446
3139.1	38.9631
3141.62	42.2549
3144.13	40.3377
3146.65	49.3116
3149.16	46.4353
3151.68	43.0797
3154.19	47.9757
3156.71	40.7135
3159.22	37.6837
3161.74	39.0458
3164.25	40.8244
3166.77	48.1302
3169.28	47.6652
3171.8	47.7082
3174.31	48.5211
3176.83	45.8689
3179.34	50.7019
3181.86	45.3116
3184.375	42.8843
3186.89	47.6446
3189.41	47.5368
3191.92	46.6271
3194.44	47.0683
3196.95	46.6648
3199.47	46.1763
3201.98	47.194
3204.5	45.6141
3207.01	44.7456
3209.53	48.3165
3212.04	45.4528
3214.56	46.9894
3217.07	47.9262
3219.59	46.132
3222.1	47.747
3224.62	43.9719
3227.13	44.2756
3229.65	45.9345
3232.16	45.2801
3234.68	48.7827
3237.2	44.4495
3239.71	48.6452
3242.23	47.7875
3244.74	48.8611
3247.26	48.5575
3249.77	50.5874
3252.29	48.7696
3254.8	48.7604
3257.32	47.6693
3259.83	44.9055
3262.35	44.5518
3264.86	51.824
3267.38	47.9205
3269.89	48.8377
3272.41	48.8866
3274.92	47.4084
3277.44	45.3051
3279.95	45.7268
3282.47	50.404
3284.98	44.2324
3287.5	48.5145
3290.02	48.2679
3292.53	50.8954
3295.05	48.4152
3297.56	42.2716
3300.08	47.9858
3302.59	44.7393
3305.11	47.0978
3307.62	46.3666
3310.14	52.1306
3312.65	48.6441
3315.17	44.4229
3317.68	46.1649
3320.2	48.6191
3322.71	48.2018
3325.23	48.4439
3327.74	51.6678
3330.26	54.5395
3332.77	50.2986
3335.29	52.7901
3337.8	55.6049
3340.32	50.5494
3342.84	54.6302
3345.35	51.3938
3347.87	48.0389
3350.38	47.1349
3352.9	43.8838
3355.41	47.5143
3357.93	47.8833
3360.44	54.5192
3362.96	50.3735
3365.47	50.6233
3367.99	52.3009
3370.5	49.9235
3373.02	48.2714
3375.53	47.7687
3378.05	50.9469
3380.56	56.4447
3383.08	54.1316
3385.59	51.4165
3388.11	49.6549
3390.625	51.8704
3393.14	50.7365
3395.66	45.8843
3398.17	50.3327
3400.69	49.4004
3403.2	51.0293
3405.72	48.3093
3408.23	54.3632
3410.75	50.6922
3413.26	49.8566
3415.78	51.4472
3418.29	53.8446
3420.81	53.1695
3423.32	50.9838
3425.84	56.8475
3428.35	49.1272
3430.87	55.0408
3433.38	51.244
3435.9	53.5525
3438.41	54.6625
3440.93	48.0171
3443.45	52.172
3445.96	52.1931
3448.48	55.0941
3450.99	53.1857
3453.51	55.4757
3456.02	47.94
3458.54	53.8395
3461.05	53.6033
3463.57	51.7115
3466.08	49.3555
3468.6	45.9508
3471.11	49.3552
3473.63	49.1794
3476.14	55.513
3478.66	54.3809
3481.17	48.8519
3483.69	43.4626
3486.2	42.9412
3488.72	52.7202
3491.23	56.3358
3493.75	50.7529
3496.27	57.3647
3498.78	51.9229
3501.3	54.4002
3503.81	58.9703
3506.33	59.4469
3508.84	53.8433
3511.36	51.654
3513.87	49.6488
3516.39	51.5541
3518.9	53.3379
3521.42	52.8112
3523.93	52.4326
3526.45	50.2113
3528.96	52.082
3531.48	53.2404
3533.99	55.0249
3536.51	58.2704
3539.02	59.6756
3541.54	58.5698
3544.05	55.0278
3546.57	51.7868
3549.09	58.2907
3551.6	57.4446
3554.12	55.5272
3556.63	52.7124
3559.15	48.2409
3561.66	58.7441
3564.18	57.9247
3566.69	54.2446
3569.21	55.7264
3571.72	60.251
3574.24	56.5481
3576.75	48.1835
3579.27	52
3581.78	52.0665
3584.3	61.2942
3586.81	55.4331
3589.33	54.4026
3591.84	54.6717
3594.36	55.8979
3596.875	56.2003
3599.39	56.1784
3601.91	55.7152
3604.42	54.0526
3606.94	57.0855
3609.45	53.2206
3611.97	51.5887
3614.48	59.3502
3617	52.4887
3619.51	55.9912
3622.03	57.1789
3624.54	59.0128
3627.06	57.132
3629.57	58.1127
3632.09	57.1609
3634.6	62.7797
3637.12	56.1537
3639.63	50.881
3642.15	54.3795
3644.66	60.7506
3647.18	57.6609
3649.7	50.5774
3652.21	58.8591
3654.73	61.1449
3657.24	58.5196
3659.76	59.4572
3662.27	64.0152
3664.79	60.7635
3667.3	56.4446
3669.82	59.0034
3672.33	58.0384
3674.85	57.4543
3677.36	55.2012
3679.88	55.7758
3682.39	55.605
3684.91	55.7085
3687.42	53.1934
3689.94	56.6247
3692.45	56.952
3694.97	56.8141
3697.48	58.0933
3700	59.9623