File: Example Data/Raman/Kara/12-20-10/Si wafer/Siwafer_3.txt
400	115.03
402.515	105.616
405.03	101.478
407.546	106.2
410.061	106.2
412.576	104.717
415.091	102.929
417.607	102.999
420.122	106.182
422.637	108.946
425.152	113.041
427.668	108.875
430.183	105.499
432.698	108.374
435.213	112.773
437.729	105.029
440.244	107.693
442.759	101.793
445.274	89.2222
447.79	84.6
450.305	84.6
452.82	81.2327
455.335	77.4182
457.851	71.9246
460.366	66.0629
462.881	69.6582
465.396	72.9385
467.912	76.8103
470.427	76.7008
472.942	74.2279
475.457	76.0433
477.973	82.591
480.488	82.3533
483.003	83.538
485.518	88.8297
488.034	97.2751
490.549	103.176
493.064	104.662
495.579	118.385
498.095	131.455
500.61	149.097
503.125	188.977
505.64	242.996
508.155	354.962
510.671	586.438
513.186	1130.13
515.701	2118.84
518.216	3519.6
520.732	4138.01
523.247	4093.39
525.762	3589.26
528.277	2787.67
530.793	1846.75
533.308	1038.81
535.823	668.37
538.338	470.664
540.854	354.343
543.369	280.082
545.884	247.251
548.399	218.713
550.915	200.335
553.43	185.573
555.945	172.222
558.46	158.719
560.976	143.131
563.491	136.852
566.006	129.376
568.521	124.44
571.037	118.368
573.552	109.457
576.067	110.947
578.582	105.89
581.098	107.856
583.613	102.984
586.128	96.4979
588.643	100.8
591.159	100.8
593.674	97.5675
596.189	103.55
598.704	100.996
601.219	92.9513
603.735	97.5066
606.25	98.5027
608.765	104.297
611.281	104.226
613.796	107.823
616.311	115.777
618.826	118.036
621.341	116.206
623.857	111.718
626.372	111.341
628.887	112.603
631.402	108.809
633.918	94.517
636.433	93.5177
638.948	94.871
641.463	96.0832
643.979	95.874
646.494	96.4159
649.009	101.6
651.524	101.6
654.04	100.71
656.555	101.554
659.07	105.203
661.585	108.656
664.101	107.434
666.616	111.781
669.131	113.259
671.646	101.619
674.162	95.9798
676.677	100.949
679.192	104.428
681.707	98.2305
684.223	92.9665
686.738	96.9113
689.253	96.6447
691.768	93.5189
694.284	96.2
696.799	96.2
699.314	90.3561
701.829	88.8698
704.344	92.1389
706.86	90.8309
709.375	82.0906
711.89	86.3954
714.406	86.0589
716.921	91.1326
719.436	89.0131
721.951	86.8568
724.466	89.7308
726.982	90.2598
729.497	91.1023
732.012	90.0087
734.527	92.7718
737.043	91.2107
739.558	87.4598
742.073	90.7532
744.588	90.4156
747.104	99.5726
749.619	98.0364
752.134	96.6909
754.649	93.4772
757.165	87.3356
759.68	94.4194
762.195	101.015
764.71	96.1038
767.226	100.24
769.741	106.105
772.256	105.596
774.771	100.525
777.287	101.542
779.802	103.357
782.317	99.1509
784.832	99.7563
787.348	100.817
789.863	98.3791
792.378	106.361
794.893	114.508
797.409	113.1
799.924	107.408
802.439	106.602
804.954	110.793
807.469	112.907
809.985	113.587
812.5	115.936
815.015	118.728
817.531	120.228
820.046	117.74
822.561	115.577
825.076	123.075
827.591	121.882
830.107	112.594
832.622	123.246
835.137	125.317
837.652	120.27
840.168	120.073
842.683	118.269
845.198	110.418
847.713	109.906
850.229	115.079
852.744	119.053
855.259	117.11
857.774	110.65
860.29	108.385
862.805	112.489
865.32	113.899
867.835	119.284
870.351	117.249
872.866	109.666
875.381	107.322
877.896	109.682
880.412	106.424
882.927	108.684
885.442	103.93
887.957	99.1852
890.473	98.4474
892.988	98.9372
895.503	96.6987
898.018	94.2934
900.534	96.2635
903.049	94.4212
905.564	90.526
908.079	87.5998
910.594	88.1915
913.11	94.2686
915.625	98.5721
918.14	100.861
920.656	98.9809
923.171	102.979
925.686	110.127
928.201	116.081
930.716	128.01
933.232	146.637
935.747	172.712
938.262	210.058
940.777	242.752
943.293	262.348
945.808	271.3
948.323	275.86
950.838	266.701
953.354	282.168
955.869	283.36
958.384	276.015
960.899	272.19
963.415	274.599
965.93	276.328
968.445	272.495
970.96	274.227
973.476	280.174
975.991	282.188
978.506	288.158
981.021	287.115
983.537	276.948
986.052	275.101
988.567	253.581
991.082	234.428
993.598	205.799
996.113	184.071
998.628	164.947
1001.14	143.377
1003.66	123.891
1006.17	117.539
1008.69	114.234
1011.2	108.015
1013.72	104.017
1016.23	99.0552
1018.75	93.9757
1021.27	90.1457
1023.78	86.7439
1026.3	82.2094
1028.81	77.6734
1031.33	72.3547
1033.84	73.8788
1036.36	68.9669
1038.87	60.2357
1041.39	55.8
1043.9	55.9183
1046.42	56.2854
1048.93	43.6958
1051.45	52.3723
1053.96	45.0739
1056.48	43.2509
1058.99	47.433
1061.51	46.3937
1064.02	40.765
1066.54	39.4869
1069.05	42.8166
1071.57	42.5791
1074.09	40.5715
1076.6	33.6637
1079.12	29.5404
1081.63	33.1947
1084.15	37.6453
1086.66	34.6603
1089.18	31.6741
1091.69	33.3161
1094.21	32.1746
1096.72	31.5113
1099.24	30.6405
1101.75	29.4
1104.27	28.7727
1106.78	26.4585
1109.3	29.4532
1111.81	30.7723
1114.33	29.8502
1116.84	27.3607
1119.36	25.9037
1121.875	24.3463
1124.39	23.8138
1126.91	29.515
1129.42	26.2146
1131.94	27.451
1134.45	27.7554
1136.97	21.9919
1139.48	22.2618
1142	21.4926
1144.51	17.861
1147.03	20.6719
1149.54	21.8672
1152.06	13.9012
1154.57	20.9262
1157.09	19.1046
1159.6	17.6264
1162.12	15.7719
1164.63	16.4918
1167.15	19.2106
1169.66	17.3016
1172.18	18.0705
1174.7	22.3298
1177.21	17.7782
1179.73	15.9369
1182.24	16.4503
1184.76	16.6034
1187.27	15.5846
1189.79	14.3261
1192.3	14.1218
1194.82	16.6742
1197.33	14.539
1199.85	11.5693
1202.36	16.4936
1204.88	15.6563
1207.39	13.8
1209.91	17.4387
1212.42	22.8279
1214.94	20.362
1217.45	11.5357
1219.97	18.3188
1222.48	18.771
1225	17.0043
1227.52	14.7332
1230.03	13.0518
1232.55	11.2874
1235.06	9.99296
1237.58	11.3932
1240.09	15.1105
1242.61	15.9862
1245.12	13.6605
1247.64	14.6722
1250.15	16.5196
1252.67	13.6805
1255.18	14.3838
1257.7	15.8321
1260.21	13.8102
1262.73	16.5185
1265.24	14.4763
1267.76	18.0659
1270.27	18.8913
1272.79	19.3048
1275.3	14.7782
1277.82	13.8526
1280.34	15.5489
1282.85	15.3448
1285.37	12.7267
1287.88	10.344
1290.4	14.3015
1292.91	12.6815
1295.43	13.4555
1297.94	11.1803
1300.46	12.7649
1302.97	15.4506
1305.49	16.5081
1308	15.6772
1310.52	14.2947
1313.03	14.1322
1315.55	14.8135
1318.06	14.9942
1320.58	13.4275
1323.09	15.0654
1325.61	15.0554
1328.125	13.8644
1330.64	15.449
1333.16	16.2268
1335.67	12.9653
1338.19	12.2984
1340.7	16.9233
1343.22	13.0755
1345.73	18.1494
1348.25	17.2786
1350.76	22.4162
1353.28	17.5033
1355.79	18.2929
1358.31	20.5691
1360.82	18.3117
1363.34	18.175
1365.85	19.8686
1368.37	22.6795
1370.88	19.2266
1373.4	10.9022
1375.91	13.7312
1378.43	15.7529
1380.95	13.0486
1383.46	14.8738
1385.98	18.0901
1388.49	17.1171
1391.01	14.8196
1393.52	14.4579
1396.04	17.3436
1398.55	16.8333
1401.07	22.3041
1403.58	16.4963
1406.1	16.833
1408.61	17.662
1411.13	16.2097
1413.64	17.9826
1416.16	17.7265
1418.67	12.9558
1421.19	15.759
1423.7	20.2685
1426.22	14.4208
1428.73	14.7867
1431.25	15.1529
1433.77	19.5071
1436.28	17.0319
1438.8	13.0817
1441.31	16.4046
1443.83	18.6421
1446.34	17.0553
1448.86	16.0199
1451.37	12.6557
1453.89	16.011
1456.4	17.5303
1458.92	19.9168
1461.43	20.1773
1463.95	16.0097
1466.46	18.7707
1468.98	22.5209
1471.49	19.0609
1474.01	18.1105
1476.52	21.9706
1479.04	20.6697
1481.55	14.0654
1484.07	11.434
1486.59	13.2024
1489.1	19.359
1491.62	15.6709
1494.13	13.52
1496.65	9.62551
1499.16	15.4586
1501.68	13.0429
1504.19	15.918
1506.71	15.358
1509.22	10.4198
1511.74	14.1288
1514.25	16.0397
1516.77	11.9341
1519.28	12.6
1521.8	12.6404
1524.31	14.6765
1526.83	13.7558
1529.34	13.7593
1531.86	12.0658
1534.375	9.32132
1536.89	11.0833
1539.41	14.309
1541.92	15.4864
1544.44	14.521
1546.95	12.312
1549.47	12.6815
1551.98	17.4432
1554.5	22.3851
1557.01	22.2362
1559.53	31.5354
1562.04	35.3092
1564.56	24.8484
1567.07	16.6413
1569.59	11.0624
1572.1	10.9591
1574.62	9.61054
1577.13	8.81882
1579.65	11.3341
1582.16	10.5705
1584.68	7.83632
1587.2	10.3285
1589.71	9.84326
1592.23	8.62723
1594.74	9.18743
1597.26	13.0348
1599.77	15.4348
1602.29	13.1396
1604.8	11.5393
1607.32	11.2
1609.83	10.0247
1612.35	10.7698
1614.86	11.9243
1617.38	13.6589
1619.89	16.2682
1622.41	14.9846
1624.92	14.5654
1627.44	14.797
1629.95	12.3511
1632.47	11.7403
1634.98	8.92605
1637.5	10.2351
1640.02	11.4028
1642.53	10.3599
1645.05	13.7149
1647.56	13.1063
1650.08	13.9016
1652.59	13.1685
1655.11	9.40292
1657.62	8.69901
1660.14	10.2996
1662.65	9.22049
1665.17	8.99295
1667.68	9.37997
1670.2	9.10198
1672.71	13.9727
1675.23	13.5864
1677.74	12.4544
1680.26	9.34561
1682.77	14.7276
1685.29	11.5527
1687.8	7.03716
1690.32	5.25934
1692.84	10.0912
1695.35	15.2383
1697.87	14.2409
1700.38	11.0677
1702.9	10.8462
1705.41	12.3606
1707.93	14.6485
1710.44	17.6
1712.96	16.1409
1715.47	9.94417
1717.99	10.2822
1720.5	17.3277
1723.02	15.4309
1725.53	11.107
1728.05	12.389
1730.56	18.092
1733.08	17.4792
1735.59	9.53245
1738.11	10.3497
1740.625	13.5197
1743.14	14.2831
1745.66	16.3418
1748.17	14.986
1750.69	11.8634
1753.2	13.1389
1755.72	14.2565
1758.23	13.0664
1760.75	10.6516
1763.26	8.54008
1765.78	12.9248
1768.29	8.9065
1770.81	14.1858
1773.32	8.27756
1775.84	12.0972
1778.35	11.0846
1780.87	7.63691
1783.38	10.5632
1785.9	7.6939
1788.41	12.3737
1790.93	12.4964
1793.45	13.4001
1795.96	15.8222
1798.48	14.1255
1800.99	13.0632
1803.51	13.4017
1806.02	14.0036
1808.54	15.0341
1811.05	12.8557
1813.57	10.5338
1816.08	11.0524
1818.6	9.36768
1821.11	14.7255
1823.63	16.0106
1826.14	9.80306
1828.66	12.1891
1831.17	10.2684
1833.69	11.3733
1836.2	10.0259
1838.72	15.8497
1841.23	13.4806
1843.75	13.2
1846.27	11.7015
1848.78	11.4
1851.3	12.4639
1853.81	9.75861
1856.33	8.73776
1858.84	15.3376
1861.36	15.2098
1863.87	14.169
1866.39	14.45
1868.9	12.6591
1871.42	12.8464
1873.93	15.1181
1876.45	12.5076
1878.96	8.74897
1881.48	11.1609
1883.99	10.8629
1886.51	9.77733
1889.02	13.5867
1891.54	13.0557
1894.05	16.0864
1896.57	11.0223
1899.09	13.0943
1901.6	12.277
1904.12	11.4033
1906.63	13.9914
1909.15	13.8403
1911.66	16.5591
1914.18	12.7733
1916.69	7.21258
1919.21	15.8077
1921.72	13.4807
1924.24	15.3689
1926.75	16.1277
1929.27	10.6492
1931.78	14.4118
1934.3	10.6682
1936.81	11.2297
1939.33	12.0622
1941.84	10.1398
1944.36	11.2473
1946.875	14.1222
1949.39	13.6639
1951.91	12.3732
1954.42	13.1786
1956.94	13.1671
1959.45	11.0064
1961.97	13.2112
1964.48	13.3049
1967	11.0132
1969.51	14.2
1972.03	14.7431
1974.54	15.0865
1977.06	14.546
1979.57	15.4604
1982.09	16.7332
1984.6	17.1985
1987.12	12.4947
1989.63	8.04712
1992.15	10.2607
1994.66	14.738
1997.18	13.2299
1999.7	14.6512
2002.21	15.9565
2004.73	12.0937
2007.24	16.0095
2009.76	13.3893
2012.27	14.804
2014.79	12.9309
2017.3	14.4511
2019.82	12.0332
2022.33	12.7414
2024.85	10.6604
2027.36	15.5858
2029.88	19.1395
2032.39	16.4853
2034.91	14.2964
2037.42	12.8805
2039.94	7.96562
2042.45	18.6065
2044.97	19.238
2047.48	14.913
2050	14.2237
2052.52	16.6368
2055.03	16.4845
2057.55	11.9874
2060.06	16.7322
2062.58	21.9406
2065.09	14.7805
2067.61	13.1618
2070.12	17.8406
2072.64	16.9425
2075.15	14.0519
2077.67	13.7098
2080.18	13.8
2082.7	13.6481
2085.21	13.6
2087.73	13.3019
2090.24	16.0369
2092.76	15.7419
2095.27	13.1057
2097.79	13.8815
2100.3	14.36
2102.82	15.586
2105.34	18.096
2107.85	17.1976
2110.37	14.3905
2112.88	16.5796
2115.4	17.6062
2117.91	16.8114
2120.43	15.3435
2122.94	14.9984
2125.46	13.7825
2127.97	14.737
2130.49	15.9117
2133	12.9315
2135.52	13.2573
2138.03	13.1619
2140.55	12.7745
2143.06	15.0724
2145.58	16.1182
2148.09	14.6025
2150.61	10.45
2153.125	13.6147
2155.64	17.0948
2158.16	17.9684
2160.67	15.1197
2163.19	15.3313
2165.7	14.7577
2168.22	18.7792
2170.73	11.0166
2173.25	13.7401
2175.76	15.4531
2178.28	12.6898
2180.79	14.0985
2183.31	17.5171
2185.82	14.3988
2188.34	11.2293
2190.85	14.2542
2193.37	13.9401
2195.88	14.638
2198.4	16.7124
2200.91	15.947
2203.43	15.8633
2205.95	17.8692
2208.46	16.5748
2210.98	16.7141
2213.49	15.0169
2216.01	14.9909
2218.52	14.3253
2221.04	17.7795
2223.55	18.3788
2226.07	16.3881
2228.58	17.1149
2231.1	15.8723
2233.61	19.9148
2236.13	20.2459
2238.64	18.338
2241.16	17.3895
2243.67	17.7558
2246.19	16.6909
2248.7	14.2096
2251.22	20.6213
2253.73	16.2429
2256.25	16.2229
2258.77	19.7391
2261.28	18.4108
2263.8	20.53
2266.31	17.9134
2268.83	18.1192
2271.34	17.467
2273.86	18.6514
2276.37	17.3578
2278.89	16.5732
2281.4	18.0092
2283.92	21.6081
2286.43	20.3298
2288.95	19.0102
2291.46	23.4309
2293.98	22.8171
2296.49	19.2928
2299.01	18.0365
2301.52	20.5768
2304.04	21.049
2306.55	19.6698
2309.07	20.6952
2311.59	21.4744
2314.1	20.6297
2316.62	20.1002
2319.13	20.1173
2321.65	19.4673
2324.16	18.5174
2326.68	25.5378
2329.19	36.2704
2331.71	58.587
2334.22	93.2281
2336.74	98.1697
2339.25	68.2785
2341.77	37.6177
2344.28	23.1278
2346.8	19.1784
2349.31	17.3362
2351.83	16.6549
2354.34	18.8091
2356.86	19.6045
2359.375	17.8187
2361.89	22.5402
2364.41	19.2288
2366.92	23.9698
2369.44	19.2046
2371.95	17.4965
2374.47	18.4314
2376.98	24.3252
2379.5	18.6248
2382.01	20.2895
2384.53	23.7345
2387.04	22.5748
2389.56	23.3899
2392.07	22.9046
2394.59	21.0263
2397.1	20.3377
2399.62	21.2557
2402.13	22.3073
2404.65	20.3756
2407.16	20.4815
2409.68	21.3719
2412.2	22.0879
2414.71	25.39
2417.23	23.0581
2419.74	20.9128
2422.26	24.0348
2424.77	25.1445
2427.29	23.4592
2429.8	20.7231
2432.32	23.0562
2434.83	23.4581
2437.35	19.2495
2439.86	25.4924
2442.38	26.6365
2444.89	21.1396
2447.41	24.0257
2449.92	25.7849
2452.44	25.6056
2454.95	27.4361
2457.47	26.4416
2459.98	24.3417
2462.5	23.4009
2465.02	19.9489
2467.53	22.6072
2470.05	26.3344
2472.56	24.5126
2475.08	21.3049
2477.59	24.1127
2480.11	28.0465
2482.62	24.8905
2485.14	24.8348
2487.65	24.2382
2490.17	23.5002
2492.68	27.8906
2495.2	26.5893
2497.71	22.5289
2500.23	24.2669
2502.74	28.2363
2505.26	26.7574
2507.77	26.137
2510.29	26.9757
2512.8	23.9014
2515.32	22.8332
2517.84	24.8087
2520.35	22.6807
2522.87	26.4921
2525.38	29.8314
2527.9	29.9656
2530.41	27.7092
2532.93	25.4335
2535.44	25.264
2537.96	27.2447
2540.47	26.0278
2542.99	29.2653
2545.5	23.3612
2548.02	26.541
2550.53	28.6866
2553.05	28.2538
2555.56	28.6092
2558.08	27.4337
2560.59	26.6044
2563.11	27.4005
2565.625	26.093
2568.14	25.2864
2570.66	27.7305
2573.17	27.8414
2575.69	27.012
2578.2	26.6844
2580.72	26.4864
2583.23	26.1748
2585.75	26.5411
2588.26	28.1472
2590.78	25.153
2593.29	28.3848
2595.81	27.0459
2598.32	26.7564
2600.84	25.7466
2603.35	28.5722
2605.87	27.3559
2608.38	30.6271
2610.9	26.4763
2613.41	30.0534
2615.93	30.3029
2618.45	25.9123
2620.96	26.8703
2623.48	28.1863
2625.99	30.848
2628.51	28.1315
2631.02	31.1152
2633.54	29.0964
2636.05	32.3623
2638.57	27.9087
2641.08	27.1669
2643.6	29.8461
2646.11	30.658
2648.63	31.5223
2651.14	30.1452
2653.66	28.8129
2656.17	29.6773
2658.69	26.6681
2661.2	29.8298
2663.72	29.6302
2666.23	28.4451
2668.75	24.7695
2671.27	32.8948
2673.78	33.4994
2676.3	28.6228
2678.81	28.8982
2681.33	32.4141
2683.84	32.1871
2686.36	31.6073
2688.87	29.6938
2691.39	27.926
2693.9	35.0207
2696.42	31.5114
2698.93	30.3484
2701.45	28.8524
2703.96	32.196
2706.48	31.6838
2708.99	30.3074
2711.51	29.9666
2714.02	33.0196
2716.54	31.7106
2719.05	29.2575
2721.57	31.657
2724.09	29.814
2726.6	32.4714
2729.12	30.3779
2731.63	31.687
2734.15	33.1415
2736.66	27.062
2739.18	33.2519
2741.69	31.1888
2744.21	31.4885
2746.72	29.471
2749.24	33.1687
2751.75	32.5467
2754.27	31.4672
2756.78	31.4731
2759.3	29.7595
2761.81	33.99
2764.33	32.0235
2766.84	30.2849
2769.36	31.4116
2771.875	31.8846
2774.39	29.5281
2776.91	32.4837
2779.42	34.8111
2781.94	32.0971
2784.45	31.9767
2786.97	32.4563
2789.48	31.5654
2792	31.7325
2794.51	28.2313
2797.03	30.3717
2799.54	33.5023
2802.06	31.6869
2804.57	32.6291
2807.09	32.6504
2809.6	32.9061
2812.12	34.1479
2814.63	33.1541
2817.15	33.5443
2819.66	36.1332
2822.18	33.9753
2824.7	36.9369
2827.21	34.4894
2829.73	34.8834
2832.24	33.1215
2834.76	31.7404
2837.27	35.3292
2839.79	37.3936
2842.3	35.1153
2844.82	31.7564
2847.33	31.6864
2849.85	37.2929
2852.36	33.946
2854.88	33.4731
2857.39	37.2742
2859.91	34.3056
2862.42	34.2953
2864.94	37.0579
2867.45	35.95
2869.97	36.1101
2872.48	34.1225
2875	33.6295
2877.52	33.46
2880.03	30.1347
2882.55	37.3692
2885.06	35.6739
2887.58	34.7053
2890.09	29.175
2892.61	35.8755
2895.12	36.2813
2897.64	34.4224
2900.15	33.7796
2902.67	38.8171
2905.18	42.7413
2907.7	35.99
2910.21	35.1017
2912.73	38.1967
2915.24	39.0705
2917.76	36.4754
2920.27	38.8175
2922.79	40.959
2925.3	37.8008
2927.82	36.9694
2930.34	37.3946
2932.85	36.5848
2935.37	40.7275
2937.88	38.299
2940.4	38.7657
2942.91	35.3293
2945.43	38.1662
2947.94	40.3042
2950.46	38.8601
2952.97	37.1343
2955.49	40.42
2958	41.1084
2960.52	39.291
2963.03	41.2205
2965.55	40.4186
2968.06	39.267
2970.58	37.8242
2973.09	37.5183
2975.61	42.2182
2978.125	42.5642
2980.64	35.9993
2983.16	41.2603
2985.67	35.9439
2988.19	33.8849
2990.7	33.8769
2993.22	37.5037
2995.73	40.4086
2998.25	42.1373
3000.76	40.7706
3003.28	41.5529
3005.79	37.6916
3008.31	39.4185
3010.82	39.7657
3013.34	38.1033
3015.85	41.6044
3018.37	42.2591
3020.88	36.9053
3023.4	41.6641
3025.91	41.539
3028.43	37.7992
3030.95	39.4797
3033.46	41.5191
3035.98	38.8427
3038.49	33.3065
3041.01	40.8654
3043.52	35.6536
3046.04	41.477
3048.55	42.3238
3051.07	39.5071
3053.58	36.7682
3056.1	35.1603
3058.61	39.3445
3061.13	37.7481
3063.64	29.8145
3066.16	38.6849
3068.67	35.4318
3071.19	40.0877
3073.7	39.0097
3076.22	41.3948
3078.73	39.6747
3081.25	42.1985
3083.77	38.2904
3086.28	37.4789
3088.8	41.5839
3091.31	45.4732
3093.83	43.4568
3096.34	44.9182
3098.86	42.003
3101.37	38.0304
3103.89	38.4545
3106.4	43.5274
3108.92	44.9823
3111.43	39.5127
3113.95	40.4018
3116.46	36.117
3118.98	40.6302
3121.49	44.7643
3124.01	42.5486
3126.52	38.2555
3129.04	37.5531
3131.55	40.9304
3134.07	42.2636
3136.59	40.4857
3139.1	39.1363
3141.62	41.8741
3144.13	35.4433
3146.65	41.7483
3149.16	42.7441
3151.68	43.5989
3154.19	42.7482
3156.71	39.5591
3159.22	36.06
3161.74	49.2966
3164.25	43.8015
3166.77	41.577
3169.28	41.1286
3171.8	39.487
3174.31	35.3473
3176.83	47.0054
3179.34	44.2442
3181.86	43.6418
3184.375	43.2138
3186.89	43.7498
3189.41	43.1407
3191.92	44.764
3194.44	52.1714
3196.95	43.8467
3199.47	43.3358
3201.98	43.5824
3204.5	49.0676
3207.01	48.1767
3209.53	44.7887
3212.04	40.5847
3214.56	50.2672
3217.07	40.0247
3219.59	47.5898
3222.1	48.929
3224.62	42.9914
3227.13	40.3958
3229.65	41.1985
3232.16	47.136
3234.68	49.4055
3237.2	44.1448
3239.71	45.4034
3242.23	47.1852
3244.74	45.201
3247.26	46.1608
3249.77	47.9227
3252.29	47.3196
3254.8	42.7976
3257.32	42.7783
3259.83	46.1101
3262.35	44.8735
3264.86	45.4837
3267.38	44.4883
3269.89	46.2166
3272.41	48.1209
3274.92	46.9035
3277.44	46.854
3279.95	47.4916
3282.47	46.5258
3284.98	43.769
3287.5	45.4556
3290.02	46.2877
3292.53	39.9975
3295.05	50.507
3297.56	46.7104
3300.08	46.3147
3302.59	46.7339
3305.11	48.4547
3307.62	44.4079
3310.14	46.7717
3312.65	47.7113
3315.17	51.5877
3317.68	50.2037
3320.2	47.3181
3322.71	48.7742
3325.23	44.5799
3327.74	52.3573
3330.26	53.8378
3332.77	47.5179
3335.29	48.6042
3337.8	49.4746
3340.32	47.8643
3342.84	50.3317
3345.35	46.8249
3347.87	48.4404
3350.38	44.5658
3352.9	46.1494
3355.41	43.9812
3357.93	46.841
3360.44	49.8693
3362.96	49.7305
3365.47	49.9562
3367.99	50.4938
3370.5	45.1512
3373.02	45.9954
3375.53	46.7465
3378.05	39.6667
3380.56	47.1817
3383.08	53.6261
3385.59	49.5037
3388.11	55.8353
3390.625	49.5768
3393.14	51.059
3395.66	49.212
3398.17	47.5117
3400.69	46.267
3403.2	53.4498
3405.72	47.384
3408.23	48.6413
3410.75	48.9351
3413.26	48.965
3415.78	42.6124
3418.29	51.2609
3420.81	49.1116
3423.32	52.4209
3425.84	49.7588
3428.35	52.7197
3430.87	47.5109
3433.38	47.5833
3435.9	52.1054
3438.41	55.8756
3440.93	47.6669
3443.45	52.5295
3445.96	45.6764
3448.48	47.3113
3450.99	52.5427
3453.51	55.6229
3456.02	52.2559
3458.54	48.955
3461.05	53.2634
3463.57	53.2732
3466.08	50.9893
3468.6	46.9462
3471.11	54.1548
3473.63	50.5801
3476.14	49.839
3478.66	49.8067
3481.17	52.2968
3483.69	58.6476
3486.2	46.6867
3488.72	54.2959
3491.23	56.0025
3493.75	47.7031
3496.27	54.172
3498.78	56.3982
3501.3	48.6196
3503.81	55.1361
3506.33	54.8557
3508.84	54.0295
3511.36	53.7102
3513.87	50.6274
3516.39	47.3364
3518.9	46.6293
3521.42	51.8762
3523.93	50.6252
3526.45	53.4113
3528.96	53.7129
3531.48	50.1289
3533.99	57.6255
3536.51	49.1816
3539.02	51.5594
3541.54	54.6819
3544.05	53.5969
3546.57	51.0144
3549.09	59.7015
3551.6	46.5739
3554.12	54.436
3556.63	56.9952
3559.15	52.6917
3561.66	56.5285
3564.18	56.7479
3566.69	49.2037
3569.21	56.019
3571.72	50.4791
3574.24	51.0509
3576.75	56.8745
3579.27	46.5332
3581.78	46.6794
3584.3	54.7181
3586.81	57.0823
3589.33	52.3387
3591.84	55.6744
3594.36	57.6866
3596.875	53.7436
3599.39	54.7397
3601.91	55.4137
3604.42	56.1771
3606.94	54.2779
3609.45	54.1751
3611.97	61.1373
3614.48	50.8141
3617	52.8048
3619.51	56.5785
3622.03	61.7936
3624.54	52.7033
3627.06	48.9174
3629.57	52.1392
3632.09	54.1942
3634.6	50.3577
3637.12	52.9884
3639.63	56.1979
3642.15	60.1857
3644.66	64.2589
3647.18	58.2077
3649.7	57.7313
3652.21	57.2627
3654.73	58.3116
3657.24	59.4613
3659.76	64.7865
3662.27	63.7999
3664.79	59.9943
3667.3	57.7181
3669.82	51.3388
3672.33	52.988
3674.85	55.9065
3677.36	57.6204
3679.88	55.4404
3682.39	55.2067
3684.91	51.2135
3687.42	50.3444
3689.94	53.3571
3692.45	56.9584
3694.97	57.4876
3697.48	53.6025
3700	57.678