File: Example Data/Raman/Kara/12-20-10/Si wafer/Siwafer_1.txt
400	112.539
402.515	112.658
405.03	111.819
407.546	110.64
410.061	111.29
412.576	110.321
415.091	110.871
417.607	109.783
420.122	105.252
422.637	109.967
425.152	104.491
427.668	100.522
430.183	101.712
432.698	107.086
435.213	110.181
437.729	105.02
440.244	100.305
442.759	98.4635
445.274	97.8839
447.79	94.7536
450.305	89.5312
452.82	81.0832
455.335	76.2467
457.851	75.4685
460.366	75.6549
462.881	69.445
465.396	69.2
467.912	72.8123
470.427	77.5511
472.942	79.8492
475.457	77.21
477.973	83.2667
480.488	81.0141
483.003	89.7211
485.518	98.4761
488.034	97.6452
490.549	103.382
493.064	110.541
495.579	114.955
498.095	128.938
500.61	154.309
503.125	185.61
505.64	237.658
508.155	348.081
510.671	589.913
513.186	1158.1
515.701	2180.26
518.216	3609.95
520.732	4256.48
523.247	4182.6
525.762	3610.47
528.277	2753.01
530.793	1813.82
533.308	1026.96
535.823	661.512
538.338	469.648
540.854	363.344
543.369	296.967
545.884	257.719
548.399	218.459
550.915	197.971
553.43	180.633
555.945	167.654
558.46	157.566
560.976	137.926
563.491	149.327
566.006	142.197
568.521	130.652
571.037	122.968
573.552	120.885
576.067	116.746
578.582	113.407
581.098	108.468
583.613	102.456
586.128	99.1056
588.643	101.266
591.159	100.271
593.674	93.2732
596.189	100.188
598.704	103.713
601.219	100.659
603.735	101.88
606.25	106.362
608.765	100.803
611.281	103.446
613.796	111.576
616.311	120.003
618.826	124.657
621.341	120.83
623.857	117.89
626.372	114.832
628.887	108.442
631.402	100.881
633.918	98.8958
636.433	95.2314
638.948	102.155
641.463	103.889
643.979	102.151
646.494	101.123
649.009	103.218
651.524	108.06
654.04	106.078
656.555	100.237
659.07	101.299
661.585	107.753
664.101	106.833
666.616	105.161
669.131	107.42
671.646	104.878
674.162	105.524
676.677	109.507
679.192	108.82
681.707	100.947
684.223	108.196
686.738	97.8012
689.253	93.8287
691.768	96.0445
694.284	89.4649
696.799	83.5926
699.314	90.7049
701.829	92.7906
704.344	90.545
706.86	85.483
709.375	80.9138
711.89	83.5459
714.406	94.1442
716.921	94.0579
719.436	89.1341
721.951	87.1062
724.466	88.4227
726.982	84.6064
729.497	90.3356
732.012	89.362
734.527	96.3184
737.043	92.1267
739.558	81.4624
742.073	86.8449
744.588	90.0517
747.104	93.9012
749.619	92.3342
752.134	95.047
754.649	97.2386
757.165	95.1184
759.68	102.794
762.195	102.625
764.71	105.332
767.226	102.897
769.741	100.364
772.256	100.858
774.771	102.185
777.287	106.928
779.802	108.478
782.317	107.25
784.832	104.822
787.348	104.019
789.863	105.865
792.378	107.158
794.893	110.722
797.409	109.435
799.924	107.047
802.439	106.32
804.954	109.209
807.469	114.693
809.985	114.013
812.5	110.497
815.015	118.29
817.531	121.45
820.046	118.017
822.561	115.55
825.076	122.318
827.591	127.261
830.107	120.934
832.622	122.429
835.137	123.104
837.652	120.525
840.168	118.905
842.683	123.085
845.198	121.378
847.713	116.914
850.229	113.37
852.744	117.969
855.259	121.972
857.774	117.113
860.29	119.038
862.805	111
865.32	111.049
867.835	113.337
870.351	114.323
872.866	115.97
875.381	117.728
877.896	106.062
880.412	107.777
882.927	117.245
885.442	114.609
887.957	111.169
890.473	110.897
892.988	108.225
895.503	102.872
898.018	104.59
900.534	102.537
903.049	97.3791
905.564	94.4105
908.079	96.4678
910.594	99.4925
913.11	93.2
915.625	93.2
918.14	101.109
920.656	99.1984
923.171	99.3898
925.686	104.086
928.201	112.144
930.716	130.165
933.232	158.624
935.747	177.224
938.262	210.104
940.777	239.088
943.293	259.978
945.808	275.728
948.323	286.478
950.838	288.379
953.354	277.964
955.869	288.586
958.384	288.954
960.899	281.66
963.415	278.304
965.93	281.564
968.445	279.591
970.96	279.417
973.476	286.891
975.991	286.542
978.506	282.938
981.021	286.827
983.537	289.083
986.052	266.54
988.567	267.582
991.082	236.2
993.598	215.646
996.113	196.218
998.628	175.212
1001.14	152.58
1003.66	134.756
1006.17	135.601
1008.69	117.859
1011.2	106.732
1013.72	103.313
1016.23	96.6321
1018.75	90.8409
1021.27	88.0428
1023.78	83.9646
1026.3	84.6094
1028.81	80.0734
1031.33	75.6925
1033.84	68.319
1036.36	65.8437
1038.87	66.9205
1041.39	64.6043
1043.9	56.5791
1046.42	53.0393
1048.93	54.613
1051.45	52.334
1053.96	47.4695
1056.48	47.906
1058.99	47.5514
1061.51	43.3084
1064.02	43.4238
1066.54	42.2492
1069.05	36.466
1071.57	38.9046
1074.09	42.0203
1076.6	44.26
1079.12	42.6749
1081.63	37.3473
1084.15	33.5916
1086.66	35.7069
1089.18	37.9904
1091.69	33.25
1094.21	28.8846
1096.72	25.3962
1099.24	27.7253
1101.75	30.6522
1104.27	26.9017
1106.78	30.3719
1109.3	27.7295
1111.81	29.4422
1114.33	31.9558
1116.84	32.0803
1119.36	28.6157
1121.875	26.6356
1124.39	30.5682
1126.91	34.443
1129.42	23.8481
1131.94	27.9103
1134.45	27.157
1136.97	25.876
1139.48	23.1167
1142	25.6483
1144.51	28.2923
1147.03	21.2359
1149.54	22.2163
1152.06	22.3933
1154.57	19.8444
1157.09	19.1052
1159.6	21.3662
1162.12	24.4281
1164.63	24.5775
1167.15	20.3701
1169.66	15.7755
1172.18	18.6338
1174.7	19.1662
1177.21	16.8722
1179.73	18.9892
1182.24	18.4209
1184.76	18.4906
1187.27	16.9845
1189.79	14.2245
1192.3	18.1305
1194.82	18.8944
1197.33	20.4958
1199.85	15.6046
1202.36	12.4315
1204.88	12.5812
1207.39	16.629
1209.91	20.791
1212.42	20.8525
1214.94	18
1217.45	17.7744
1219.97	14.9184
1222.48	14.1158
1225	16.3943
1227.52	16.1743
1230.03	15.6
1232.55	17.3973
1235.06	19.993
1237.58	19.7954
1240.09	17.7105
1242.61	18.5958
1245.12	17.8801
1247.64	16.3688
1250.15	15.7237
1252.67	17.5944
1255.18	16.8774
1257.7	16.1894
1260.21	18.4149
1262.73	17.7095
1265.24	19.1309
1267.76	18.2335
1270.27	15.7804
1272.79	16.7718
1275.3	15.3513
1277.82	16.1879
1280.34	17.8744
1282.85	17.131
1285.37	15.1489
1287.88	14.566
1290.4	12.2656
1292.91	13.3456
1295.43	12.2023
1297.94	16.3857
1300.46	18.9824
1302.97	19.1537
1305.49	16.4106
1308	13.8168
1310.52	15.3054
1313.03	17.9043
1315.55	15.6838
1318.06	19.4772
1320.58	16.455
1323.09	19.1089
1325.61	22.0422
1328.125	21.4796
1330.64	18.2488
1333.16	14.8988
1335.67	13.6173
1338.19	15.4927
1340.7	18.48
1343.22	14.2674
1345.73	18.7977
1348.25	21.8427
1350.76	20.497
1353.28	18.906
1355.79	13.4888
1358.31	15.5613
1360.82	19.6122
1363.34	14.7785
1365.85	18.1759
1368.37	18.9157
1370.88	18.007
1373.4	21.0666
1375.91	18.1555
1378.43	16.3912
1380.95	15.2437
1383.46	19.014
1385.98	20.2575
1388.49	18.916
1391.01	21.1109
1393.52	18.2284
1396.04	12.2717
1398.55	22.5667
1401.07	17.0959
1403.58	20.4154
1406.1	17.7855
1408.61	18.0412
1411.13	20.2767
1413.64	22.0735
1416.16	21.0633
1418.67	17.1649
1421.19	14.8454
1423.7	16.8658
1426.22	19.7688
1428.73	19.22
1431.25	18.4942
1433.77	19.5166
1436.28	20.7991
1438.8	19.5631
1441.31	19.3644
1443.83	19.4449
1446.34	19.5589
1448.86	21.6307
1451.37	22.9154
1453.89	20.189
1456.4	18.7198
1458.92	17.2512
1461.43	20.3923
1463.95	21.6058
1466.46	21.5099
1468.98	25.2682
1471.49	24.6919
1474.01	19.3087
1476.52	16.0426
1479.04	16.27
1481.55	16.8362
1484.07	18.3972
1486.59	13.7366
1489.1	17.1774
1491.62	15.149
1494.13	16.1963
1496.65	15.3121
1499.16	21.7187
1501.68	19.1183
1504.19	18.3128
1506.71	17.2029
1509.22	14.5465
1511.74	17.1466
1514.25	18.5798
1516.77	15.8695
1519.28	17.7714
1521.8	13.611
1524.31	14.1663
1526.83	10.8933
1529.34	14.2222
1531.86	14.0439
1534.375	14.3795
1536.89	14.2233
1539.41	13.2959
1541.92	13.3182
1544.44	12.7772
1546.95	12.0399
1549.47	14.3887
1551.98	11.6863
1554.5	21.4955
1557.01	20.2803
1559.53	40.9246
1562.04	39.4635
1564.56	31.699
1567.07	25.0206
1569.59	15.4697
1572.1	11.7518
1574.62	13.0358
1577.13	13.4604
1579.65	13.2578
1582.16	15.4415
1584.68	18.4524
1587.2	17.2131
1589.71	13.4657
1592.23	12.4363
1594.74	13.1832
1597.26	10.2783
1599.77	13.9001
1602.29	13.974
1604.8	13.8
1607.32	13.2782
1609.83	15.1155
1612.35	15.5535
1614.86	14.5081
1617.38	13.2913
1619.89	14.4585
1622.41	18.6384
1624.92	14.7721
1627.44	15.7682
1629.95	13.363
1632.47	15.1841
1634.98	14.4336
1637.5	11.171
1640.02	16.8167
1642.53	16.2948
1645.05	11.0849
1647.56	11.2937
1650.08	11.9246
1652.59	13.3107
1655.11	13.2784
1657.62	12.7659
1660.14	13.8996
1662.65	13.6582
1665.17	14.2353
1667.68	12.3368
1670.2	17.1493
1672.71	14.9636
1675.23	9.06107
1677.74	14.1553
1680.26	10.8066
1682.77	13.7692
1685.29	16.1304
1687.8	10.8978
1690.32	14.2066
1692.84	13.3231
1695.35	13.2383
1697.87	11.6267
1700.38	10.4309
1702.9	12.6808
1705.41	14.6919
1707.93	18.2595
1710.44	17.8127
1712.96	15.616
1715.47	14.4466
1717.99	17.0601
1720.5	15.8242
1723.02	21.7042
1725.53	20.4934
1728.05	16.3392
1730.56	15.4672
1733.08	15.0871
1735.59	15.7321
1738.11	15.8635
1740.625	15.0401
1743.14	15.5348
1745.66	13.4156
1748.17	13.5322
1750.69	14.268
1753.2	11.487
1755.72	10.5878
1758.23	10.8078
1760.75	13.6993
1763.26	14.8345
1765.78	12.9937
1768.29	11.4623
1770.81	16.8518
1773.32	17.6427
1775.84	19.7435
1778.35	14.7807
1780.87	10.5059
1783.38	7.64574
1785.9	11.0248
1788.41	14.4102
1790.93	15.6259
1793.45	10.5996
1795.96	13.241
1798.48	13.9581
1800.99	13.0632
1803.51	10.514
1806.02	9.93715
1808.54	14.3614
1811.05	14.3548
1813.57	13.801
1816.08	16.8524
1818.6	13.5494
1821.11	12.5464
1823.63	10.1642
1826.14	13.7463
1828.66	13.1316
1831.17	10.4632
1833.69	8.29929
1836.2	13.3037
1838.72	13.4
1841.23	16.3007
1843.75	13.2974
1846.27	10.1359
1848.78	14.0595
1851.3	15.352
1853.81	15.4
1856.33	16.2265
1858.84	14.9002
1861.36	16.2284
1863.87	16.0803
1866.39	14.78
1868.9	14.1874
1871.42	13.8
1873.93	16.0441
1876.45	18.8
1878.96	16.0425
1881.48	15.3157
1883.99	19.2711
1886.51	12.8853
1889.02	13.6732
1891.54	15.2304
1894.05	11.3841
1896.57	17.935
1899.09	17.4151
1901.6	15.8515
1904.12	12.8436
1906.63	13.4516
1909.15	14.5511
1911.66	11.2497
1914.18	16.7487
1916.69	15.1423
1919.21	12.4778
1921.72	14.1217
1924.24	11.6927
1926.75	12.8386
1929.27	18.2751
1931.78	16.2277
1934.3	15.3481
1936.81	13.542
1939.33	15.4191
1941.84	19.656
1944.36	16.5936
1946.875	13.877
1949.39	13.2092
1951.91	13.7073
1954.42	16.7921
1956.94	19.4247
1959.45	17.3124
1961.97	15.3603
1964.48	14.7507
1967	13.8619
1969.51	16.3915
1972.03	17.5466
1974.54	14.2925
1977.06	12.4533
1979.57	14.4838
1982.09	14.6498
1984.6	17.9423
1987.12	16.3204
1989.63	14.654
1992.15	12.687
1994.66	10.272
1997.18	14.3709
1999.7	19.9241
2002.21	13.769
2004.73	9.28222
2007.24	15.585
2009.76	13.4413
2012.27	19.9943
2014.79	13.5091
2017.3	9.82291
2019.82	10.3909
2022.33	14.8479
2024.85	16.5952
2027.36	16.2011
2029.88	15.4135
2032.39	14.2366
2034.91	11.9052
2037.42	15.7585
2039.94	17.3016
2042.45	8.77825
2044.97	16.8691
2047.48	14.7634
2050	13.8711
2052.52	18.3254
2055.03	16.5941
2057.55	16.0303
2060.06	17.1735
2062.58	13.2594
2065.09	16.6553
2067.61	16.4677
2070.12	16.6801
2072.64	16.3252
2075.15	19.0177
2077.67	14.689
2080.18	12.4331
2082.7	19.3378
2085.21	17.8405
2087.73	15.7056
2090.24	14.0532
2092.76	14.7489
2095.27	14.6946
2097.79	15.9508
2100.3	16.4796
2102.82	18.6422
2105.34	18.4921
2107.85	15.9366
2110.37	19.8533
2112.88	21.7368
2115.4	21.7368
2117.91	21.7368
2120.43	36.6009
2122.94	16.0441
2125.46	16.8666
2127.97	19.3901
2130.49	18.7126
2133	18.1167
2135.52	17.4543
2138.03	15.6985
2140.55	15.0603
2143.06	15.4585
2145.58	12.586
2148.09	15.469
2150.61	18.261
2153.125	18.2919
2155.64	18.2079
2158.16	17.4121
2160.67	16.1102
2163.19	19.2411
2165.7	16.7566
2168.22	17.1906
2170.73	16.0559
2173.25	14.0566
2175.76	18.5814
2178.28	15.762
2180.79	19.5821
2183.31	21.7214
2185.82	18.8786
2188.34	18.483
2190.85	17.9416
2193.37	23.3343
2195.88	20.5779
2198.4	22.7068
2200.91	18.9384
2203.43	21.3904
2205.95	22.5117
2208.46	19.7846
2210.98	21.2343
2213.49	20.4683
2216.01	17.9432
2218.52	21.0758
2221.04	20.8536
2223.55	17.7219
2226.07	20.6143
2228.58	19.2676
2231.1	20.8164
2233.61	20.1175
2236.13	20.8873
2238.64	20.0583
2241.16	18.8182
2243.67	18.2188
2246.19	22.3638
2248.7	21.4509
2251.22	24.7447
2253.73	17.1681
2256.25	20.1225
2258.77	26.2161
2261.28	25.1011
2263.8	27.1008
2266.31	24.7818
2268.83	23.4343
2271.34	18.1708
2273.86	22.7001
2276.37	17.2768
2278.89	24.218
2281.4	25.5029
2283.92	22.8051
2286.43	22.4011
2288.95	22.9081
2291.46	21.3787
2293.98	26.2904
2296.49	21.7324
2299.01	20.9412
2301.52	22.6322
2304.04	21.009
2306.55	21.6811
2309.07	23.8595
2311.59	22.2795
2314.1	23.9132
2316.62	23.7395
2319.13	19.0747
2321.65	19.5989
2324.16	23.6819
2326.68	31.4338
2329.19	40.4033
2331.71	61.1511
2334.22	95.7086
2336.74	96.9096
2339.25	69.5581
2341.77	37.3958
2344.28	26.1475
2346.8	23.1144
2349.31	20.0062
2351.83	23.884
2354.34	21.5072
2356.86	23.1671
2359.375	22.9151
2361.89	28.5633
2364.41	26.1721
2366.92	24.0078
2369.44	26.3842
2371.95	25.2565
2374.47	23.1339
2376.98	28.4491
2379.5	24.9918
2382.01	23.9
2384.53	25.7446
2387.04	25.392
2389.56	28.4111
2392.07	28.4543
2394.59	28.442
2397.1	27.2643
2399.62	28.7323
2402.13	29.695
2404.65	27.0202
2407.16	26.3422
2409.68	27.7225
2412.2	30.2841
2414.71	26.8031
2417.23	28.5832
2419.74	28.3485
2422.26	29.5965
2424.77	29.863
2427.29	31.0904
2429.8	34.99
2432.32	26.3643
2434.83	30.2355
2437.35	30.1396
2439.86	26.5223
2442.38	28.0926
2444.89	30.3975
2447.41	32.1501
2449.92	30.2561
2452.44	29.7405
2454.95	30.2597
2457.47	32.8311
2459.98	29.2704
2462.5	30.5723
2465.02	31.1595
2467.53	27.714
2470.05	27.9811
2472.56	28.6183
2475.08	31.292
2477.59	29.6227
2480.11	29.7243
2482.62	31.3477
2485.14	27.7547
2487.65	29.3187
2490.17	31.0947
2492.68	31.6589
2495.2	30.9142
2497.71	31.9645
2500.23	30.7325
2502.74	31.3354
2505.26	32.8176
2507.77	29.4981
2510.29	27.6826
2512.8	32.5321
2515.32	29.7925
2517.84	33.263
2520.35	32.1025
2522.87	34.6166
2525.38	37.512
2527.9	33.1165
2530.41	29.1185
2532.93	30.8429
2535.44	32.7433
2537.96	33.7659
2540.47	31.6574
2542.99	33.5261
2545.5	35.5046
2548.02	35.5033
2550.53	35.1891
2553.05	33.3238
2555.56	32.7465
2558.08	32.2465
2560.59	33.2736
2563.11	31.9985
2565.625	33.5379
2568.14	31.1402
2570.66	33.2955
2573.17	33.967
2575.69	32.2859
2578.2	34.4657
2580.72	35.6383
2583.23	35.4712
2585.75	33.4191
2588.26	33.452
2590.78	30.5551
2593.29	34.5363
2595.81	33.7773
2598.32	33.7193
2600.84	34.6804
2603.35	35.806
2605.87	37.54
2608.38	36.7777
2610.9	33.8626
2613.41	36.0978
2615.93	31.79
2618.45	35.2406
2620.96	36.2506
2623.48	33.8538
2625.99	35.7507
2628.51	35.9862
2631.02	35.9562
2633.54	37.0466
2636.05	34.767
2638.57	34.9155
2641.08	35.3087
2643.6	35.6597
2646.11	33.2881
2648.63	35.0387
2651.14	37.185
2653.66	34.0152
2656.17	38.1484
2658.69	36.9145
2661.2	38.3337
2663.72	36.0859
2666.23	36.8635
2668.75	36.4481
2671.27	37.8833
2673.78	36.5103
2676.3	37.4325
2678.81	37.3019
2681.33	34.1987
2683.84	37.2178
2686.36	41.9434
2688.87	43.0632
2691.39	35.9269
2693.9	36.5076
2696.42	38.9725
2698.93	39.1053
2701.45	39.0456
2703.96	39.028
2706.48	40.9915
2708.99	40.2525
2711.51	40.7616
2714.02	40.6006
2716.54	40.3264
2719.05	40.0833
2721.57	39.0957
2724.09	41.9409
2726.6	40.4167
2729.12	39.2007
2731.63	35.9805
2734.15	37.2521
2736.66	41.2673
2739.18	41.5781
2741.69	39.1304
2744.21	39.9992
2746.72	37.4657
2749.24	40.4436
2751.75	41.2761
2754.27	43.6889
2756.78	41.8024
2759.3	42.0328
2761.81	39.3956
2764.33	38.6116
2766.84	39.3323
2769.36	39.5283
2771.875	40.0358
2774.39	40.0264
2776.91	43.7062
2779.42	40.6816
2781.94	40.9864
2784.45	40.3631
2786.97	43.8446
2789.48	43.5539
2792	41.2833
2794.51	38.7393
2797.03	41.1311
2799.54	41.7366
2802.06	39.0587
2804.57	44.3659
2807.09	47.1682
2809.6	44.295
2812.12	43.0728
2814.63	40.221
2817.15	44.1435
2819.66	46.761
2822.18	41.0038
2824.7	47.8841
2827.21	49.1231
2829.73	43.9798
2832.24	43.9937
2834.76	40.5882
2837.27	44.8951
2839.79	45.4097
2842.3	43.0184
2844.82	44.1022
2847.33	46.8298
2849.85	47.103
2852.36	44.6843
2854.88	41.7988
2857.39	43.4321
2859.91	41.6934
2862.42	46.1153
2864.94	47.5152
2867.45	46.8884
2869.97	46.664
2872.48	46.4488
2875	46.6052
2877.52	48.7813
2880.03	47.5465
2882.55	42.5851
2885.06	46.3551
2887.58	46.7175
2890.09	42.2908
2892.61	49.0983
2895.12	49.5375
2897.64	45.3797
2900.15	48.111
2902.67	46.8226
2905.18	48.374
2907.7	45.5172
2910.21	46.6341
2912.73	45.7952
2915.24	45.502
2917.76	50.143
2920.27	50.9141
2922.79	49.6381
2925.3	46.8208
2927.82	49.6107
2930.34	52.6612
2932.85	47.1553
2935.37	50.8301
2937.88	50.7227
2940.4	49.566
2942.91	50.8068
2945.43	49.4115
2947.94	51.9405
2950.46	51.3145
2952.97	49.044
2955.49	51.0369
2958	53.4829
2960.52	49.358
2963.03	49.3598
2965.55	54.0699
2968.06	52.0395
2970.58	50.0177
2973.09	49.8318
2975.61	44.8969
2978.125	49.8298
2980.64	52.0681
2983.16	48.51
2985.67	47.1124
2988.19	48.1423
2990.7	48.5128
2993.22	45.3854
2995.73	47.9153
2998.25	47.3731
3000.76	49.2386
3003.28	51.1602
3005.79	51.5184
3008.31	50.5412
3010.82	53.6393
3013.34	51.1493
3015.85	47.7595
3018.37	46.6627
3020.88	47.7118
3023.4	47.837
3025.91	55.027
3028.43	51.9551
3030.95	50.8201
3033.46	50.2053
3035.98	49.5332
3038.49	52.6823
3041.01	50.8782
3043.52	58.8099
3046.04	51.7286
3048.55	47.27
3051.07	47.9221
3053.58	50.8817
3056.1	47.9122
3058.61	48.9977
3061.13	52.1525
3063.64	54.2177
3066.16	53.5973
3068.67	48.8175
3071.19	57.2498
3073.7	56.3459
3076.22	52.4576
3078.73	51.2057
3081.25	53.0985
3083.77	55.3892
3086.28	55.1245
3088.8	54.8277
3091.31	54.335
3093.83	56.6675
3096.34	57.4974
3098.86	54.2242
3101.37	50.7653
3103.89	52.5873
3106.4	46.8137
3108.92	56.9268
3111.43	51.7378
3113.95	53.0551
3116.46	55.535
3118.98	51.3477
3121.49	49.2232
3124.01	55.8294
3126.52	57.9862
3129.04	54.4409
3131.55	54.5535
3134.07	55.7441
3136.59	50.9812
3139.1	52.1664
3141.62	60.4233
3144.13	52.9853
3146.65	54.675
3149.16	57.0381
3151.68	54.77
3154.19	55.8751
3156.71	55.6232
3159.22	54.2691
3161.74	53.5537
3164.25	59.1776
3166.77	53.5021
3169.28	54.7697
3171.8	56.4911
3174.31	54.7101
3176.83	48.5571
3179.34	56.3134
3181.86	54.3436
3184.375	54.2441
3186.89	52.4359
3189.41	58.9684
3191.92	61.7614
3194.44	61.3466
3196.95	57.4624
3199.47	55.464
3201.98	57.5273
3204.5	53.7482
3207.01	52.4695
3209.53	52.9737
3212.04	52.3687
3214.56	57.0245
3217.07	65.471
3219.59	58.4722
3222.1	56.8012
3224.62	58.2986
3227.13	58.8772
3229.65	56.3579
3232.16	57.718
3234.68	55.7849
3237.2	58.9063
3239.71	62.1163
3242.23	60.1669
3244.74	57.5716
3247.26	54.9419
3249.77	58.5235
3252.29	57.835
3254.8	58.1695
3257.32	60.9041
3259.83	63.8621
3262.35	57.0911
3264.86	53.3846
3267.38	61.6799
3269.89	57.5243
3272.41	57.2865
3274.92	56.2012
3277.44	57.6616
3279.95	54.8063
3282.47	61.0973
3284.98	62.3177
3287.5	56.9861
3290.02	57.6881
3292.53	54.9592
3295.05	56.7185
3297.56	60.5419
3300.08	61.414
3302.59	58.4463
3305.11	55.4885
3307.62	54.4682
3310.14	60.7171
3312.65	57.4863
3315.17	58.3717
3317.68	62.2147
3320.2	61.477
3322.71	58.9408
3325.23	59.1116
3327.74	61.0525
3330.26	53.8295
3332.77	59.2495
3335.29	59.5855
3337.8	62.5739
3340.32	57.7808
3342.84	56.135
3345.35	60.731
3347.87	61.423
3350.38	57.6439
3352.9	57.814
3355.41	59.3024
3357.93	64.026
3360.44	59.6922
3362.96	62.9543
3365.47	63.8901
3367.99	64.335
3370.5	59.316
3373.02	60.4191
3375.53	64.059
3378.05	63.1767
3380.56	59.5116
3383.08	60.4534
3385.59	63.8777
3388.11	65.9165
3390.625	61.19
3393.14	63.3197
3395.66	63.0871
3398.17	66.0977
3400.69	61.8738
3403.2	64.1734
3405.72	63.8456
3408.23	60.0749
3410.75	62.5588
3413.26	60.7977
3415.78	62.5224
3418.29	65.5917
3420.81	64.1662
3423.32	65.3941
3425.84	62.981
3428.35	59.5509
3430.87	66.9308
3433.38	61.863
3435.9	59.9526
3438.41	61.4241
3440.93	60.5918
3443.45	62.2986
3445.96	65.9883
3448.48	63.3238
3450.99	63.9897
3453.51	62.8729
3456.02	63.2113
3458.54	60.8198
3461.05	67.2953
3463.57	66.7512
3466.08	66.0209
3468.6	70.4775
3471.11	60.414
3473.63	63.9875
3476.14	63.122
3478.66	64.1897
3481.17	70.3812
3483.69	66.7529
3486.2	67.6775
3488.72	63.8972
3491.23	63.7767
3493.75	66.1231
3496.27	60.9722
3498.78	64.8748
3501.3	62.6686
3503.81	62.3982
3506.33	59.8108
3508.84	66.3426
3511.36	58.7862
3513.87	65.2524
3516.39	69.3324
3518.9	67.5788
3521.42	66.5291
3523.93	64.2189
3526.45	61.7017
3528.96	65.7333
3531.48	66.1788
3533.99	60.4669
3536.51	61.6566
3539.02	62.7628
3541.54	64.2761
3544.05	64.54
3546.57	62.5454
3549.09	60.484
3551.6	57.7653
3554.12	61.4873
3556.63	66.8157
3559.15	64.4029
3561.66	69.3522
3564.18	65.2805
3566.69	62.888
3569.21	65.1049
3571.72	70.3349
3574.24	62.7332
3576.75	63.9839
3579.27	64.6465
3581.78	66.5616
3584.3	66.9379
3586.81	61.1611
3589.33	65.3359
3591.84	65.1711
3594.36	62.3129
3596.875	73.769
3599.39	68.0797
3601.91	63.7544
3604.42	66.135
3606.94	66.8109
3609.45	67.3123
3611.97	74.7117
3614.48	66.7113
3617	68.5026
3619.51	69.8989
3622.03	63.4088
3624.54	69.4847
3627.06	69.0267
3629.57	63.494
3632.09	68.1008
3634.6	74.6731
3637.12	69.1666
3639.63	67.15
3642.15	71.6652
3644.66	68.2424
3647.18	69.6649
3649.7	66.1941
3652.21	63.9224
3654.73	67.6341
3657.24	70.6788
3659.76	67.2727
3662.27	71.172
3664.79	69.9307
3667.3	69.5046
3669.82	69.8601
3672.33	66.7733
3674.85	69.1543
3677.36	71.1098
3679.88	71.3436
3682.39	69.4142
3684.91	68.0753
3687.42	64.9051
3689.94	69.8591
3692.45	71.9821
3694.97	73.1778
3697.48	66.1754
3700	64.5919