File: Example Data/Raman/Kara/05-23-2011/glass_1.txt
200	3258.2
202.127	3335.55
204.254	3411.56
206.381	3391.24
208.508	3376.31
210.636	3373.43
212.763	3377.87
214.89	3363.09
217.017	3339.52
219.144	3349.99
221.271	3366.81
223.398	3342.03
225.525	3341.9
227.653	3353.92
229.78	3339.49
231.907	3352.65
234.034	3353.14
236.161	3408.35
238.288	3351.44
240.415	3344.13
242.542	3378.1
244.67	3374.32
246.797	3346.38
248.924	3355.56
251.051	3347.37
253.178	3370.91
255.305	3345.73
257.432	3311.51
259.559	3332.55
261.686	3358.46
263.814	3353.85
265.941	3345.9
268.068	3353.84
270.195	3354.24
272.322	3390.99
274.449	3385.8
276.576	3370.06
278.703	3373.43
280.831	3389.57
282.958	3406.18
285.085	3425.28
287.212	3406.27
289.339	3432.06
291.466	3426.98
293.593	3410.38
295.72	3440.06
297.848	3420.25
299.975	3447.64
302.102	3464.38
304.229	3425.31
306.356	3456.66
308.483	3451.4
310.61	3457.09
312.737	3461.96
314.865	3477.26
316.992	3473.87
319.119	3455.54
321.246	3499.68
323.373	3511.77
325.5	3498.22
327.627	3505.21
329.754	3511.24
331.882	3515.67
334.009	3565.47
336.136	3538.97
338.263	3545.59
340.39	3550.26
342.517	3562.88
344.644	3572.13
346.771	3588.45
348.898	3610.93
351.026	3597.85
353.153	3611.36
355.28	3613.46
357.407	3633.32
359.534	3645.44
361.661	3651.77
363.788	3650.38
365.915	3630.24
368.043	3680.67
370.17	3671.2
372.297	3627.46
374.424	3651.91
376.551	3669.55
378.678	3684.13
380.805	3675.87
382.932	3660.87
385.06	3640.9
387.187	3653.28
389.314	3685.67
391.441	3685.81
393.568	3708.76
395.695	3707
397.822	3712.66
399.949	3736.91
402.076	3713.74
404.204	3693.52
406.331	3723.84
408.458	3758.27
410.585	3759.32
412.712	3770.81
414.839	3797.89
416.966	3779.79
419.093	3796.96
421.221	3786.15
423.348	3818.31
425.475	3810.36
427.602	3834.38
429.729	3846.4
431.856	3860.81
433.983	3859.43
436.11	3890.48
438.238	3883.69
440.365	3888.37
442.492	3870.37
444.619	3921.38
446.746	3909.29
448.873	3880.83
451	3899.55
453.127	3904.15
455.254	3914.39
457.382	3885.11
459.509	3907.14
461.636	3930.68
463.763	3904.25
465.89	3910.05
468.017	3876.86
470.144	3886.7
472.271	3894.29
474.399	3852.11
476.526	3898.13
478.653	3884.74
480.78	3876.75
482.907	3870.26
485.034	3866.81
487.161	3821.43
489.288	3823.82
491.416	3835.43
493.543	3842.58
495.67	3802.83
497.797	3804.02
499.924	3793.13
502.051	3790.67
504.178	3780.69
506.305	3788.44
508.433	3796.03
510.56	3803.93
512.687	3800.75
514.814	3795.89
516.941	3866.42
519.068	3877.71
521.195	3917.94
523.322	3999.6
525.449	4014.61
527.577	4097.57
529.704	4138.19
531.831	4237.2
533.958	4322.49
536.085	4365.69
538.212	4442.33
540.339	4535.55
542.466	4617.96
544.594	4648.27
546.721	4733.73
548.848	4740.04
550.975	4801.68
553.102	4799.36
555.229	4793.72
557.356	4804.75
559.483	4804.8
561.611	4781
563.738	4722.5
565.865	4714.14
567.992	4705.45
570.119	4662.83
572.246	4573.66
574.373	4549.69
576.5	4508.28
578.628	4485.11
580.755	4432.07
582.882	4410.53
585.009	4302.64
587.136	4302.07
589.263	4231.09
591.39	4227.78
593.517	4198.72
595.644	4112.3
597.772	4037.87
599.899	4018.57
602.026	3972.22
604.153	3880.03
606.28	3808.67
608.407	3762.99
610.534	3693.5
612.661	3675.03
614.789	3610.86
616.916	3535.98
619.043	3485.91
621.17	3426.94
623.297	3398.14
625.424	3358.18
627.551	3292.6
629.678	3280.52
631.806	3235.7
633.933	3176.86
636.06	3133.67
638.187	3105.64
640.314	3119.95
642.441	3042.6
644.568	2989.18
646.695	2954.33
648.823	2891.78
650.95	2886.37
653.077	2828.41
655.204	2781.59
657.331	2730.48
659.458	2725.51
661.585	2656.13
663.712	2604.9
665.839	2603.7
667.967	2545.34
670.094	2507.18
672.221	2457.24
674.348	2410.04
676.475	2409.5
678.602	2328.77
680.729	2290.06
682.856	2274.05
684.984	2240.22
687.111	2221.6
689.238	2158.17
691.365	2152.98
693.492	2109.93
695.619	2072.96
697.746	2042.8
699.873	2052.78
702	2000.23
704.128	1985.41
706.255	1961.82
708.382	1922.59
710.509	1910.08
712.636	1894.88
714.763	1877.15
716.89	1876.62
719.017	1842.72
721.145	1829.6
723.272	1815.71
725.399	1822.29
727.526	1802.31
729.653	1805.64
731.78	1794.47
733.907	1797.21
736.034	1789.55
738.162	1794.64
740.289	1770.87
742.416	1787.79
744.543	1811.67
746.67	1786.28
748.797	1816.67
750.924	1795.77
753.051	1819.54
755.179	1820.87
757.306	1842.24
759.433	1858.38
761.56	1855.7
763.687	1874.27
765.814	1873.52
767.941	1883.18
770.068	1879.89
772.195	1893.39
774.323	1887.07
776.45	1901.99
778.577	1891.05
780.704	1888.36
782.831	1879.64
784.958	1894.17
787.085	1886.76
789.212	1888.55
791.34	1870.52
793.467	1849.16
795.594	1854.78
797.721	1871.39
799.848	1851.15
801.975	1808.78
804.102	1822.82
806.229	1799.12
808.357	1793.36
810.484	1779.8
812.611	1740.01
814.738	1728.91
816.865	1704.93
818.992	1675.52
821.119	1658.12
823.246	1647.05
825.374	1610.4
827.501	1589.07
829.628	1588.01
831.755	1578.75
833.882	1528.62
836.009	1537.27
838.136	1529.8
840.263	1489.55
842.391	1507.9
844.518	1473.14
846.645	1479.88
848.772	1467.78
850.899	1461.11
853.026	1460.95
855.153	1447.95
857.28	1442.74
859.407	1445.72
861.535	1451.55
863.662	1449.04
865.789	1440.11
867.916	1453.65
870.043	1450.85
872.17	1434.72
874.297	1454.67
876.424	1461.15
878.552	1447.39
880.679	1448.51
882.806	1436.82
884.933	1444.84
887.06	1459.44
889.187	1456.81
891.314	1474.71
893.441	1475.59
895.568	1467.24
897.696	1492.62
899.823	1492.26
901.95	1509.21
904.077	1525.38
906.204	1542.84
908.331	1564.48
910.458	1594.16
912.585	1600.59
914.713	1626.76
916.84	1647.53
918.967	1690.73
921.094	1706.05
923.221	1744.77
925.348	1763.24
927.475	1817.03
929.602	1816.53
931.73	1849.36
933.857	1875.6
935.984	1910.05
938.111	1938.89
940.238	1940.51
942.365	2001.25
944.492	1994.58
946.619	2016.09
948.747	2026.93
950.874	2024.33
953.001	2045.24
955.128	2043.5
957.255	2011.07
959.382	2018.29
961.509	2030.44
963.636	2028.83
965.763	2048.49
967.891	2059.56
970.018	2089.3
972.145	2101.32
974.272	2169.82
976.399	2207.24
978.526	2257.38
980.653	2303.39
982.78	2344.69
984.908	2354.23
987.035	2384.81
989.162	2380.24
991.289	2381.96
993.416	2383.39
995.543	2355.08
997.67	2343.51
999.797	2330.45
1001.92	2337.11
1004.05	2356.94
1006.18	2353.86
1008.31	2370.08
1010.43	2414.24
1012.56	2422.21
1014.69	2460.27
1016.81	2485.43
1018.94	2524.88
1021.07	2553.97
1023.2	2597.48
1025.32	2674.94
1027.45	2704.46
1029.58	2742.37
1031.7	2807.09
1033.83	2864.6
1035.96	2915.75
1038.09	2952.55
1040.21	3010.8
1042.34	3074.25
1044.47	3151.42
1046.59	3195.28
1048.72	3223.23
1050.85	3302.73
1052.98	3365.89
1055.1	3424.74
1057.23	3500.9
1059.36	3561.99
1061.48	3625.74
1063.61	3709.8
1065.74	3776.26
1067.87	3857.12
1069.99	3948.79
1072.12	4024.94
1074.25	4076.87
1076.37	4152.45
1078.5	4238.83
1080.63	4287.67
1082.76	4331.87
1084.88	4396.49
1087.01	4428.65
1089.14	4450.05
1091.26	4511.59
1093.39	4465.91
1095.52	4524.52
1097.65	4488.62
1099.77	4478.64
1101.9	4438.7
1104.03	4388.14
1106.15	4336.36
1108.28	4281.82
1110.41	4217.08
1112.53	4118.05
1114.66	4062.5
1116.79	3985.9
1118.92	3863.22
1121.04	3785.95
1123.17	3704.13
1125.3	3620.06
1127.42	3529.57
1129.55	3422.72
1131.68	3340.17
1133.81	3261.12
1135.93	3188.42
1138.06	3107.94
1140.19	3040.73
1142.31	2968.01
1144.44	2891.09
1146.57	2826.84
1148.7	2769.63
1150.82	2709.31
1152.95	2652.64
1155.08	2585.37
1157.2	2511.9
1159.33	2500.15
1161.46	2404.6
1163.59	2364.41
1165.71	2313.32
1167.84	2261.92
1169.97	2192.76
1172.09	2159.64
1174.22	2114.75
1176.35	2060.16
1178.48	2020.09
1180.6	1989.38
1182.73	1956.71
1184.86	1913.28
1186.98	1868.71
1189.11	1826.13
1191.24	1803.17
1193.37	1759.22
1195.49	1746.78
1197.62	1712.72
1199.75	1655.58
1201.87	1633.96
1204	1626.02
1206.13	1599.81
1208.26	1568.82
1210.38	1552.72
1212.51	1519.84
1214.64	1515.04
1216.76	1498.36
1218.89	1473.18
1221.02	1478.91
1223.15	1435.57
1225.27	1425.08
1227.4	1420.23
1229.53	1423.06
1231.65	1412.15
1233.78	1376.53
1235.91	1380.98
1238.03	1381.61
1240.16	1372.37
1242.29	1366.01
1244.42	1366.58
1246.54	1354.11
1248.67	1366.21
1250.8	1367.91
1252.92	1371.4
1255.05	1338.4
1257.18	1329.4
1259.31	1336.51
1261.43	1326.86
1263.56	1333.63
1265.69	1315.72
1267.81	1321.19
1269.94	1338.1
1272.07	1306.87
1274.2	1316.9
1276.32	1309.43
1278.45	1310.19
1280.58	1311.87
1282.7	1294.81
1284.83	1296.77
1286.96	1290.7
1289.09	1305.13
1291.21	1292.72
1293.34	1286.81
1295.47	1287.82
1297.59	1298.53
1299.72	1293.02
1301.85	1283.07
1303.98	1289.45
1306.1	1298.58
1308.23	1302.01
1310.36	1302.87
1312.48	1305.34
1314.61	1290.03
1316.74	1293.78
1318.87	1296.35
1320.99	1305.99
1323.12	1293.74
1325.25	1313.04
1327.37	1281.72
1329.5	1300.56
1331.63	1317.04
1333.76	1292.69
1335.88	1307.19
1338.01	1307.25
1340.14	1324.7
1342.26	1307.28
1344.39	1312.81
1346.52	1293.33
1348.65	1314.06
1350.77	1306.15
1352.9	1299.28
1355.03	1304.58
1357.15	1314.52
1359.28	1306.15
1361.41	1308.21
1363.54	1316.38
1365.66	1309.16
1367.79	1306.87
1369.92	1303.78
1372.04	1299.21
1374.17	1308.95
1376.3	1295.98
1378.42	1293.3
1380.55	1314.67
1382.68	1289.21
1384.81	1311.77
1386.93	1293.71
1389.06	1292.35
1391.19	1303.34
1393.31	1301.73
1395.44	1310.48
1397.57	1299.38
1399.7	1304.69
1401.82	1289.54
1403.95	1290.46
1406.08	1301.1
1408.2	1310.98
1410.33	1277.05
1412.46	1289.6
1414.59	1286.72
1416.71	1295.82
1418.84	1309.03
1420.97	1308.4
1423.09	1302.56
1425.22	1292.73
1427.35	1293.66
1429.48	1301.49
1431.6	1304.73
1433.73	1311.44
1435.86	1303.87
1437.98	1307.39
1440.11	1315.47
1442.24	1319.41
1444.37	1302.79
1446.49	1318.05
1448.62	1327.63
1450.75	1335.7
1452.87	1326.91
1455	1340.64
1457.13	1347.98
1459.26	1339.72
1461.38	1332.64
1463.51	1335.68
1465.64	1340.64
1467.76	1339.52
1469.89	1361.44
1472.02	1336.09
1474.15	1350
1476.27	1356.31
1478.4	1345.29
1480.53	1351.67
1482.65	1355.62
1484.78	1354.83
1486.91	1377.47
1489.04	1357.09
1491.16	1352.41
1493.29	1394.25
1495.42	1386.77
1497.54	1396.69
1499.67	1388.83
1501.8	1404.08
1503.93	1400.55
1506.05	1407.76
1508.18	1418.44
1510.31	1429.81
1512.43	1419.8
1514.56	1404.28
1516.69	1394.81
1518.81	1401.08
1520.94	1372.25
1523.07	1377.24
1525.2	1366.97
1527.32	1349.3
1529.45	1356.99
1531.58	1346.08
1533.7	1336
1535.83	1342.62
1537.96	1334.47
1540.09	1318.65
1542.21	1330.24
1544.34	1314.98
1546.47	1318.91
1548.59	1312.66
1550.72	1333.78
1552.85	1332.36
1554.98	1314.84
1557.1	1312.66
1559.23	1315.73
1561.36	1339.93
1563.48	1325.09
1565.61	1322.75
1567.74	1319.92
1569.87	1323.54
1571.99	1340.74
1574.12	1336.1
1576.25	1333.86
1578.37	1329.6
1580.5	1348.75
1582.63	1325.6
1584.76	1332.39
1586.88	1326.13
1589.01	1350.11
1591.14	1348.31
1593.26	1350.43
1595.39	1334.43
1597.52	1337.79
1599.65	1345.78
1601.77	1333.34
1603.9	1326.28
1606.03	1353.03
1608.15	1335.55
1610.28	1335.09
1612.41	1347.47
1614.54	1335.86
1616.66	1341.52
1618.79	1345.3
1620.92	1339.92
1623.04	1325.29
1625.17	1353.93
1627.3	1340.39
1629.43	1341.25
1631.55	1336.33
1633.68	1336.51
1635.81	1325.01
1637.93	1329.99
1640.06	1328.2
1642.19	1329.12
1644.32	1335.86
1646.44	1343.36
1648.57	1338.23
1650.7	1348.52
1652.82	1338.57
1654.95	1337.26
1657.08	1325.8
1659.2	1332.44
1661.33	1351.09
1663.46	1331.51
1665.59	1336.26
1667.71	1346.46
1669.84	1349.37
1671.97	1344.2
1674.09	1350.8
1676.22	1350.76
1678.35	1360.17
1680.48	1367.74
1682.6	1364.33
1684.73	1359.17
1686.86	1366.43
1688.98	1375.13
1691.11	1372.38
1693.24	1386.73
1695.37	1392.1
1697.49	1383.25
1699.62	1388.3
1701.75	1403.27
1703.87	1407.59
1706	1414.68
1708.13	1419.52
1710.26	1433.16
1712.38	1451.48
1714.51	1440.23
1716.64	1437.27
1718.76	1438.41
1720.89	1445.54
1723.02	1456.79
1725.15	1447.11
1727.27	1438.52
1729.4	1458.61
1731.53	1439.25
1733.65	1458.61
1735.78	1436.77
1737.91	1439.18
1740.04	1414.23
1742.16	1431.66
1744.29	1448.67
1746.42	1442.51
1748.54	1437.18
1750.67	1449.68
1752.8	1415.04
1754.93	1421.65
1757.05	1449.04
1759.18	1437.68
1761.31	1430.17
1763.43	1422.26
1765.56	1421.07
1767.69	1427.21
1769.82	1419.99
1771.94	1443.94
1774.07	1424.24
1776.2	1435.99
1778.32	1411.42
1780.45	1429.2
1782.58	1414.68
1784.7	1428.06
1786.83	1414.32
1788.96	1432.7
1791.09	1421.68
1793.21	1434.83
1795.34	1424.44
1797.47	1442.94
1799.59	1422.48
1801.72	1417.18
1803.85	1420.04
1805.98	1438.74
1808.1	1403.46
1810.23	1435.14
1812.36	1426.43
1814.48	1424.72
1816.61	1437.93
1818.74	1426.24
1820.87	1422.49
1822.99	1425.53
1825.12	1433.07
1827.25	1437.67
1829.37	1435.91
1831.5	1420.45
1833.63	1432.27
1835.76	1425.62
1837.88	1426.59
1840.01	1429.9
1842.14	1444.26
1844.26	1427.61
1846.39	1443.27
1848.52	1441.81
1850.65	1444.85
1852.77	1437.55
1854.9	1440.46
1857.03	1455.08
1859.15	1447.48
1861.28	1440.62
1863.41	1464.87
1865.54	1446.22
1867.66	1445.57
1869.79	1435.12
1871.92	1455.16
1874.04	1458.76
1876.17	1457.28
1878.3	1462.57
1880.43	1470.03
1882.55	1467.93
1884.68	1468.22
1886.81	1456.72
1888.93	1444.41
1891.06	1459.24
1893.19	1453.35
1895.32	1449.99
1897.44	1448.85
1899.57	1454.47
1901.7	1455.45
1903.82	1447.44
1905.95	1460.38
1908.08	1428.71
1910.21	1450.19
1912.33	1458.5
1914.46	1442.91
1916.59	1445.92
1918.71	1439.24
1920.84	1443.4
1922.97	1438.53
1925.09	1452.62
1927.22	1452.67
1929.35	1450.56
1931.48	1432.48
1933.6	1445.85
1935.73	1461.91
1937.86	1453.66
1939.98	1443.63
1942.11	1450.75
1944.24	1440.92
1946.37	1426.99
1948.49	1425.98
1950.62	1431.23
1952.75	1447.83
1954.87	1425.85
1957	1438.07
1959.13	1459.59
1961.26	1415.5
1963.38	1436.07
1965.51	1427.65
1967.64	1437.9
1969.76	1434
1971.89	1437.96
1974.02	1421.41
1976.15	1444.52
1978.27	1454.07
1980.4	1446.38
1982.53	1436.84
1984.65	1454.52
1986.78	1467.13
1988.91	1448.74
1991.04	1438.06
1993.16	1469.87
1995.29	1443.67
1997.42	1461.61
1999.54	1459.28
2001.67	1477.03
2003.8	1478.91
2005.93	1469.07
2008.05	1465.78
2010.18	1470.54
2012.31	1488.25
2014.43	1469.5
2016.56	1477.55
2018.69	1483.85
2020.82	1475.6
2022.94	1470.48
2025.07	1490.8
2027.2	1479.78
2029.32	1482.57
2031.45	1479.34
2033.58	1490.6
2035.71	1489.91
2037.83	1501.84
2039.96	1484.74
2042.09	1488.37
2044.21	1486.04
2046.34	1483.89
2048.47	1482.26
2050.59	1479.95
2052.72	1472.72
2054.85	1482.41
2056.98	1482.86
2059.1	1483.04
2061.23	1488.2
2063.36	1476.38
2065.48	1474.86
2067.61	1465.64
2069.74	1465.25
2071.87	1487.79
2073.99	1475.04
2076.12	1473.8
2078.25	1473.53
2080.37	1466.38
2082.5	1452.74
2084.63	1437.04
2086.76	1461.21
2088.88	1459.35
2091.01	1468.53
2093.14	1456.02
2095.26	1443.75
2097.39	1442.27
2099.52	1462.96
2101.65	1449.65
2103.77	1441.84
2105.9	1443.88
2108.03	1453.76
2110.15	1444.7
2112.28	1444.66
2114.41	1453.06
2116.54	1445.84
2118.66	1438.3
2120.79	1448.85
2122.92	1427
2125.04	1448.08
2127.17	1448.33
2129.3	1457.85
2131.43	1443.91
2133.55	1458.75
2135.68	1455.26
2137.81	1449.87
2139.93	1455.76
2142.06	1456.68
2144.19	1439.81
2146.32	1467.48
2148.44	1449.99
2150.57	1458.2
2152.7	1456.99
2154.82	1460.18
2156.95	1457.9
2159.08	1451.5
2161.21	1455.68
2163.33	1465.32
2165.46	1461.04
2167.59	1434.1
2169.71	1462.94
2171.84	1444.1
2173.97	1452.6
2176.1	1457.86
2178.22	1469.74
2180.35	1456.48
2182.48	1439
2184.6	1451.95
2186.73	1444.95
2188.86	1444.34
2190.99	1443.65
2193.11	1439.89
2195.24	1445.71
2197.37	1445.36
2199.49	1434.07
2201.62	1444.03
2203.75	1450.33
2205.875	1423.99
2208	1436.55
2210.13	1447.6
2212.26	1426.87
2214.38	1426.66
2216.51	1436.9
2218.64	1435.87
2220.76	1431.5
2222.89	1437.04
2225.02	1439.23
2227.15	1429.04
2229.27	1434.45
2231.4	1442.71
2233.53	1424.37
2235.65	1435.12
2237.78	1437.1
2239.91	1436.7
2242.04	1446.71
2244.16	1453.48
2246.29	1428.98
2248.42	1436.96
2250.54	1448.64
2252.67	1451.97
2254.8	1451.67
2256.93	1457.47
2259.05	1477.94
2261.18	1470.89
2263.31	1467.79
2265.43	1477.28
2267.56	1492.23
2269.69	1480.02
2271.82	1468.09
2273.94	1482.02
2276.07	1490.96
2278.2	1485.16
2280.32	1505.95
2282.45	1501
2284.58	1500.44
2286.71	1507.4
2288.83	1514.31
2290.96	1508.44
2293.09	1517.48
2295.21	1532.49
2297.34	1531.04
2299.47	1526.38
2301.6	1530.73
2303.72	1543.94
2305.85	1549.69
2307.98	1553.73
2310.1	1561.66
2312.23	1568.02
2314.36	1579.15
2316.49	1583.15
2318.61	1586.48
2320.74	1598.83
2322.87	1614.68
2324.99	1627.43
2327.12	1668.03
2329.25	1657.64
2331.375	1641.84
2333.5	1664.44
2335.63	1676.11
2337.76	1698.09
2339.88	1678.81
2342.01	1717.31
2344.14	1749.13
2346.26	1771.52
2348.39	1766.05
2350.52	1782.91
2352.65	1806.93
2354.77	1817.78
2356.9	1842.97
2359.03	1873.77
2361.15	1910.49
2363.28	1917.27
2365.41	1943.15
2367.54	1971.57
2369.66	2020.73
2371.79	2029.95
2373.92	2040.57
2376.04	2089.06
2378.17	2085.57
2380.3	2116.3
2382.43	2129.54
2384.55	2142.39
2386.68	2145.58
2388.81	2154.33
2390.93	2180.19
2393.06	2176.5
2395.19	2198.1
2397.32	2193.08
2399.44	2183.98
2401.57	2216.53
2403.7	2203
2405.82	2221.82
2407.95	2253.37
2410.08	2254.51
2412.21	2275.93
2414.33	2259.03
2416.46	2283.59
2418.59	2270.63
2420.71	2291.1
2422.84	2276.39
2424.97	2293.28
2427.1	2306.2
2429.22	2275.67
2431.35	2276.17
2433.48	2279.14
2435.6	2270.92
2437.73	2262.05
2439.86	2222.76
2441.99	2231.34
2444.11	2240.06
2446.24	2216.78
2448.37	2216.11
2450.49	2188.08
2452.62	2209.24
2454.75	2184.98
2456.88	2165.37
2459	2156.625
2461.13	2137.95
2463.26	2137.46
2465.38	2110.84
2467.51	2117.79
2469.64	2103.98
2471.76	2093.42
2473.89	2110.02
2476.02	2085.68
2478.15	2080.12
2480.27	2090.1
2482.4	2069.24
2484.53	2053.62
2486.65	2064.26
2488.78	2057.34
2490.91	2060.39
2493.04	2043.08
2495.16	2044.5
2497.29	2043.83
2499.42	2053.27
2501.54	2031.44
2503.67	2066.84
2505.8	2033.53
2507.93	2040.67
2510.05	2053.56
2512.18	2049.51
2514.31	2044.3
2516.43	2062.16
2518.56	2055.02
2520.69	2049.14
2522.82	2083.2
2524.94	2078.91
2527.07	2070.24
2529.2	2068.41
2531.32	2059.85
2533.45	2084.34
2535.58	2079.36
2537.71	2077.05
2539.83	2066.96
2541.96	2063.42
2544.09	2075.11
2546.21	2051.125
2548.34	2076.71
2550.47	2057.82
2552.6	2066.88
2554.72	2063.68
2556.85	2062.25
2558.98	2065.84
2561.1	2042.07
2563.23	2057.4
2565.36	2051.51
2567.49	2030.69
2569.61	2040.32
2571.74	2014.11
2573.87	1998.11
2575.99	2000.17
2578.12	2004.47
2580.25	1987.16
2582.38	1998.38
2584.5	1989.27
2586.63	1963.29
2588.76	1975.58
2590.88	1960.14
2593.01	1950
2595.14	1940.4
2597.27	1930.31
2599.39	1939.93
2601.52	1934.69
2603.65	1918.36
2605.77	1918.41
2607.9	1903.35
2610.03	1908.27
2612.16	1905.36
2614.28	1902.1
2616.41	1908.28
2618.54	1914.08
2620.66	1904.6
2622.79	1896.13
2624.92	1898.86
2627.04	1898.55
2629.17	1881.85
2631.3	1913.24
2633.43	1903.14
2635.55	1892.63
2637.68	1887.97
2639.81	1893.81
2641.93	1910.91
2644.06	1900.06
2646.19	1886.11
2648.32	1887.41
2650.44	1889.79
2652.57	1883.32
2654.7	1895.34
2656.82	1890.27
2658.95	1879.18
2661.08	1887.06
2663.21	1886.13
2665.33	1895.18
2667.46	1887.41
2669.59	1890.55
2671.71	1865.74
2673.84	1894.44
2675.97	1876.33
2678.1	1884.93
2680.22	1873.29
2682.35	1868.01
2684.48	1875.22
2686.6	1853.43
2688.73	1856.28
2690.86	1860.79
2692.99	1863.04
2695.11	1859.55
2697.24	1860.25
2699.37	1848.99
2701.49	1854.87
2703.62	1835.6
2705.75	1855.63
2707.88	1848.61
2710	1845.95
2712.13	1837.85
2714.26	1844.17
2716.38	1829.51
2718.51	1841.05
2720.64	1816.06
2722.77	1813.65
2724.89	1824.41
2727.02	1821.5
2729.15	1822.74
2731.27	1817.125
2733.4	1815.28
2735.53	1828.59
2737.66	1835
2739.78	1815.39
2741.91	1811.25
2744.04	1813.39
2746.16	1826.56
2748.29	1804.1
2750.42	1820.15
2752.54	1813.09
2754.67	1799.98
2756.8	1818.58
2758.93	1804.79
2761.05	1815.2
2763.18	1817.71
2765.31	1819.32
2767.43	1811.44
2769.56	1829.69
2771.69	1814.64
2773.82	1812.22
2775.94	1825.69
2778.07	1808.04
2780.2	1812.49
2782.32	1814.37
2784.45	1821.89
2786.58	1826.72
2788.71	1829.06
2790.83	1825.74
2792.96	1805.07
2795.09	1823.22
2797.21	1833.26
2799.34	1820.64
2801.47	1824.86
2803.6	1809.75
2805.72	1826.35
2807.85	1836.84
2809.98	1838.76
2812.1	1829.67
2814.23	1827.17
2816.36	1841.79
2818.49	1846.83
2820.61	1829.62
2822.74	1843.93
2824.87	1840.75
2826.99	1840.48
2829.12	1847.23
2831.25	1833.23
2833.38	1838.7
2835.5	1836.02
2837.63	1836.88
2839.76	1839.56
2841.88	1838.57
2844.01	1835.49
2846.14	1833.74
2848.27	1844.64
2850.39	1838.56
2852.52	1832.07
2854.65	1861.07
2856.77	1836.65
2858.9	1847.02
2861.03	1834.43
2863.16	1841.35
2865.28	1838.68
2867.41	1848.02
2869.54	1851.5
2871.66	1841.14
2873.79	1857.84
2875.92	1842.13
2878.05	1848.49
2880.17	1868.61
2882.3	1854.83
2884.43	1850.51
2886.55	1857.44
2888.68	1865.05
2890.81	1850.6
2892.93	1859.75
2895.06	1857.12
2897.19	1877.84
2899.32	1884.02
2901.44	1876.72
2903.57	1872.6
2905.7	1870.49
2907.82	1906.21
2909.95	1888.65
2912.08	1884.56
2914.21	1865.1
2916.33	1870.65
2918.46	1893.99
2920.59	1876.15
2922.71	1884.45
2924.84	1873.01
2926.97	1902.17
2929.1	1884.39
2931.22	1907.03
2933.35	1906.4
2935.48	1892.57
2937.6	1916.96
2939.73	1898.14
2941.86	1903.11
2943.99	1901.16
2946.11	1894.09
2948.24	1911.86
2950.37	1908.29
2952.49	1909.11
2954.62	1913.74
2956.75	1907.37
2958.88	1894.71
2961	1897.82
2963.13	1904.4
2965.26	1901.96
2967.38	1918.04
2969.51	1922.52
2971.64	1903.3
2973.77	1924.45
2975.89	1926.62
2978.02	1935.56
2980.15	1910.96
2982.27	1913.57
2984.4	1913.2
2986.53	1918.44
2988.66	1907.16
2990.78	1915.04
2992.91	1919.92
2995.04	1932.52
2997.16	1923.57
2999.29	1931.04
3000	1925.99