File: Example Data/Raman/Kara/05-23-2011/Owen CNT_5.txt
1000	-177.408
1002.72	-175.385
1005.45	-171.962
1008.17	-172.862
1010.9	-173.363
1013.62	-172.609
1016.35	-174.834
1019.07	-173.777
1021.8	-174.417
1024.52	-172.319
1027.25	-170.896
1029.97	-172.285
1032.7	-171.542
1035.42	-172.011
1038.15	-173.111
1040.87	-173.655
1043.6	-174.278
1046.32	-174.357
1049.05	-175.657
1051.77	-173.685
1054.5	-174.317
1057.22	-175.578
1059.95	-171.957
1062.67	-171.203
1065.4	-175.375
1068.12	-173.806
1070.84	-173.093
1073.57	-172.364
1076.29	-171.753
1079.02	-173.403
1081.74	-173.299
1084.47	-172.444
1087.19	-172.527
1089.92	-173.196
1092.64	-174.849
1095.37	-175.605
1098.09	-173.562
1100.82	-171.578
1103.54	-171.056
1106.27	-172.606
1108.99	-173.559
1111.72	-173.95
1114.44	-170.558
1117.17	-172.772
1119.89	-171.437
1122.62	-174.001
1125.34	-172.609
1128.07	-173.239
1130.79	-171.494
1133.52	-171.75
1136.24	-171.153
1138.96	-172.92
1141.69	-171.277
1144.41	-171.098
1147.14	-172.733
1149.86	-172.317
1152.59	-170.682
1155.31	-170.044
1158.04	-170.839
1160.76	-171.275
1163.49	-171.167
1166.21	-172.6
1168.94	-172.6
1171.66	-172.535
1174.39	-172.052
1177.11	-171.017
1179.84	-171.128
1182.56	-169.625
1185.29	-173.472
1188.01	-171.74
1190.74	-172.314
1193.46	-171.374
1196.19	-169.728
1198.91	-169.869
1201.63	-170.298
1204.36	-170.825
1207.08	-171
1209.81	-170.235
1212.53	-169.439
1215.26	-168.633
1217.98	-172.249
1220.71	-172.31
1223.43	-169.822
1226.16	-171.431
1228.88	-171.603
1231.61	-169.98
1234.33	-168.001
1237.06	-168.558
1239.78	-170.425
1242.51	-169.494
1245.23	-170.127
1247.96	-171.157
1250.68	-170.342
1253.41	-172.154
1256.13	-170.036
1258.86	-168.273
1261.58	-169.569
1264.31	-168.209
1267.03	-168.779
1269.75	-168.613
1272.48	-170.959
1275.2	-169.264
1277.93	-168.318
1280.65	-168.035
1283.38	-167.681
1286.1	-167.754
1288.83	-167.651
1291.55	-167.888
1294.28	-168.139
1297	-169.402
1299.73	-169.1
1302.45	-167.611
1305.18	-167.594
1307.9	-167.772
1310.63	-168.365
1313.35	-170.15
1316.08	-169.701
1318.8	-167.151
1321.53	-166.364
1324.25	-166.281
1326.98	-164.205
1329.7	-162.667
1332.43	-163.326
1335.15	-162.507
1337.87	-161.004
1340.6	-161.884
1343.32	-164.17
1346.05	-161.96
1348.77	-159.854
1351.5	-159.575
1354.22	-162.62
1356.95	-163.32
1359.67	-159.288
1362.4	-158.517
1365.12	-162.538
1367.85	-163.157
1370.57	-161.526
1373.3	-162.759
1376.02	-164.429
1378.75	-164.743
1381.47	-163.841
1384.2	-164.837
1386.92	-166.186
1389.65	-165.004
1392.37	-167.949
1395.1	-167.806
1397.82	-166.653
1400.54	-165.846
1403.27	-169.148
1405.99	-168.115
1408.72	-171.079
1411.44	-170.148
1414.17	-164.881
1416.89	-170.126
1419.62	-168.934
1422.34	-168.26
1425.07	-167.192
1427.79	-167.664
1430.52	-168.292
1433.24	-168.562
1435.97	-171.65
1438.69	-167.954
1441.42	-169.943
1444.14	-168.777
1446.87	-169.895
1449.59	-165.973
1452.32	-168.381
1455.04	-168.4
1457.77	-165.769
1460.49	-166.771
1463.22	-167.4
1465.94	-167.255
1468.66	-167.633
1471.39	-165.934
1474.11	-168.054
1476.84	-168.065
1479.56	-168.73
1482.29	-169.059
1485.01	-168.72
1487.74	-167.484
1490.46	-168.113
1493.19	-169.709
1495.91	-169.37
1498.64	-168.862
1501.36	-168.8
1504.09	-168.662
1506.81	-168.6
1509.54	-167.498
1512.26	-166.587
1514.99	-166.262
1517.71	-166.062
1520.44	-166.969
1523.16	-166.706
1525.89	-165.982
1528.61	-166.079
1531.34	-167.042
1534.06	-166.554
1536.78	-166.342
1539.51	-167.539
1542.23	-165.995
1544.96	-166.497
1547.68	-164.533
1550.41	-163.746
1553.13	-160.413
1555.86	-163.8
1558.58	-164.204
1561.31	-164.404
1564.03	-163.382
1566.76	-160.695
1569.48	-160.31
1572.21	-161.811
1574.93	-158.084
1577.66	-158.44
1580.38	-158.638
1583.11	-157.618
1585.83	-155.082
1588.56	-155.94
1591.28	-155.352
1594.01	-156.745
1596.73	-156.826
1599.46	-154.687
1602.18	-157.611
1604.9	-155.288
1607.63	-157.382
1610.35	-158.528
1613.08	-159.918
1615.8	-160.954
1618.53	-159.064
1621.25	-158.804
1623.98	-161.79
1626.7	-157.004
1629.43	-157.551
1632.15	-162.961
1634.88	-157.854
1637.6	-165.356
1640.33	-164.568
1643.05	-161.946
1645.78	-160.045
1648.5	-161.828
1651.23	-162.473
1653.95	-165.246
1656.68	-166.672
1659.4	-167.97
1662.13	-167.951
1664.85	-165.348
1667.57	-165.139
1670.3	-167.967
1673.02	-167.4
1675.75	-166.735
1678.47	-164.551
1681.2	-164.574
1683.92	-166.883
1686.65	-166.065
1689.37	-166.394
1692.1	-167.214
1694.82	-166.903
1697.55	-166.698
1700.27	-166.279
1703	-168.013
1705.72	-168.433
1708.45	-166.018
1711.17	-165.507
1713.9	-163.294
1716.62	-166.386
1719.35	-165.981
1722.07	-165.886
1724.8	-165.435
1727.52	-167.102
1730.25	-165.467
1732.97	-168.223
1735.69	-166.871
1738.42	-168.411
1741.14	-164.863
1743.87	-166.335
1746.59	-166.4
1749.32	-166.542
1752.04	-164.167
1754.77	-163.822
1757.49	-166.014
1760.22	-164.363
1762.94	-162.892
1765.67	-162.485
1768.39	-163.436
1771.12	-166.121
1773.84	-166.384
1776.57	-162.662
1779.29	-162.703
1782.02	-163.282
1784.74	-163.132
1787.47	-162.704
1790.19	-161.979
1792.92	-164.168
1795.64	-164.159
1798.37	-163.727
1801.09	-165.593
1803.81	-164.24
1806.54	-163.842
1809.26	-164
1811.99	-163.512
1814.71	-166.809
1817.44	-165.083
1820.16	-166.847
1822.89	-164.867
1825.61	-163.006
1828.34	-163.51
1831.06	-161.945
1833.79	-163.347
1836.51	-162.48
1839.24	-160.474
1841.96	-161.84
1844.69	-161.28
1847.41	-162.195
1850.14	-161.8
1852.86	-161.972
1855.59	-162.389
1858.31	-161.462
1861.04	-161.748
1863.76	-164.985
1866.48	-164.312
1869.21	-163.06
1871.93	-163.893
1874.66	-162.303
1877.38	-161.633
1880.11	-164.783
1882.83	-165.2
1885.56	-161.478
1888.28	-161.194
1891.01	-160.817
1893.73	-159.226
1896.46	-162.9
1899.18	-159.69
1901.91	-160.165
1904.63	-160.535
1907.36	-160.1
1910.08	-160.453
1912.81	-160.167
1915.53	-159.13
1918.26	-159.484
1920.98	-160.668
1923.71	-161.263
1926.43	-160.756
1929.16	-162.347
1931.88	-159.918
1934.6	-159.761
1937.33	-164.012
1940.05	-162.174
1942.78	-159.946
1945.5	-159.471
1948.23	-161.185
1950.95	-160.2
1953.68	-160.2
1956.4	-159.5
1959.13	-158.689
1961.85	-159.028
1964.58	-160.59
1967.3	-159.256
1970.03	-158.026
1972.75	-159.301
1975.48	-161.121
1978.2	-158.48
1980.93	-160.798
1983.65	-159.504
1986.38	-159.198
1989.1	-158.717
1991.83	-160.247
1994.55	-158.972
1997.28	-158.656
2000	-160.095