File: Example Data/Raman/Kara/05-23-2011/Owen CNT_4.txt
1000	-172.601
1000.73	-174.158
1001.46	-177.639
1002.19	-173.432
1002.92	-174.063
1003.65	-174.4
1004.38	-174.275
1005.11	-173.119
1005.84	-174.119
1006.57	-175.876
1007.3	-174.065
1008.03	-172.468
1008.76	-174.824
1009.49	-173.573
1010.22	-173.023
1010.95	-173.176
1011.68	-173.998
1012.41	-174.486
1013.14	-174.853
1013.87	-173.677
1014.6	-175.325
1015.33	-178.089
1016.06	-177.6
1016.79	-176.787
1017.52	-173.971
1018.25	-173.914
1018.98	-175.57
1019.71	-173.978
1020.44	-173.307
1021.17	-174.827
1021.9	-175.532
1022.63	-174.673
1023.36	-174.698
1024.09	-174.648
1024.82	-172.991
1025.55	-172.577
1026.28	-174.513
1027.01	-173.435
1027.74	-175.607
1028.47	-175.976
1029.2	-175.656
1029.93	-175.132
1030.66	-173.739
1031.39	-173.946
1032.12	-173.206
1032.85	-172.107
1033.58	-171.769
1034.31	-172.936
1035.04	-175.256
1035.77	-171.821
1036.5	-174.128
1037.23	-173.206
1037.96	-174.845
1038.69	-175.168
1039.42	-174.288
1040.15	-174
1040.88	-173.154
1041.61	-172.179
1042.34	-173.057
1043.07	-174.303
1043.8	-173.741
1044.53	-173.384
1045.26	-172.906
1045.99	-174.59
1046.72	-171.452
1047.45	-173.947
1048.18	-173.7
1048.91	-172.239
1049.64	-174.516
1050.36	-173.626
1051.09	-174.417
1051.82	-174.144
1052.55	-172.752
1053.28	-173.617
1054.01	-171.835
1054.74	-176.326
1055.47	-173.748
1056.2	-175.596
1056.93	-172.098
1057.66	-171.291
1058.39	-174.288
1059.12	-173.525
1059.85	-174.668
1060.58	-176.239
1061.31	-175.652
1062.04	-174.44
1062.77	-173.745
1063.5	-174.201
1064.23	-178.082
1064.96	-176.356
1065.69	-174.275
1066.42	-176.685
1067.15	-174.51
1067.88	-172.746
1068.61	-171.08
1069.34	-172.844
1070.07	-173.412
1070.8	-174.133
1071.53	-174.405
1072.26	-172.148
1072.99	-171.302
1073.72	-173.818
1074.45	-171.861
1075.18	-172.37
1075.91	-174.385
1076.64	-171.786
1077.37	-174.013
1078.1	-174.242
1078.83	-176.356
1079.56	-175.776
1080.29	-172.473
1081.02	-170.901
1081.75	-172.664
1082.48	-173.593
1083.21	-172.434
1083.94	-173.87
1084.67	-173.458
1085.4	-173.74
1086.13	-173.006
1086.86	-174.12
1087.59	-174.892
1088.32	-173.728
1089.05	-172.241
1089.78	-174.547
1090.51	-173.666
1091.24	-173.4375
1091.97	-174.002
1092.7	-173.449
1093.43	-173.1
1094.16	-171.118
1094.89	-172.701
1095.62	-172.353
1096.35	-173.789
1097.08	-173.417
1097.81	-173.756
1098.54	-174.95
1099.27	-175.351
1100	-175.127
1100.73	-176.108
1101.46	-174.721
1102.19	-173
1102.92	-173.492
1103.65	-175.022
1104.38	-176.052
1105.11	-174.766
1105.84	-175.511
1106.57	-175.883
1107.3	-171.814
1108.03	-175.549
1108.76	-173.193
1109.49	-172.961
1110.22	-174.62
1110.95	-172.925
1111.68	-172.282
1112.41	-173.67
1113.14	-174.881
1113.87	-174.636
1114.6	-174.406
1115.33	-175.277
1116.06	-174.482
1116.79	-174.578
1117.52	-173.083
1118.25	-171.622
1118.98	-175.174
1119.71	-173.999
1120.44	-173.962
1121.17	-174.448
1121.9	-173.105
1122.63	-173.014
1123.36	-173.29
1124.09	-173.879
1124.82	-174.6
1125.55	-174.885
1126.28	-175.108
1127.01	-173.764
1127.74	-171.665
1128.47	-172.317
1129.2	-175.151
1129.93	-173.84
1130.66	-171.986
1131.39	-173.318
1132.12	-173.6
1132.85	-175.032
1133.58	-175.6
1134.31	-173.946
1135.04	-172.906
1135.77	-172.814
1136.5	-172.279
1137.23	-172.545
1137.96	-174.663
1138.69	-176.228
1139.42	-175.661
1140.15	-176.16
1140.88	-177.774
1141.61	-176.834
1142.34	-173.728
1143.07	-174.073
1143.8	-171.079
1144.53	-170.775
1145.26	-172.837
1145.99	-173.681
1146.72	-172.959
1147.45	-172.589
1148.18	-173.13
1148.91	-173.459
1149.64	-172.326
1150.36	-170.982
1151.09	-173.804
1151.82	-174.778
1152.55	-174.54
1153.28	-173.414
1154.01	-175.072
1154.74	-171.381
1155.47	-172.256
1156.2	-173.5
1156.93	-172.146
1157.66	-173.038
1158.39	-174.229
1159.12	-173.581
1159.85	-173.342
1160.58	-172.347
1161.31	-171.275
1162.04	-173.26
1162.77	-171.276
1163.5	-172.873
1164.23	-172.441
1164.96	-174.515
1165.69	-172.631
1166.42	-172.229
1167.15	-169.772
1167.88	-173.122
1168.61	-170.843
1169.34	-170.772
1170.07	-171.964
1170.8	-172.632
1171.53	-172.696
1172.26	-171.669
1172.99	-171.661
1173.72	-172.638
1174.45	-172.954
1175.18	-175.488
1175.91	-172.802
1176.64	-170.975
1177.37	-170.982
1178.1	-173.37
1178.83	-171.295
1179.56	-172.461
1180.29	-173.782
1181.02	-169.743
1181.75	-172.563
1182.48	-171.829
1183.21	-171.547
1183.94	-170.753
1184.67	-171.439
1185.4	-172.542
1186.13	-172.241
1186.86	-172.739
1187.59	-173.47
1188.32	-174.552
1189.05	-173.956
1189.78	-172.052
1190.51	-172.28
1191.24	-170.778
1191.97	-169.833
1192.7	-171.629
1193.43	-171.456
1194.16	-171.561
1194.89	-172.804
1195.62	-172.36
1196.35	-172.129
1197.08	-172.556
1197.81	-171.285
1198.54	-171.171
1199.27	-171.444
1200	-171.119
1200.73	-171.544
1201.46	-169.732
1202.19	-171.005
1202.92	-172.643
1203.65	-173.44
1204.38	-170.622
1205.11	-168.241
1205.84	-170.518
1206.57	-171.698
1207.3	-172.145
1208.03	-172.362
1208.76	-174.375
1209.49	-170.89
1210.22	-172.49
1210.95	-171.65
1211.68	-171.447
1212.41	-172.094
1213.14	-172.238
1213.87	-172.513
1214.6	-172.297
1215.33	-173.017
1216.06	-172.498
1216.79	-171.872
1217.52	-170.476
1218.25	-169.947
1218.98	-170.979
1219.71	-167.227
1220.44	-171.789
1221.17	-169.281
1221.9	-171.571
1222.63	-171.028
1223.36	-172.322
1224.09	-169.954
1224.82	-169.33
1225.55	-171.322
1226.28	-172.173
1227.01	-171.482
1227.74	-171.281
1228.47	-172.021
1229.2	-172.151
1229.93	-170.943
1230.66	-170.335
1231.39	-171.108
1232.12	-171.459
1232.85	-173.58
1233.58	-168.897
1234.31	-173.914
1235.04	-172.01
1235.77	-170.291
1236.5	-170.2
1237.23	-168.66
1237.96	-169.855
1238.69	-172.03
1239.42	-171.598
1240.15	-171.602
1240.88	-171.925
1241.61	-170.959
1242.34	-170.413
1243.07	-170.6
1243.8	-171.13
1244.53	-169.347
1245.26	-167.496
1245.99	-171.061
1246.72	-171.409
1247.45	-171.526
1248.18	-169.697
1248.91	-169.225
1249.64	-169.631
1250.36	-172.092
1251.09	-169.422
1251.82	-170.348
1252.55	-170.038
1253.28	-168.795
1254.01	-168.6
1254.74	-170.147
1255.47	-170.308
1256.2	-171.024
1256.93	-170.371
1257.66	-168.24
1258.39	-168.76
1259.12	-171.234
1259.85	-170.987
1260.58	-169.4
1261.31	-169.168
1262.04	-169.697
1262.77	-170.735
1263.5	-169.875
1264.23	-170.801
1264.96	-167.619
1265.69	-169.467
1266.42	-168.397
1267.15	-166.621
1267.88	-170.777
1268.61	-168.095
1269.34	-169.853
1270.07	-170.354
1270.8	-169.557
1271.53	-168.276
1272.26	-168.61
1272.99	-169.089
1273.72	-168.519
1274.45	-168.584
1275.18	-170.72
1275.91	-168.081
1276.64	-166.56
1277.37	-168.864
1278.1	-170.152
1278.83	-170.68
1279.56	-170.367
1280.29	-170.116
1281.02	-170.86
1281.75	-170.34
1282.48	-170.459
1283.21	-167.557
1283.94	-170.818
1284.67	-166.871
1285.4	-167.542
1286.13	-166.427
1286.86	-168.929
1287.59	-169.374
1288.32	-171.728
1289.05	-167.025
1289.78	-168.661
1290.51	-167.321
1291.24	-168.441
1291.97	-169
1292.7	-168.866
1293.43	-168.8
1294.16	-168.204
1294.89	-168.135
1295.62	-168.818
1296.35	-169.394
1297.08	-168.343
1297.81	-166.8
1298.54	-167.853
1299.27	-168.31
1300	-167.377
1300.73	-170.572
1301.46	-168.937
1302.19	-167.479
1302.92	-167.929
1303.65	-168.373
1304.38	-166.872
1305.11	-167.567
1305.84	-167.076
1306.57	-170.943
1307.3	-169.479
1308.03	-170.681
1308.76	-169.92
1309.49	-167.26
1310.22	-166.8
1310.95	-166.8
1311.68	-165.312
1312.41	-167.212
1313.14	-167.93
1313.87	-167.8
1314.6	-167.192
1315.33	-165.88
1316.06	-165.525
1316.79	-166.41
1317.52	-167.285
1318.25	-167.158
1318.98	-166.927
1319.71	-167.851
1320.44	-168.738
1321.17	-168.689
1321.9	-168.223
1322.63	-168.26
1323.36	-166.471
1324.09	-166.073
1324.82	-166.43
1325.55	-166.198
1326.28	-163.444
1327.01	-166.054
1327.74	-167
1328.47	-167
1329.2	-163.345
1329.93	-162.641
1330.66	-163.678
1331.39	-165.015
1332.12	-164.362
1332.85	-166.138
1333.58	-166.134
1334.31	-167.345
1335.04	-167.083
1335.77	-162.675
1336.5	-162.773
1337.23	-164.428
1337.96	-164.561
1338.69	-164.059
1339.42	-163.908
1340.15	-163.388
1340.88	-164.818
1341.61	-166.097
1342.34	-164.662
1343.07	-163.728
1343.8	-163.655
1344.53	-164.197
1345.26	-163.614
1345.99	-164.776
1346.72	-163.597
1347.45	-162.379
1348.18	-164.166
1348.91	-163.099
1349.64	-162.152
1350.36	-159.736
1351.09	-162.709
1351.82	-165.873
1352.55	-163.824
1353.28	-164.596
1354.01	-163.623
1354.74	-164.169
1355.47	-164.939
1356.2	-166.613
1356.93	-162.447
1357.66	-161.8
1358.39	-163.764
1359.12	-162.934
1359.85	-162.294
1360.58	-162.644
1361.31	-162.514
1362.04	-162.262
1362.77	-162.863
1363.5	-162.817
1364.23	-162.109
1364.96	-161.8
1365.69	-164.503
1366.42	-165.306
1367.15	-162.967
1367.88	-165.221
1368.61	-165.732
1369.34	-161.935
1370.07	-164.689
1370.8	-166.564
1371.53	-163.094
1372.26	-163.531
1372.99	-164.042
1373.72	-164.327
1374.45	-162.789
1375.18	-165.853
1375.91	-166.743
1376.64	-164.83
1377.37	-163.912
1378.1	-165.656
1378.83	-163.24
1379.56	-165.655
1380.29	-162.778
1381.02	-160.95
1381.75	-165.59
1382.48	-165.329
1383.21	-162.601
1383.94	-162.993
1384.67	-163.577
1385.4	-165.667
1386.13	-163.964
1386.86	-167.026
1387.59	-165.296
1388.32	-166.71
1389.05	-162.665
1389.78	-164.243
1390.51	-163.372
1391.24	-166.243
1391.97	-164.641
1392.7	-165.704
1393.43	-166.684
1394.16	-166.938
1394.89	-165.119
1395.62	-165.767
1396.35	-162.803
1397.08	-163.915
1397.81	-163.742
1398.54	-162.2
1399.27	-163.756
1400	-166.181
1400.73	-165.019
1401.46	-162.7
1402.19	-163.17
1402.92	-164.649
1403.65	-165.222
1404.38	-165.085
1405.11	-164.791
1405.84	-163.183
1406.57	-161.972
1407.3	-163.808
1408.03	-164.24
1408.76	-162.665
1409.49	-165.749
1410.22	-163.629
1410.95	-163.953
1411.68	-165.041
1412.41	-162.578
1413.14	-163.932
1413.87	-164.481
1414.6	-164.089
1415.33	-160.829
1416.06	-160.434
1416.79	-162.633
1417.52	-161.723
1418.25	-162.965
1418.98	-165.395
1419.71	-159.643
1420.44	-162.588
1421.17	-162.49
1421.9	-164.347
1422.63	-162.591
1423.36	-162.002
1424.09	-163.578
1424.82	-164.183
1425.55	-164.2
1426.28	-166.088
1427.01	-162.111
1427.74	-165.641
1428.47	-161.321
1429.2	-163.108
1429.93	-162.701
1430.66	-163.459
1431.39	-163.769
1432.12	-163.8
1432.85	-161.994
1433.58	-161.277
1434.31	-163.427
1435.04	-163.218
1435.77	-159.92
1436.5	-160.514
1437.23	-162.788
1437.96	-163.4
1438.69	-160.807
1439.42	-160.649
1440.15	-162.253
1440.88	-160.744
1441.61	-160.473
1442.34	-162.388
1443.07	-163.07
1443.8	-163.383
1444.53	-162.47
1445.26	-161.429
1445.99	-163.751
1446.72	-163.728
1447.45	-161.897
1448.18	-162.895
1448.91	-162.757
1449.64	-161.245
1450.36	-160.582
1451.09	-159.757
1451.82	-159.726
1452.55	-161.027
1453.28	-160.683
1454.01	-159.5
1454.74	-160.378
1455.47	-161.112
1456.2	-161.083
1456.93	-160.938
1457.66	-161.034
1458.39	-161.267
1459.12	-161.297
1459.85	-160.491
1460.58	-158.87
1461.31	-160.787
1462.04	-162.362
1462.77	-162.6
1463.5	-161.514
1464.23	-160.714
1464.96	-162.874
1465.69	-164.22
1466.42	-164.026
1467.15	-162.719
1467.88	-161.785
1468.61	-160.932
1469.34	-160.267
1470.07	-159.46
1470.8	-160.383
1471.53	-161.263
1472.26	-161.461
1472.99	-161.54
1473.72	-161.518
1474.45	-161.394
1475.18	-161.252
1475.91	-162.563
1476.64	-160.673
1477.37	-161.131
1478.1	-160.717
1478.83	-160.67
1479.56	-158.424
1480.29	-159.719
1481.02	-158.235
1481.75	-158.825
1482.48	-158.16
1483.21	-157.277
1483.94	-157.747
1484.67	-157.741
1485.4	-157.431
1486.13	-159.405
1486.86	-159.556
1487.59	-158.288
1488.32	-158.699
1489.05	-159.27
1489.78	-156.955
1490.51	-157.127
1491.24	-158.831
1491.97	-159.627
1492.7	-158.925
1493.43	-159.355
1494.16	-157.791
1494.89	-157.841
1495.62	-156.216
1496.35	-156.192
1497.08	-156.956
1497.81	-156.605
1498.54	-156.147
1499.27	-155.339
1500	-154.366
1500.73	-156.629
1501.46	-155.121
1502.19	-155.948
1502.92	-156.275
1503.65	-154.866
1504.38	-156.107
1505.11	-156.14
1505.84	-156.711
1506.57	-154.281
1507.3	-153.058
1508.03	-154.826
1508.76	-154.855
1509.49	-154.371
1510.22	-153.674
1510.95	-153.782
1511.68	-154.619
1512.41	-154.674
1513.14	-153.045
1513.87	-154.135
1514.6	-153.444
1515.33	-153.64
1516.06	-154.112
1516.79	-155.48
1517.52	-154.136
1518.25	-151.583
1518.98	-150.756
1519.71	-149.748
1520.44	-152.573
1521.17	-154.494
1521.9	-152.746
1522.63	-154.223
1523.36	-151.641
1524.09	-151.868
1524.82	-151.143
1525.55	-151.114
1526.28	-151.332
1527.01	-150.756
1527.74	-151.134
1528.47	-151.631
1529.2	-151.441
1529.93	-150.478
1530.66	-150.257
1531.39	-149.673
1532.12	-150.562
1532.85	-149.685
1533.58	-149.548
1534.31	-148.147
1535.04	-148.661
1535.77	-148.091
1536.5	-148.59
1537.23	-150.624
1537.96	-148.806
1538.69	-149.234
1539.42	-147.298
1540.15	-148.593
1540.88	-148.953
1541.61	-148.959
1542.34	-147.962
1543.07	-147.789
1543.8	-148.213
1544.53	-148.554
1545.26	-148.443
1545.99	-148.321
1546.72	-147.571
1547.45	-148.071
1548.18	-146.389
1548.91	-145.594
1549.64	-146.007
1550.36	-147.577
1551.09	-147.724
1551.82	-146.722
1552.55	-146.03
1553.28	-147.132
1554.01	-146.63
1554.74	-146.096
1555.47	-145.307
1556.2	-145.094
1556.93	-146.265
1557.66	-146.479
1558.39	-145.827
1559.12	-144.975
1559.85	-146.04
1560.58	-145.074
1561.31	-143.966
1562.04	-143.282
1562.77	-143.727
1563.5	-143.111
1564.23	-143.462
1564.96	-142.633
1565.69	-142.956
1566.42	-143.148
1567.15	-142.429
1567.88	-142.918
1568.61	-141.778
1569.34	-140.45
1570.07	-140.597
1570.8	-139.026
1571.53	-139.808
1572.26	-140.507
1572.99	-138.554
1573.72	-139.387
1574.45	-139.35
1575.18	-139.696
1575.91	-138.293
1576.64	-140.051
1577.37	-139.105
1578.1	-140.14
1578.83	-138.633
1579.56	-139.072
1580.29	-139.106
1581.02	-137.076
1581.75	-138.162
1582.48	-137.96
1583.21	-140.086
1583.94	-139.773
1584.67	-137.799
1585.4	-137.238
1586.13	-138.108
1586.86	-138.171
1587.59	-138.48
1588.32	-138.753
1589.05	-137.982
1589.78	-138.2
1590.51	-135.841
1591.24	-135.236
1591.97	-135.635
1592.7	-136.664
1593.43	-136.922
1594.16	-135.199
1594.89	-135.739
1595.62	-132.936
1596.35	-133.591
1597.08	-134.364
1597.81	-135.626
1598.54	-134.001
1599.27	-134.054
1600	-134.491
1600.73	-133.957
1601.46	-134.971
1602.19	-134.869
1602.92	-134.955
1603.65	-135.314
1604.38	-134.697
1605.11	-134.383
1605.84	-134.947
1606.57	-132.286
1607.3	-133.568
1608.03	-133.678
1608.76	-134.229
1609.49	-134.825
1610.22	-131.349
1610.95	-131.7
1611.68	-132.922
1612.41	-132.745
1613.14	-131.646
1613.87	-132.981
1614.6	-133.51
1615.33	-135.258
1616.06	-132.464
1616.79	-133.588
1617.52	-132.535
1618.25	-130.365
1618.98	-131.124
1619.71	-131.112
1620.44	-131.04
1621.17	-133.029
1621.9	-131.868
1622.63	-131.111
1623.36	-132.126
1624.09	-130.73
1624.82	-131.121
1625.55	-131.27
1626.28	-131.221
1627.01	-130.498
1627.74	-130.551
1628.47	-131.455
1629.2	-130.539
1629.93	-129.359
1630.66	-130.442
1631.39	-130.523
1632.12	-130.307
1632.85	-130.591
1633.58	-130.556
1634.31	-129.531
1635.04	-130.196
1635.77	-128.903
1636.5	-128.365
1637.23	-127.666
1637.96	-128.788
1638.69	-128.831
1639.42	-128.422
1640.15	-129.621
1640.88	-129.441
1641.61	-130.948
1642.34	-131.061
1643.07	-130.084
1643.8	-128.143
1644.53	-129.298
1645.26	-130.259
1645.99	-128.72
1646.72	-128.222
1647.45	-129.128
1648.18	-128.149
1648.91	-127.446
1649.64	-127.848
1650.36	-127.285
1651.09	-125.895
1651.82	-126.426
1652.55	-127.327
1653.28	-127.802
1654.01	-127.954
1654.74	-126.212
1655.47	-125.968
1656.2	-124.658
1656.93	-124.467
1657.66	-125.52
1658.39	-124.924
1659.12	-124.852
1659.85	-127.105
1660.58	-126.332
1661.31	-124.962
1662.04	-124.473
1662.77	-123.399
1663.5	-124.076
1664.23	-126.131
1664.96	-125.561
1665.69	-124.34
1666.42	-123.591
1667.15	-124.326
1667.88	-125.112
1668.61	-123.43
1669.34	-122.168
1670.07	-123.169
1670.8	-123.445
1671.53	-121.756
1672.26	-124.065
1672.99	-123.408
1673.72	-124.564
1674.45	-123.505
1675.18	-121.646
1675.91	-123.258
1676.64	-123.256
1677.37	-122.685
1678.1	-123.957
1678.83	-121.278
1679.56	-123.485
1680.29	-122.055
1681.02	-122.562
1681.75	-120.43
1682.48	-121.121
1683.21	-121.722
1683.94	-120.551
1684.67	-121.064
1685.4	-121.076
1686.13	-120.322
1686.86	-120.737
1687.59	-120.997
1688.32	-120.306
1689.05	-120.336
1689.78	-120.809
1690.51	-119.419
1691.24	-120.731
1691.97	-120.194
1692.7	-119.423
1693.43	-120.321
1694.16	-120
1694.89	-119.355
1695.62	-119.191
1696.35	-118.848
1697.08	-118.309
1697.81	-118.799
1698.54	-117.939
1699.27	-117.863
1700	-118.081
1700.73	-116.999
1701.46	-118.914
1702.19	-117.77
1702.92	-117.092
1703.65	-119.122
1704.38	-117.827
1705.11	-117.51
1705.84	-119.025
1706.57	-114.772
1707.3	-116.026
1708.03	-117.395
1708.76	-114.798
1709.49	-116.785
1710.22	-115.443
1710.95	-116.624
1711.68	-116.53
1712.41	-117.246
1713.14	-116.703
1713.87	-117.607
1714.6	-115.438
1715.33	-118.348
1716.06	-115.433
1716.79	-117.427
1717.52	-117.864
1718.25	-118.855
1718.98	-116.935
1719.71	-115.577
1720.44	-115.274
1721.17	-114.776
1721.9	-115.488
1722.63	-115.246
1723.36	-115.111
1724.09	-114.68
1724.82	-113.403
1725.55	-114.232
1726.28	-114.844
1727.01	-114.797
1727.74	-114.785
1728.47	-114.824
1729.2	-115.761
1729.93	-116.625
1730.66	-115.533
1731.39	-113.387
1732.12	-114.207
1732.85	-117.596
1733.58	-115.259
1734.31	-115.977
1735.04	-115.484
1735.77	-117
1736.5	-116.518
1737.23	-115.838
1737.96	-116.72
1738.69	-114.624
1739.42	-115.9
1740.15	-113.398
1740.88	-115.582
1741.61	-115.775
1742.34	-115.071
1743.07	-114.712
1743.8	-114.717
1744.53	-115.933
1745.26	-118.437
1745.99	-118.459
1746.72	-116.639
1747.45	-117.918
1748.18	-118.069
1748.91	-116.607
1749.64	-116.641
1750.36	-116.516
1751.09	-117.271
1751.82	-117.093
1752.55	-118.468
1753.28	-119.447
1754.01	-120.304
1754.74	-119.772
1755.47	-121.437
1756.2	-121.281
1756.93	-120.305
1757.66	-120.505
1758.39	-120.12
1759.12	-123.745
1759.85	-122.987
1760.58	-124.067
1761.31	-126.472
1762.04	-122.735
1762.77	-121.113
1763.5	-120.445
1764.23	-124.926
1764.96	-121.628
1765.69	-122.497
1766.42	-120.295
1767.15	-123.442
1767.88	-121.987
1768.61	-122.162
1769.34	-123.196
1770.07	-121.006
1770.8	-122.912
1771.53	-125.323
1772.26	-123.353
1772.99	-124.119
1773.72	-124.18
1774.45	-123.443
1775.18	-121.415
1775.91	-122.524
1776.64	-123.615
1777.37	-122.129
1778.1	-121.742
1778.83	-122.599
1779.56	-122.95
1780.29	-121.741
1781.02	-121.364
1781.75	-120.014
1782.48	-122.219
1783.21	-121.458
1783.94	-120.685
1784.67	-122.267
1785.4	-122.224
1786.13	-121.819
1786.86	-124.365
1787.59	-122.511
1788.32	-123.957
1789.05	-122.883
1789.78	-120.259
1790.51	-124.044
1791.24	-122.276
1791.97	-121.327
1792.7	-121.425
1793.43	-122.148
1794.16	-123.042
1794.89	-121.729
1795.62	-121.111
1796.35	-121.628
1797.08	-121.776
1797.81	-121.256
1798.54	-119.673
1799.27	-119.526
1800	-121.462
1800.73	-120.26
1801.46	-119.924
1802.19	-120.823
1802.92	-118.134
1803.65	-119.389
1804.38	-121.094
1805.11	-121.987
1805.84	-119.619
1806.57	-120.589
1807.3	-120.099
1808.03	-120.866
1808.76	-119.783
1809.49	-119.251
1810.22	-118.399
1810.95	-120.158
1811.68	-119.95
1812.41	-119.231
1813.14	-118.702
1813.87	-119.594
1814.6	-119.62
1815.33	-119.415
1816.06	-119.529
1816.79	-119.002
1817.52	-119.008
1818.25	-120.469
1818.98	-119.539
1819.71	-117.612
1820.44	-116.558
1821.17	-117.627
1821.9	-117.634
1822.63	-120.274
1823.36	-119.225
1824.09	-114.456
1824.82	-120.642
1825.55	-118.421
1826.28	-116.716
1827.01	-115.466
1827.74	-117.125
1828.47	-118.8
1829.2	-118.359
1829.93	-118.877
1830.66	-118.615
1831.39	-117.996
1832.12	-117.554
1832.85	-118.164
1833.58	-118.18
1834.31	-116.326
1835.04	-118.283
1835.77	-117.684
1836.5	-119.856
1837.23	-115.948
1837.96	-118.885
1838.69	-116.822
1839.42	-116.615
1840.15	-115.663
1840.88	-118.39
1841.61	-118.082
1842.34	-118.269
1843.07	-116.577
1843.8	-116.616
1844.53	-115.528
1845.26	-116.94
1845.99	-116.023
1846.72	-115.767
1847.45	-117.19
1848.18	-117.787
1848.91	-117.765
1849.64	-117.384
1850.36	-117.151
1851.09	-116.634
1851.82	-117.345
1852.55	-117.451
1853.28	-117.066
1854.01	-118.488
1854.74	-119.975
1855.47	-118.763
1856.2	-116.38
1856.93	-118.804
1857.66	-119.981
1858.39	-118.728
1859.12	-118.522
1859.85	-118.181
1860.58	-117.257
1861.31	-117.347
1862.04	-116.884
1862.77	-117.415
1863.5	-116.846
1864.23	-117.159
1864.96	-116.139
1865.69	-117.294
1866.42	-119.253
1867.15	-119.45
1867.88	-119.24
1868.61	-117.172
1869.34	-116.622
1870.07	-116.654
1870.8	-117.815
1871.53	-117.952
1872.26	-118.397
1872.99	-116.858
1873.72	-117.556
1874.45	-117.067
1875.18	-116.576
1875.91	-116.997
1876.64	-117.114
1877.37	-117.127
1878.1	-116.108
1878.83	-116.888
1879.56	-115.882
1880.29	-114.75
1881.02	-113.951
1881.75	-113.992
1882.48	-115.331
1883.21	-115.017
1883.94	-119.117
1884.67	-117.236
1885.4	-117.256
1886.13	-115.773
1886.86	-114.224
1887.59	-116.61
1888.32	-116.863
1889.05	-116.177
1889.78	-115.813
1890.51	-116.675
1891.24	-115.158
1891.97	-116.466
1892.7	-115.225
1893.43	-116.076
1894.16	-118.611
1894.89	-113.853
1895.62	-113.215
1896.35	-116.813
1897.08	-115.903
1897.81	-114.405
1898.54	-116.132
1899.27	-116.676
1900	-113.381
1900.73	-113.166
1901.46	-113.57
1902.19	-114.337
1902.92	-116.141
1903.65	-116.264
1904.38	-114.728
1905.11	-113.734
1905.84	-114.835
1906.57	-113.242
1907.3	-115.286
1908.03	-112.605
1908.76	-115.013
1909.49	-112.591
1910.22	-112.503
1910.95	-113.855
1911.68	-111.093
1912.41	-113.276
1913.14	-114.069
1913.87	-114.792
1914.6	-114.603
1915.33	-113.924
1916.06	-114.108
1916.79	-114.949
1917.52	-114.723
1918.25	-116.834
1918.98	-114.681
1919.71	-113.115
1920.44	-112.428
1921.17	-114.726
1921.9	-112.615
1922.63	-112.648
1923.36	-112.542
1924.09	-111.79
1924.82	-111.291
1925.55	-110.034
1926.28	-112.251
1927.01	-114.015
1927.74	-113.528
1928.47	-112.273
1929.2	-114.318
1929.93	-114.736
1930.66	-112.885
1931.39	-113.172
1932.12	-111.226
1932.85	-112.192
1933.58	-112.158
1934.31	-113.522
1935.04	-109.828
1935.77	-113.07
1936.5	-112.924
1937.23	-112.715
1937.96	-113.815
1938.69	-114.745
1939.42	-112.438
1940.15	-110.815
1940.88	-111.439
1941.61	-110.26
1942.34	-111.661
1943.07	-111.815
1943.8	-109.119
1944.53	-111.1
1945.26	-110.106
1945.99	-110.013
1946.72	-111.279
1947.45	-111.569
1948.18	-110.818
1948.91	-112.119
1949.64	-112.414
1950.36	-112.459
1951.09	-111.911
1951.82	-112.367
1952.55	-111.58
1953.28	-110.484
1954.01	-111.215
1954.74	-110.14
1955.47	-111.76
1956.2	-111.791
1956.93	-112.039
1957.66	-110.203
1958.39	-110.99
1959.12	-111.654
1959.85	-112.293
1960.58	-109.229
1961.31	-111.219
1962.04	-111.336
1962.77	-111.352
1963.5	-111.232
1964.23	-110.428
1964.96	-108.738
1965.69	-107.339
1966.42	-107.608
1967.15	-110.491
1967.88	-110.3
1968.61	-109.792
1969.34	-107.41
1970.07	-108.398
1970.8	-111.036
1971.53	-110.947
1972.26	-109.949
1972.99	-111.006
1973.72	-109.366
1974.45	-109.813
1975.18	-110.445
1975.91	-108.564
1976.64	-110.398
1977.37	-109.849
1978.1	-109.829
1978.83	-108.551
1979.56	-107.598
1980.29	-108.902
1981.02	-109.151
1981.75	-109.353
1982.48	-108.314
1983.21	-106.416
1983.94	-107.951
1984.67	-108.16
1985.4	-106.977
1986.13	-108.1
1986.86	-107.882
1987.59	-107.86
1988.32	-105.576
1989.05	-105.208
1989.78	-106.13
1990.51	-106.345
1991.24	-106.415
1991.97	-106.897
1992.7	-107.896
1993.43	-106.483
1994.16	-108.319
1994.89	-105.503
1995.62	-104.539
1996.35	-104.001
1997.08	-104.177
1997.81	-106.126
1998.54	-105.407
1999.27	-104.83
2000	-106.472