File: Example Data/Raman/Kara/05-23-2011/Owen CNT_3.txt
300	-204.657
301.529	-204.844
303.058	-204.316
304.586	-205.726
306.115	-206.378
307.644	-205.4
309.173	-207.128
310.701	-203.654
312.23	-204.282
313.759	-205.626
315.288	-204.573
316.817	-206.147
318.345	-206.624
319.874	-205.271
321.403	-205.315
322.932	-208.126
324.46	-204.835
325.989	-204.064
327.518	-205.347
329.047	-203.736
330.576	-205.2
332.104	-202.289
333.633	-204.304
335.162	-204.586
336.691	-206
338.219	-207.002
339.748	-202.643
341.277	-202.815
342.806	-203.559
344.335	-204.901
345.863	-204.874
347.392	-205.67
348.921	-203.135
350.45	-205.591
351.978	-205.665
353.507	-204.629
355.036	-203.055
356.565	-201.791
358.094	-205.2
359.622	-202.939
361.151	-205.834
362.68	-205.787
364.209	-204.432
365.737	-203.027
367.266	-205.724
368.795	-204.691
370.324	-206
371.853	-204.919
373.381	-203.145
374.91	-205.129
376.439	-205.283
377.968	-205.466
379.496	-205.247
381.025	-203.128
382.554	-205.394
384.083	-205.503
385.612	-206.991
387.14	-206.282
388.669	-204.822
390.198	-204.376
391.727	-206.548
393.255	-206.832
394.784	-203.572
396.313	-204.862
397.842	-203.725
399.371	-206.539
400.899	-204.388
402.428	-203.795
403.957	-202.415
405.486	-204.834
407.014	-205.602
408.543	-204.618
410.072	-204.267
411.601	-203.798
413.129	-206.334
414.658	-204.957
416.187	-202.6
417.716	-206.583
419.245	-202.912
420.773	-203.123
422.302	-201.097
423.831	-202.277
425.36	-206.127
426.888	-205.136
428.417	-203.433
429.946	-204.373
431.475	-203.4
433.004	-202.512
434.532	-204.054
436.061	-203.329
437.59	-200.791
439.119	-203.087
440.647	-204.171
442.176	-204.479
443.705	-204.859
445.234	-203.749
446.763	-205.379
448.291	-204.038
449.82	-203.294
451.349	-203.84
452.878	-204.098
454.406	-203.396
455.935	-201.86
457.464	-203.308
458.993	-203.167
460.522	-202.505
462.05	-202.178
463.579	-202.131
465.108	-202.862
466.637	-203.676
468.165	-203.131
469.694	-201.514
471.223	-202.452
472.752	-201.286
474.281	-201.799
475.809	-207.139
477.338	-202.788
478.867	-203.285
480.396	-202.664
481.924	-201.729
483.453	-200.824
484.982	-203.8
486.511	-204.255
488.04	-203.965
489.568	-206.873
491.097	-204.004
492.626	-203.17
494.155	-200.441
495.683	-205.426
497.212	-204.48
498.741	-200.238
500.27	-204.976
501.799	-202.764
503.327	-201.135
504.856	-204.201
506.385	-202.97
507.914	-204.608
509.442	-201.74
510.971	-204.579
512.5	-201.296
514.029	-204.744
515.558	-202.2
517.086	-202.6
518.615	-204.028
520.144	-203.441
521.673	-204.476
523.201	-202.113
524.73	-203.626
526.259	-203.17
527.788	-202.811
529.317	-200.552
530.845	-203.46
532.374	-201.284
533.903	-204.273
535.432	-201.99
536.96	-202.807
538.489	-199.851
540.018	-202.384
541.547	-202.739
543.076	-203.103
544.604	-199.404
546.133	-201.653
547.662	-201.493
549.191	-202.4
550.719	-203.2
552.248	-202.749
553.777	-202.004
555.306	-201.339
556.835	-202.528
558.363	-202.595
559.892	-200.733
561.421	-199.751
562.95	-202.1
564.478	-200.771
566.007	-200.679
567.536	-200.144
569.065	-198.683
570.594	-203.895
572.122	-203.536
573.651	-200.59
575.18	-202.742
576.709	-200.647
578.237	-198.284
579.766	-201.048
581.295	-201.422
582.824	-200.544
584.353	-201.55
585.881	-201.689
587.41	-198.365
588.939	-199.353
590.468	-200.156
591.996	-199.609
593.525	-202.098
595.054	-201.87
596.583	-197.112
598.112	-198.143
599.64	-200.2
601.169	-200.742
602.698	-200.295
604.227	-200.498
605.755	-200.173
607.284	-202.002
608.813	-201.341
610.342	-196.33
611.87	-199.263
613.399	-200.307
614.928	-202.33
616.457	-201.148
617.986	-201.984
619.514	-199.421
621.043	-201.941
622.572	-202.194
624.101	-200.449
625.63	-200.898
627.158	-201.95
628.687	-200.779
630.216	-199.129
631.745	-200.96
633.273	-200.83
634.802	-199.144
636.331	-202.519
637.86	-200.296
639.388	-199.187
640.917	-200.409
642.446	-201.108
643.975	-202.118
645.504	-200.889
647.032	-198.813
648.561	-197.048
650.09	-203.445
651.619	-197.606
653.147	-199.285
654.676	-199.68
656.205	-199.06
657.734	-198.897
659.263	-200.187
660.791	-198.479
662.32	-198.881
663.849	-194.787
665.378	-198.297
666.906	-197.88
668.435	-197.742
669.964	-197.6
671.493	-196.283
673.022	-196.994
674.55	-197.783
676.079	-196.896
677.608	-196.114
679.137	-196.108
680.665	-196.86
682.194	-196.805
683.723	-195.998
685.252	-195
686.781	-196.852
688.309	-194.8
689.838	-196.265
691.367	-193.742
692.896	-198.854
694.424	-197.386
695.953	-197.855
697.482	-194.26
699.011	-193.953
700.54	-195.668
702.068	-196.607
703.597	-195.738
705.126	-198.447
706.655	-198.539
708.183	-194.695
709.712	-194.4
711.241	-196.067
712.77	-194.358
714.299	-195.734
715.827	-193.291
717.356	-194.391
718.885	-193.516
720.414	-193.523
721.942	-194.679
723.471	-197.372
725	-193.716
726.529	-195.766
728.058	-195.277
729.586	-194.292
731.115	-191.909
732.644	-194.451
734.173	-192.925
735.701	-194.732
737.23	-194.163
738.759	-193.543
740.288	-194.2
741.817	-194.735
743.345	-194.574
744.874	-192.743
746.403	-194.744
747.932	-193.721
749.46	-192.492
750.989	-196.667
752.518	-192.964
754.047	-192.504
755.576	-192.654
757.104	-190.268
758.633	-192.875
760.162	-192.356
761.691	-192.691
763.219	-190.637
764.748	-189.397
766.277	-193.148
767.806	-193.434
769.335	-189.197
770.863	-190.519
772.392	-192.543
773.921	-190.574
775.45	-192.797
776.978	-192.982
778.507	-189.834
780.036	-192.127
781.565	-190.764
783.094	-190.429
784.622	-189.628
786.151	-189.632
787.68	-188.539
789.209	-189.084
790.737	-190.076
792.266	-191.997
793.795	-190.892
795.324	-190.281
796.853	-189.061
798.381	-188.467
799.91	-190.828
801.439	-191.111
802.968	-190.895
804.496	-189.032
806.025	-189.538
807.554	-191.242
809.083	-191.519
810.612	-190.192
812.14	-189.457
813.669	-190.924
815.198	-190.946
816.727	-191.54
818.255	-189.274
819.784	-187.456
821.313	-192.355
822.842	-192.469
824.37	-190.577
825.899	-189.264
827.428	-189.126
828.957	-189.387
830.486	-190.53
832.014	-190.01
833.543	-190.128
835.072	-188.606
836.601	-188.179
838.13	-189.712
839.658	-188.811
841.187	-188.454
842.716	-189.479
844.245	-188.393
845.773	-188.387
847.302	-188.721
848.831	-187.773
850.36	-189.686
851.888	-189.175
853.417	-188.632
854.946	-186.959
856.475	-188.85
858.004	-186.864
859.532	-188.728
861.061	-186.209
862.59	-185.206
864.119	-188.219
865.647	-188.139
867.176	-185.953
868.705	-184.922
870.234	-189.722
871.763	-186.996
873.291	-184.764
874.82	-186.435
876.349	-185.805
877.878	-188.976
879.406	-187.344
880.935	-186.1
882.464	-187.195
883.993	-186.796
885.522	-184.615
887.05	-183.982
888.579	-186.106
890.108	-182.674
891.637	-186.358
893.165	-184.505
894.694	-183.786
896.223	-183.196
897.752	-182.117
899.281	-182.854
900.809	-183.299
902.338	-183.528
903.867	-180.807
905.396	-183.692
906.924	-183.439
908.453	-184.514
909.982	-181.331
911.511	-182.174
913.04	-182.528
914.568	-181.538
916.097	-182.311
917.626	-180.76
919.155	-180.859
920.683	-180.624
922.212	-183.419
923.741	-180.037
925.27	-182.07
926.799	-182.444
928.327	-180.593
929.856	-177.585
931.385	-180.467
932.914	-180.054
934.442	-181.734
935.971	-178.261
937.5	-178.311
939.029	-179.556
940.558	-179.895
942.086	-176.859
943.615	-178.693
945.144	-178.359
946.673	-176.603
948.201	-177.839
949.73	-176.067
951.259	-175.292
952.788	-174.773
954.317	-175.316
955.845	-176.754
957.374	-175.161
958.903	-176.6
960.432	-175.957
961.96	-174.479
963.489	-174.235
965.018	-171.171
966.547	-174.755
968.076	-173.69
969.604	-175.423
971.133	-172.188
972.662	-170.201
974.191	-172.027
975.719	-171.558
977.248	-168.55
978.777	-170.026
980.306	-168.918
981.835	-169.762
983.363	-168.836
984.892	-168.486
986.421	-166.657
987.95	-165.255
989.478	-165.388
991.007	-165.419
992.536	-166.433
994.065	-166.139
995.594	-166.387
997.122	-165.96
998.651	-163.921
1000.18	-163.334
1001.71	-164.637
1003.24	-162.977
1004.77	-160.693
1006.29	-159.723
1007.82	-161.536
1009.35	-158.429
1010.88	-160.982
1012.41	-160.012
1013.94	-159.709
1015.47	-158.449
1017	-157.726
1018.53	-156.262
1020.05	-152.8
1021.58	-155.192
1023.11	-156.125
1024.64	-154.275
1026.17	-150.911
1027.7	-148.758
1029.23	-151.748
1030.76	-150.548
1032.28	-145.9
1033.81	-147.426
1035.34	-147.229
1036.87	-147.491
1038.4	-144.926
1039.93	-143.802
1041.46	-140.923
1042.99	-142.959
1044.51	-138.282
1046.04	-139.711
1047.57	-135.948
1049.1	-135.942
1050.63	-137.129
1052.16	-132.324
1053.69	-132.302
1055.22	-132.375
1056.74	-134.072
1058.27	-133.944
1059.8	-132.128
1061.33	-133.344
1062.86	-131.841
1064.39	-133.508
1065.92	-131.908
1067.45	-132.004
1068.97	-133.59
1070.5	-134.415
1072.03	-135.349
1073.56	-135.089
1075.09	-133.956
1076.62	-134.773
1078.15	-134.41
1079.68	-135.114
1081.21	-135.638
1082.73	-135.338
1084.26	-136.807
1085.79	-136.691
1087.32	-136.423
1088.85	-137.89
1090.38	-139.322
1091.91	-140.569
1093.44	-141.011
1094.96	-141.513
1096.49	-144.13
1098.02	-143.702
1099.55	-146.347
1101.08	-147.215
1102.61	-146.948
1104.14	-150.918
1105.67	-151.073
1107.19	-153.096
1108.72	-154.951
1110.25	-156.844
1111.78	-157.471
1113.31	-159.975
1114.84	-162.996
1116.37	-164.972
1117.9	-167.165
1119.42	-172.168
1120.95	-173.087
1122.48	-178.945
1124.01	-179.954
1125.54	-183.243
1127.07	-188.129
1128.6	-188.559
1130.13	-194.033
1131.65	-199.014
1133.18	-198.247
1134.71	-196.015
1136.24	-198.196
1137.77	-197.76
1139.3	-198.86
1140.83	-198.505
1142.36	-197.706
1143.88	-198.814
1145.41	-198.723
1146.94	-198.307
1148.47	-197.691
1150	-197.997
1151.53	-198.878
1153.06	-198.868
1154.59	-199.536
1156.12	-199.104
1157.64	-198.985
1159.17	-198.186
1160.7	-199.113
1162.23	-198.843
1163.76	-198.779
1165.29	-197.61
1166.82	-197.955
1168.35	-198.823
1169.87	-198.55
1171.4	-197.978
1172.93	-197.148
1174.46	-198.3
1175.99	-199.544
1177.52	-200.709
1179.05	-197.389
1180.58	-196.775
1182.1	-199.686
1183.63	-197.391
1185.16	-196.205
1186.69	-196.859
1188.22	-196.562
1189.75	-196.246
1191.28	-196.922
1192.81	-198.236
1194.33	-197.524
1195.86	-196.032
1197.39	-197.884
1198.92	-195.754
1200.45	-197.152
1201.98	-197.106
1203.51	-199.4
1205.04	-198.147
1206.56	-196.767
1208.09	-199.501
1209.62	-198.537
1211.15	-198.132
1212.68	-197.704
1214.21	-196.529
1215.74	-196.29
1217.27	-197.393
1218.79	-197.593
1220.32	-197.538
1221.85	-197.4
1223.38	-195.484
1224.91	-196.552
1226.44	-195.048
1227.97	-194.15
1229.5	-196.44
1231.03	-195.159
1232.55	-195.489
1234.08	-196.981
1235.61	-195.609
1237.14	-193.3
1238.67	-194.605
1240.2	-194.987
1241.73	-193.922
1243.26	-194.442
1244.78	-196.132
1246.31	-198.263
1247.84	-195.529
1249.37	-195.965
1250.9	-195.587
1252.43	-193.013
1253.96	-195.571
1255.49	-196.837
1257.01	-194.151
1258.54	-195
1260.07	-193.76
1261.6	-197.18
1263.13	-195.912
1264.66	-193.839
1266.19	-193.691
1267.72	-197.567
1269.24	-196.703
1270.77	-195.303
1272.3	-197.286
1273.83	-193.074
1275.36	-194.504
1276.89	-198.049
1278.42	-195.307
1279.95	-195.707
1281.47	-194.956
1283	-195.015
1284.53	-195.054
1286.06	-194.778
1287.59	-194.124
1289.12	-195.214
1290.65	-195.197
1292.18	-196.527
1293.71	-195.14
1295.23	-196.737
1296.76	-195.2
1298.29	-195.939
1299.82	-192.71
1301.35	-196.672
1302.88	-195.785
1304.41	-195.222
1305.94	-193.623
1307.46	-193.765
1308.99	-192
1310.52	-193.359
1312.05	-194.858
1313.58	-194.026
1315.11	-196.543
1316.64	-193.384
1318.17	-191.904
1319.69	-194.2
1321.22	-193.009
1322.75	-192.418
1324.28	-193.565
1325.81	-191.5
1327.34	-194.754
1328.87	-192.6
1330.4	-194.437
1331.92	-193.867
1333.45	-192.278
1334.98	-190.733
1336.51	-190.197
1338.04	-190.312
1339.57	-191.483
1341.1	-193.176
1342.63	-192.427
1344.15	-192.527
1345.68	-191.211
1347.21	-192.775
1348.74	-190.799
1350.27	-188.893
1351.8	-191.797
1353.33	-191.264
1354.86	-191.288
1356.38	-191.265
1357.91	-191.939
1359.44	-190.3
1360.97	-190.873
1362.5	-191.129
1364.03	-191.365
1365.56	-193.761
1367.09	-192.694
1368.62	-190.083
1370.14	-193.986
1371.67	-193.535
1373.2	-194.073
1374.73	-192.749
1376.26	-192.8
1377.79	-194.917
1379.32	-194.485
1380.85	-194.541
1382.37	-192.179
1383.9	-192.556
1385.43	-193.97
1386.96	-191.708
1388.49	-192.889
1390.02	-193.607
1391.55	-193.991
1393.08	-194.471
1394.6	-193.398
1396.13	-193.523
1397.66	-195.874
1399.19	-193.231
1400.72	-192.287
1402.25	-194.574
1403.78	-196.88
1405.31	-195.596
1406.83	-193.898
1408.36	-193.886
1409.89	-192.079
1411.42	-190.537
1412.95	-193.949
1414.48	-192.669
1416.01	-192.221
1417.54	-192.776
1419.06	-193.102
1420.59	-193.691
1422.12	-193.276
1423.65	-192.923
1425.18	-191.71
1426.71	-195.018
1428.24	-190.054
1429.77	-193.038
1431.29	-191.132
1432.82	-190.754
1434.35	-191.977
1435.88	-190.644
1437.41	-190.548
1438.94	-192.191
1440.47	-192.204
1442	-191.549
1443.53	-188.798
1445.05	-190.507
1446.58	-192.839
1448.11	-190.957
1449.64	-188.651
1451.17	-193.784
1452.7	-191.869
1454.23	-190.331
1455.76	-190.28
1457.28	-190.965
1458.81	-190.295
1460.34	-191.625
1461.87	-190.593
1463.4	-191.114
1464.93	-191.747
1466.46	-192.353
1467.99	-189.804
1469.51	-192.626
1471.04	-190.933
1472.57	-192.697
1474.1	-189.486
1475.63	-191.314
1477.16	-190.748
1478.69	-189.4
1480.22	-193.773
1481.74	-191.114
1483.27	-189.839
1484.8	-192.319
1486.33	-190.21
1487.86	-190.898
1489.39	-190.921
1490.92	-192.737
1492.45	-188.967
1493.97	-190.891
1495.5	-189.256
1497.03	-189.558
1498.56	-190.855
1500.09	-187.329
1501.62	-190.181
1503.15	-187.034
1504.68	-190.282
1506.21	-187.153
1507.73	-185.301
1509.26	-189.484
1510.79	-188.252
1512.32	-187.755
1513.85	-187.026
1515.38	-189.472
1516.91	-187.406
1518.44	-187.162
1519.96	-187.335
1521.49	-187.147
1523.02	-185.783
1524.55	-186.987
1526.08	-186.595
1527.61	-185.01
1529.14	-186.275
1530.67	-185.578
1532.19	-187.568
1533.72	-185.81
1535.25	-184.35
1536.78	-184.956
1538.31	-185.151
1539.84	-185.873
1541.37	-187.643
1542.9	-183.869
1544.42	-182.669
1545.95	-184.856
1547.48	-182.254
1549.01	-184.103
1550.54	-184.485
1552.07	-184.928
1553.6	-183.998
1555.13	-183.072
1556.65	-183.974
1558.18	-182.267
1559.71	-183.532
1561.24	-183.134
1562.77	-183.878
1564.3	-183.173
1565.83	-182.157
1567.36	-181.178
1568.88	-181.779
1570.41	-182.911
1571.94	-180.747
1573.47	-182.487
1575	-180.571
1576.53	-182.022
1578.06	-181.744
1579.59	-179.742
1581.12	-180.8
1582.64	-179.832
1584.17	-178.062
1585.7	-177.981
1587.23	-180.575
1588.76	-180.275
1590.29	-179.291
1591.82	-177.497
1593.35	-179.85
1594.87	-180.781
1596.4	-179.62
1597.93	-178.393
1599.46	-178.362
1600.99	-177.675
1602.52	-178.585
1604.05	-178.289
1605.58	-179.461
1607.1	-176.781
1608.63	-177.262
1610.16	-177.064
1611.69	-176.407
1613.22	-175.77
1614.75	-177.856
1616.28	-177.439
1617.81	-176.678
1619.33	-177.4
1620.86	-175.85
1622.39	-175.839
1623.92	-175.31
1625.45	-178.27
1626.98	-175.654
1628.51	-175.693
1630.04	-178.069
1631.56	-176.974
1633.09	-175.53
1634.62	-174.808
1636.15	-176.07
1637.68	-175.8
1639.21	-175.877
1640.74	-174.903
1642.27	-176.36
1643.79	-175.98
1645.32	-176.276
1646.85	-175.783
1648.38	-174.738
1649.91	-175.426
1651.44	-174.813
1652.97	-174.217
1654.5	-174.569
1656.03	-174.956
1657.55	-175.076
1659.08	-174.794
1660.61	-174.853
1662.14	-173.441
1663.67	-174.668
1665.2	-173.352
1666.73	-173.726
1668.26	-174.072
1669.78	-172.551
1671.31	-173.583
1672.84	-171.612
1674.37	-173.072
1675.9	-172.299
1677.43	-172.606
1678.96	-173.421
1680.49	-172.731
1682.01	-171.476
1683.54	-172.004
1685.07	-171.133
1686.6	-170.439
1688.13	-170.086
1689.66	-170.647
1691.19	-170.775
1692.72	-169.717
1694.24	-170.691
1695.77	-169.143
1697.3	-171.205
1698.83	-168.317
1700.36	-167.487
1701.89	-170.053
1703.42	-169.852
1704.95	-167.748
1706.47	-168.541
1708	-169.933
1709.53	-168.823
1711.06	-167.64
1712.59	-167.589
1714.12	-167.695
1715.65	-168.371
1717.18	-167.649
1718.71	-168.55
1720.23	-168.137
1721.76	-168.69
1723.29	-167.518
1724.82	-167.301
1726.35	-167.207
1727.88	-166.887
1729.41	-166.437
1730.94	-166.276
1732.46	-165.007
1733.99	-166.101
1735.52	-167.096
1737.05	-168.088
1738.58	-166.651
1740.11	-165.631
1741.64	-165.238
1743.17	-164.591
1744.69	-165.905
1746.22	-166.014
1747.75	-167.09
1749.28	-165.15
1750.81	-165.411
1752.34	-165.32
1753.87	-164.668
1755.4	-163.997
1756.92	-164.073
1758.45	-163.93
1759.98	-161.571
1761.51	-163.936
1763.04	-163.112
1764.57	-164.652
1766.1	-164.36
1767.63	-164.549
1769.15	-162.097
1770.68	-164.178
1772.21	-164.321
1773.74	-162.162
1775.27	-164.421
1776.8	-164.185
1778.33	-164.22
1779.86	-165.848
1781.38	-166.85
1782.91	-166.187
1784.44	-169.713
1785.97	-166.515
1787.5	-167.833
1789.03	-167.043
1790.56	-167.081
1792.09	-168.542
1793.62	-169.393
1795.14	-167.143
1796.67	-170.172
1798.2	-169.241
1799.73	-170.938
1801.26	-171.353
1802.79	-173.044
1804.32	-176.427
1805.85	-175.729
1807.37	-176.372
1808.9	-174.962
1810.43	-176.14
1811.96	-174.449
1813.49	-175.704
1815.02	-175.11
1816.55	-176.236
1818.08	-174.368
1819.6	-175.4
1821.13	-175.801
1822.66	-176.417
1824.19	-174.836
1825.72	-173.874
1827.25	-176.225
1828.78	-174.517
1830.31	-176.236
1831.83	-175.06
1833.36	-175.312
1834.89	-170.948
1836.42	-174.69
1837.95	-173.584
1839.48	-172.982
1841.01	-171.751
1842.54	-174.435
1844.06	-171.997
1845.59	-175.547
1847.12	-169.858
1848.65	-171.449
1850.18	-169.626
1851.71	-172.153
1853.24	-174.054
1854.77	-172.877
1856.29	-172.94
1857.82	-171.252
1859.35	-171.651
1860.88	-173.779
1862.41	-170.312
1863.94	-171.585
1865.47	-171.367
1867	-169.038
1868.53	-170.917
1870.05	-172.961
1871.58	-168.77
1873.11	-170.229
1874.64	-170.997
1876.17	-171.783
1877.7	-171.603
1879.23	-171.117
1880.76	-170.211
1882.28	-169.375
1883.81	-171.581
1885.34	-170.357
1886.87	-171.112
1888.4	-170.245
1889.93	-170.122
1891.46	-167.884
1892.99	-169.048
1894.51	-170.664
1896.04	-170.923
1897.57	-169.759
1899.1	-170.12
1900.63	-169.811
1902.16	-169.575
1903.69	-167.493
1905.22	-172.15
1906.74	-170.712
1908.27	-170.199
1909.8	-168.259
1911.33	-170.13
1912.86	-168.49
1914.39	-170.655
1915.92	-170.886
1917.45	-168.618
1918.97	-167.094
1920.5	-169.899
1922.03	-168.733
1923.56	-168.364
1925.09	-167.832
1926.62	-168.188
1928.15	-169.311
1929.68	-168.449
1931.21	-167.724
1932.73	-167.692
1934.26	-171.681
1935.79	-169.058
1937.32	-168.73
1938.85	-170.12
1940.38	-170.225
1941.91	-166.987
1943.44	-167.65
1944.96	-165.121
1946.49	-168.762
1948.02	-168.268
1949.55	-167.6
1951.08	-167.927
1952.61	-166.2
1954.14	-167.552
1955.67	-166.277
1957.19	-166.886
1958.72	-165.4
1960.25	-166.194
1961.78	-165.61
1963.31	-166.071
1964.84	-169.368
1966.37	-166.367
1967.9	-166.293
1969.42	-165.091
1970.95	-167.638
1972.48	-163.338
1974.01	-162.461
1975.54	-164.86
1977.07	-164.327
1978.6	-161.982
1980.13	-162.551
1981.65	-162.699
1983.18	-163.673
1984.71	-166.151
1986.24	-164.12
1987.77	-162.266
1989.3	-164.516
1990.83	-164.364
1992.36	-162.533
1993.88	-162.916
1995.41	-164.817
1996.94	-165.738
1998.47	-163.292
2000	-163.995