File: Example Data/Raman/Kara/05-23-2011/Owen CNT_1.txt
300	-172.285
302.111	-174.613
304.222	-173.426
306.333	-175.21
308.444	-173.451
310.555	-170.761
312.666	-172.887
314.777	-173.494
316.888	-174.712
318.999	-173.944
321.11	-174.9
323.221	-174.792
325.332	-174.233
327.443	-174.454
329.554	-175.51
331.665	-175.15
333.776	-173.963
335.887	-173.271
337.998	-174.629
340.109	-174.281
342.22	-174.877
344.332	-175.063
346.443	-174.605
348.554	-173.745
350.665	-175.267
352.776	-174.243
354.887	-172.762
356.998	-173.922
359.109	-175.127
361.22	-175.933
363.331	-174.092
365.442	-174.411
367.553	-173.822
369.664	-175.026
371.775	-171.851
373.886	-175.255
375.997	-173.235
378.108	-174.301
380.219	-173.7
382.33	-174.635
384.441	-173.721
386.552	-173.943
388.663	-172.646
390.774	-173.231
392.885	-173.147
394.996	-170.693
397.107	-172.814
399.218	-173.194
401.329	-170.384
403.44	-172.562
405.551	-172.08
407.662	-172.812
409.773	-173.96
411.884	-172.033
413.995	-173.052
416.106	-172.089
418.217	-171.725
420.328	-171.992
422.439	-172.158
424.55	-172.486
426.661	-173.823
428.772	-173.476
430.883	-172.452
432.995	-171.396
435.106	-172.967
437.217	-172.009
439.328	-171.105
441.439	-172.783
443.55	-174.476
445.661	-172.923
447.772	-172.202
449.883	-172.084
451.994	-173.262
454.105	-172.227
456.216	-172.454
458.327	-172.663
460.438	-172.449
462.549	-170.86
464.66	-172.361
466.771	-173.062
468.882	-170.868
470.993	-173.373
473.104	-171.721
475.215	-171.645
477.326	-170.866
479.437	-174.294
481.548	-171.602
483.659	-172.433
485.77	-171.755
487.881	-171.468
489.992	-172.613
492.103	-171.22
494.214	-173.3
496.325	-171.651
498.436	-171.118
500.547	-172.026
502.658	-172.836
504.769	-171.816
506.88	-170.832
508.991	-170.765
511.102	-171.109
513.213	-170.92
515.324	-169.958
517.435	-172.341
519.547	-171.326
521.658	-171.679
523.769	-171.326
525.88	-172.121
527.991	-170.357
530.102	-172.174
532.213	-171.68
534.324	-170.488
536.435	-170.205
538.546	-172.378
540.657	-171.6
542.768	-170.772
544.879	-170.883
546.99	-173.384
549.101	-172.537
551.212	-171.934
553.323	-170.798
555.434	-172.645
557.545	-169.837
559.656	-170.266
561.767	-170.262
563.878	-170.866
565.989	-170.373
568.1	-170.306
570.211	-169.093
572.322	-168.525
574.433	-169.001
576.544	-170.078
578.655	-170.126
580.766	-170.212
582.877	-169.067
584.988	-168.251
587.099	-168.378
589.21	-170.899
591.321	-169.544
593.432	-169.969
595.543	-168.167
597.654	-169.437
599.765	-167.471
601.876	-168.68
603.987	-168.144
606.099	-169.377
608.21	-169.167
610.321	-167.605
612.432	-169.455
614.543	-168.828
616.654	-166.245
618.765	-168.996
620.876	-167.541
622.987	-168.062
625.098	-168.95
627.209	-169.998
629.32	-168.968
631.431	-168.269
633.542	-168.874
635.653	-168.692
637.764	-169.251
639.875	-168.59
641.986	-168.023
644.097	-168.527
646.208	-167.065
648.319	-169.618
650.43	-168.325
652.541	-167.519
654.652	-166.882
656.763	-170.378
658.874	-168.079
660.985	-168.522
663.096	-166.355
665.207	-168.313
667.318	-166.782
669.429	-167.552
671.54	-168.538
673.651	-166.966
675.762	-165.607
677.873	-168.1
679.984	-167.948
682.095	-167.832
684.206	-167.859
686.317	-169.011
688.428	-167.58
690.539	-167.309
692.651	-168.355
694.762	-168.008
696.873	-167.612
698.984	-167.437
701.095	-168.835
703.206	-165.517
705.317	-167.764
707.428	-167.565
709.539	-166.602
711.65	-166.843
713.761	-166.797
715.872	-167.304
717.983	-166.664
720.094	-165.958
722.205	-167.5
724.316	-166.236
726.427	-166.744
728.538	-167.85
730.649	-165.678
732.76	-165.604
734.871	-165.456
736.982	-165.593
739.093	-165.519
741.204	-166.503
743.315	-165.517
745.426	-165.031
747.537	-163.707
749.648	-164.842
751.759	-165.005
753.87	-164.43
755.981	-164.661
758.092	-165.983
760.203	-164.956
762.314	-163.318
764.425	-165.122
766.536	-163.386
768.647	-162.897
770.758	-165.188
772.869	-163.218
774.98	-164.488
777.091	-163.873
779.203	-163.806
781.314	-165.321
783.425	-162.435
785.536	-163.456
787.647	-163.507
789.758	-163.622
791.869	-162.113
793.98	-162.026
796.091	-163.838
798.202	-161.674
800.313	-161.463
802.424	-162.981
804.535	-162.387
806.646	-162.688
808.757	-160.829
810.868	-160.425
812.979	-160.903
815.09	-161.432
817.201	-162.624
819.312	-161.839
821.423	-160.614
823.534	-161.845
825.645	-162.903
827.756	-160.42
829.867	-160.605
831.978	-161.123
834.089	-160.966
836.2	-160.632
838.311	-159.946
840.422	-157.246
842.533	-160.311
844.644	-160.07
846.755	-157.926
848.866	-160.131
850.977	-159.061
853.088	-158.999
855.199	-159.45
857.31	-158.795
859.421	-159.373
861.532	-158.88
863.643	-158.6
865.754	-158.459
867.865	-157.069
869.977	-158.635
872.088	-157.154
874.199	-157.602
876.31	-157.109
878.421	-157.516
880.532	-157.404
882.643	-156.669
884.754	-158.266
886.865	-158.072
888.976	-156.048
891.087	-156.9
893.198	-157.203
895.309	-155.775
897.42	-156.159
899.531	-156.346
901.642	-155.5
903.753	-155.032
905.864	-155.011
907.975	-157.004
910.086	-154.167
912.197	-153.602
914.308	-153.703
916.419	-153.2
918.53	-153.401
920.641	-153.267
922.752	-152.634
924.863	-151.724
926.974	-153.674
929.085	-151.493
931.196	-154.145
933.307	-153.259
935.418	-153.15
937.529	-152.569
939.64	-152.772
941.751	-150.965
943.862	-151.266
945.973	-151.778
948.084	-150.008
950.195	-149.23
952.306	-148.851
954.417	-149.552
956.529	-148.727
958.64	-147.16
960.751	-149.71
962.862	-148.7
964.973	-147.114
967.084	-147.67
969.195	-147.101
971.306	-147.19
973.417	-145.1
975.528	-144.331
977.639	-147.542
979.75	-143.104
981.861	-143.836
983.972	-144.054
986.083	-142.975
988.194	-141.842
990.305	-141.405
992.416	-140.585
994.527	-140.297
996.638	-139.961
998.749	-138.051
1000.86	-139.22
1002.97	-136.945
1005.08	-137.278
1007.19	-135.754
1009.3	-136.961
1011.42	-133.728
1013.53	-133.2
1015.64	-135.093
1017.75	-133.704
1019.86	-132.101
1021.97	-133.389
1024.08	-129.394
1026.19	-127.86
1028.3	-128.086
1030.41	-126.868
1032.53	-126.336
1034.64	-125.087
1036.75	-124.663
1038.86	-121.46
1040.97	-121.1
1043.08	-119.585
1045.19	-118.231
1047.3	-117.03
1049.41	-116.079
1051.52	-112.443
1053.64	-111.141
1055.75	-108.695
1057.86	-103.712
1059.97	-100.814
1062.08	-98.9047
1064.19	-95.4063
1066.3	-91.6637
1068.41	-89.3966
1070.52	-88.5026
1072.63	-86.1191
1074.75	-82.5033
1076.86	-81.4973
1078.97	-78.0467
1081.08	-75.8216
1083.19	-73.7707
1085.3	-70.637
1087.41	-68.1861
1089.52	-66.8277
1091.63	-65.6413
1093.75	-61.8134
1095.86	-60.8961
1097.97	-59.8784
1100.08	-58.0976
1102.19	-56.4526
1104.3	-54.2335
1106.41	-54.1203
1108.52	-53.1169
1110.63	-53.195
1112.74	-51.9123
1114.86	-50.6793
1116.97	-51.2106
1119.08	-52.061
1121.19	-52.2202
1123.3	-54.2675
1125.41	-54.5828
1127.52	-55.9787
1129.63	-57.0457
1131.74	-60.1481
1133.85	-59.0945
1135.97	-61.9947
1138.08	-58.5303
1140.19	-59.6828
1142.3	-61.8309
1144.41	-60.2275
1146.52	-58.7444
1148.63	-60.7946
1150.74	-58.6781
1152.85	-58.5456
1154.96	-58.1766
1157.08	-59.3334
1159.19	-59.1645
1161.3	-58.9293
1163.41	-58.0964
1165.52	-57.9148
1167.63	-58.4525
1169.74	-58.2948
1171.85	-58.3059
1173.96	-58.7338
1176.08	-57.4705
1178.19	-58.0843
1180.3	-57.2364
1182.41	-58.6069
1184.52	-57.5112
1186.63	-59.3121
1188.74	-59.0946
1190.85	-57.5759
1192.96	-58.5119
1195.07	-56.9222
1197.19	-56.6756
1199.3	-57.9565
1201.41	-56.6173
1203.52	-57.4949
1205.63	-55.0346
1207.74	-58.6928
1209.85	-57.3201
1211.96	-55.7698
1214.07	-58.6209
1216.18	-57.4074
1218.3	-59.2733
1220.41	-57.3597
1222.52	-58.6528
1224.63	-58.4552
1226.74	-59.3003
1228.85	-57.1268
1230.96	-57.9671
1233.07	-58.0593
1235.18	-57.6078
1237.29	-57.5041
1239.41	-58.5387
1241.52	-56.3672
1243.63	-56.2472
1245.74	-56.9159
1247.85	-56.7064
1249.96	-57.412
1252.07	-56.4414
1254.18	-57.9069
1256.29	-55.6448
1258.41	-56.3388
1260.52	-57.0777
1262.63	-56.5307
1264.74	-55.5449
1266.85	-55.5667
1268.96	-56.8987
1271.07	-55.0206
1273.18	-56.3747
1275.29	-56.2868
1277.4	-55.3021
1279.52	-56.1094
1281.63	-57.0069
1283.74	-56.7436
1285.85	-56.0864
1287.96	-55.2773
1290.07	-54.5963
1292.18	-55.0615
1294.29	-53.5319
1296.4	-53.961
1298.51	-54.0203
1300.63	-56.0847
1302.74	-55.2534
1304.85	-54.2129
1306.96	-54.9295
1309.07	-56.6371
1311.18	-54.324
1313.29	-53.3838
1315.4	-54.9532
1317.51	-54.8744
1319.62	-53.9276
1321.74	-55.5848
1323.85	-53.5875
1325.96	-55.3459
1328.07	-53.7237
1330.18	-51.4634
1332.29	-55.5162
1334.4	-54.1818
1336.51	-52.49
1338.62	-54.3083
1340.73	-53.9223
1342.85	-52.0886
1344.96	-51.5007
1347.07	-52.9773
1349.18	-51.8852
1351.29	-51.9109
1353.4	-51.6242
1355.51	-50.6409
1357.62	-50.362
1359.73	-50.5327
1361.85	-51.0368
1363.96	-50.5716
1366.07	-51.5421
1368.18	-52.1429
1370.29	-52.3832
1372.4	-52.1509
1374.51	-52.7281
1376.62	-52.8814
1378.73	-52.187
1380.84	-51.9881
1382.96	-52.0959
1385.07	-54.5309
1387.18	-52.7679
1389.29	-54.0779
1391.4	-52.3148
1393.51	-52.6186
1395.62	-53.0893
1397.73	-52.2152
1399.84	-53.2121
1401.95	-52.7494
1404.07	-51.6249
1406.18	-51.8461
1408.29	-52.1414
1410.4	-53.0167
1412.51	-52.0324
1414.62	-50.7377
1416.73	-53.2604
1418.84	-52.8086
1420.95	-51.1101
1423.06	-51.5263
1425.18	-52.8353
1427.29	-53.2035
1429.4	-51.8466
1431.51	-51.9939
1433.62	-52.0646
1435.73	-50.5682
1437.84	-50.2219
1439.95	-49.4411
1442.06	-49.7776
1444.18	-48.8461
1446.29	-51.1085
1448.4	-50.0401
1450.51	-50.2682
1452.62	-49.3265
1454.73	-50.4393
1456.84	-50.0074
1458.95	-50.0891
1461.06	-48.868
1463.17	-49.7133
1465.29	-48.9932
1467.4	-47.3129
1469.51	-49.7743
1471.62	-48.0761
1473.73	-49.6727
1475.84	-48.9712
1477.95	-46.8419
1480.06	-49.44
1482.17	-47.6685
1484.28	-48.1555
1486.4	-46.3663
1488.51	-49.5668
1490.62	-47.5388
1492.73	-47.7448
1494.84	-46.2085
1496.95	-47.1812
1499.06	-49.1439
1501.17	-47.5423
1503.28	-47.231
1505.39	-46.7865
1507.51	-45.8075
1509.62	-47.4072
1511.73	-47.621
1513.84	-47.1144
1515.95	-46.6716
1518.06	-46.4551
1520.17	-45.6587
1522.28	-45.9312
1524.39	-45.3664
1526.51	-45.0268
1528.62	-45.2631
1530.73	-44.567
1532.84	-45.5827
1534.95	-45.7578
1537.06	-45.0755
1539.17	-44.0142
1541.28	-44.3352
1543.39	-44.4511
1545.5	-42.6933
1547.62	-44.2767
1549.73	-42.0087
1551.84	-43.0743
1553.95	-42.7397
1556.06	-42.2893
1558.17	-42.9405
1560.28	-42.9099
1562.39	-43.1579
1564.5	-41.541
1566.61	-41.0354
1568.73	-40.5123
1570.84	-42.1375
1572.95	-41.2515
1575.06	-40.0263
1577.17	-41.6039
1579.28	-41.8005
1581.39	-40.5644
1583.5	-40.5825
1585.61	-39.8153
1587.72	-39.9718
1589.84	-39.7415
1591.95	-40.0018
1594.06	-39.4105
1596.17	-40.0267
1598.28	-38.8652
1600.39	-38.2345
1602.5	-39.2576
1604.61	-38.0942
1606.72	-38.0125
1608.83	-38.7045
1610.95	-37.9529
1613.06	-36.2759
1615.17	-36.7242
1617.28	-36.0262
1619.39	-36.1375
1621.5	-35.6792
1623.61	-33.5119
1625.72	-35.0158
1627.83	-34.7224
1629.95	-34.5981
1632.06	-34.4614
1634.17	-34.5687
1636.28	-33.9772
1638.39	-35.2375
1640.5	-33.6778
1642.61	-34.0627
1644.72	-32.341
1646.83	-33.5025
1648.94	-33.0646
1651.06	-32.343
1653.17	-30.9307
1655.28	-31.1583
1657.39	-31.1434
1659.5	-28.124
1661.61	-29.3151
1663.72	-29.5524
1665.83	-29.255
1667.94	-27.49
1670.05	-28.5774
1672.17	-27.223
1674.28	-26.3498
1676.39	-24.9439
1678.5	-26.6105
1680.61	-26.2548
1682.72	-24.9848
1684.83	-24.0505
1686.94	-22.5359
1689.05	-22.1641
1691.16	-21.3614
1693.28	-20.5801
1695.39	-19.4884
1697.5	-18.3102
1699.61	-17.5233
1701.72	-17.96
1703.83	-15.6385
1705.94	-14.1075
1708.05	-13.4107
1710.16	-11.8774
1712.28	-10.3408
1714.39	-10.4447
1716.5	-8.44002
1718.61	-9.67925
1720.72	-5.5524
1722.83	-4.90569
1724.94	-3.99148
1727.05	-2.25401
1729.16	-1.87863
1731.27	0.598335
1733.39	1.9926
1735.5	5.60428
1737.61	9.16852
1739.72	11.5524
1741.83	16.8101
1743.94	17.0602
1746.05	20.664
1748.16	23.1671
1750.27	27.9363
1752.38	28.0573
1754.5	31.4201
1756.61	34.647
1758.72	37.7716
1760.83	41.6297
1762.94	43.0706
1765.05	46.101
1767.16	48.3937
1769.27	49.6467
1771.38	52.2965
1773.49	53.9923
1775.61	55.0117
1777.72	57.3001
1779.83	58.2973
1781.94	59.46
1784.05	60.6385
1786.16	61.7094
1788.27	62.2777
1790.38	62.2892
1792.49	62.5832
1794.61	62.5463
1796.72	63.0044
1798.83	64.3446
1800.94	62.4369
1803.05	59.2034
1805.16	58.2183
1807.27	53.5145
1809.38	56.1214
1811.49	57.287
1813.6	55.2625
1815.72	56.4727
1817.83	55.2309
1819.94	57.0398
1822.05	55.1061
1824.16	54.0042
1826.27	56.4089
1828.38	55.9407
1830.49	55.3109
1832.6	55.4766
1834.71	55.6682
1836.83	55.8986
1838.94	54.8648
1841.05	55.9752
1843.16	56.4294
1845.27	55.1344
1847.38	55.1653
1849.49	54.8426
1851.6	54.8512
1853.71	54.5068
1855.82	55.5437
1857.94	56.1129
1860.05	56.3255
1862.16	54.2494
1864.27	54.5535
1866.38	56.3311
1868.49	55.6157
1870.6	58.682
1872.71	57.5142
1874.82	57.9283
1876.94	57.1703
1879.05	55.6667
1881.16	55.8435
1883.27	55.5815
1885.38	57.2266
1887.49	54.6488
1889.6	57.4667
1891.71	56.8703
1893.82	56.3423
1895.93	55.9705
1898.05	56.2403
1900.16	57.0204
1902.27	57.0874
1904.38	55.8336
1906.49	57.2597
1908.6	57.1506
1910.71	58.4448
1912.82	58.3347
1914.93	57.5207
1917.04	56.8708
1919.16	57.6296
1921.27	58.4096
1923.38	57.0675
1925.49	56.4965
1927.6	58.7503
1929.71	56.173
1931.82	58.3597
1933.93	57.9297
1936.04	57.7427
1938.15	58.7448
1940.27	58.2234
1942.38	57.3085
1944.49	58.6807
1946.6	58.7013
1948.71	59.6078
1950.82	59.0539
1952.93	57.463
1955.04	59.8254
1957.15	57.9654
1959.27	58.369
1961.38	59.9692
1963.49	58.825
1965.6	59.1432
1967.71	59.0677
1969.82	59.0261
1971.93	59.8265
1974.04	58.6278
1976.15	58.3347
1978.26	59.2729
1980.38	60.6652
1982.49	60.15
1984.6	58.58
1986.71	59.9937
1988.82	59.7547
1990.93	60.5762
1993.04	60.9129
1995.15	59.553
1997.26	58.2989
1999.37	59.7789
2001.49	58.1706
2003.6	60.0306
2005.71	59.755
2007.82	60.0827
2009.93	60.1007
2012.04	60.7397
2014.15	60.9751
2016.26	61.0312
2018.37	61.2923
2020.48	61.1391
2022.6	61.2928
2024.71	60.8007
2026.82	61.3698
2028.93	60.5855
2031.04	60.909
2033.15	61.4998
2035.26	63.1902
2037.37	60.845
2039.48	59.5974
2041.59	60.4435
2043.71	62.0979
2045.82	60.9237
2047.93	62.5345
2050.04	61.4984
2052.15	62.7746
2054.26	60.9821
2056.37	62.3593
2058.48	62.9428
2060.59	60.9711
2062.71	61.4118
2064.82	62.1907
2066.93	61.6319
2069.04	61.9239
2071.15	61.94
2073.26	61.453
2075.37	62.7473
2077.48	61.9884
2079.59	62.7049
2081.7	62.3367
2083.82	64.282
2085.93	62.4037
2088.04	60.4225
2090.15	64.022
2092.26	64.0197
2094.37	63.7313
2096.48	64.014
2098.59	64.0688
2100.7	66.1715
2102.81	62.4619
2104.93	64.2638
2107.04	63.9586
2109.15	64.2101
2111.26	65.3394
2113.37	64.5514
2115.48	66.0267
2117.59	64.1879
2119.7	64.2157
2121.81	64.9438
2123.92	64.308
2126.04	67.2872
2128.15	64.5218
2130.26	66.024
2132.37	66.4275
2134.48	66.8987
2136.59	67.0448
2138.7	67.1537
2140.81	66.6108
2142.92	66.7632
2145.04	67.0491
2147.15	66.4855
2149.26	66.1237
2151.37	66.7448
2153.48	68.1768
2155.59	68.3448
2157.7	68.7381
2159.81	68.3989
2161.92	68.1946
2164.03	69.206
2166.15	68.4088
2168.26	67.7868
2170.37	68.0838
2172.48	70.1259
2174.59	68.6919
2176.7	67.9833
2178.81	68.7828
2180.92	70.1923
2183.03	67.8415
2185.14	69.3448
2187.26	69.9601
2189.37	68.8339
2191.48	68.9122
2193.59	70.6012
2195.7	70.5298
2197.81	68.978
2199.92	71.2543
2202.03	71.965
2204.14	71.1222
2206.25	71.6692
2208.37	70.5142
2210.48	70.4647
2212.59	71.272
2214.7	72.4215
2216.81	72.7123
2218.92	72.9116
2221.03	71.4367
2223.14	71.5583
2225.25	72.2351
2227.36	72.5793
2229.48	72.1798
2231.59	73.6154
2233.7	73.5896
2235.81	73.1521
2237.92	73.8268
2240.03	74.0163
2242.14	74.6936
2244.25	74.4174
2246.36	74.3869
2248.48	75.9216
2250.59	74.9513
2252.7	74.4234
2254.81	76.8172
2256.92	76.0213
2259.03	76.5954
2261.14	76.9294
2263.25	76.3185
2265.36	77.5156
2267.47	77.8917
2269.59	79.5415
2271.7	78.7005
2273.81	78.4554
2275.92	81.2039
2278.03	79.6025
2280.14	80.2126
2282.25	81.7974
2284.36	81.9053
2286.47	83.2217
2288.58	83.4052
2290.7	82.8771
2292.81	84.3262
2294.92	84.3705
2297.03	85.6917
2299.14	86.3206
2301.25	85.5433
2303.36	85.885
2305.47	88.2924
2307.58	88.7935
2309.7	89.5322
2311.81	89.2839
2313.92	88.8633
2316.03	92.3254
2318.14	92.9785
2320.25	91.8965
2322.36	94.1405
2324.47	95.0164
2326.58	97.4713
2328.69	98.0281
2330.81	98.605
2332.92	101.045
2335.03	101.473
2337.14	103.557
2339.25	103.558
2341.36	105.361
2343.47	107.463
2345.58	107.325
2347.69	110.511
2349.8	112.569
2351.92	113.627
2354.03	116.566
2356.14	118.973
2358.25	120.245
2360.36	123.134
2362.47	124.019
2364.58	127.817
2366.69	130.131
2368.8	131.722
2370.91	134.676
2373.03	138.345
2375.14	140.554
2377.25	145.262
2379.36	148.379
2381.47	150.659
2383.58	156.558
2385.69	158.485
2387.8	164.679
2389.91	167.925
2392.02	173.019
2394.14	179.328
2396.25	181.818
2398.36	188.55
2400.47	193.338
2402.58	200.249
2404.69	205.818
2406.8	212.166
2408.91	219.064
2411.02	227.755
2413.14	233.741
2415.25	241.953
2417.36	252.261
2419.47	259.501