File: Example Data/Raman/Kara/05-23-2011/Owen CNT_2.txt
300	-148.863
301.529	-150.8
303.058	-153.116
304.586	-152.961
306.115	-152.026
307.644	-151.503
309.173	-152.664
310.701	-151.321
312.23	-150.012
313.759	-148.288
315.288	-151.409
316.817	-149.999
318.345	-150.495
319.874	-150.829
321.403	-150.846
322.932	-149.661
324.46	-149.864
325.989	-150.811
327.518	-151.197
329.047	-149.919
330.576	-150.671
332.104	-148.077
333.633	-150.226
335.162	-152.064
336.691	-153.738
338.219	-150.266
339.748	-149.949
341.277	-150.038
342.806	-151.156
344.335	-152.537
345.863	-148.562
347.392	-149.252
348.921	-150.194
350.45	-150.814
351.978	-150.399
353.507	-148.857
355.036	-148.438
356.565	-149.934
358.094	-149.571
359.622	-149.443
361.151	-150.332
362.68	-149.796
364.209	-150.847
365.737	-150.573
367.266	-148.317
368.795	-149.569
370.324	-151.834
371.853	-148.881
373.381	-152.055
374.91	-148.348
376.439	-149.435
377.968	-152.4
379.496	-151.273
381.025	-151.516
382.554	-150.983
384.083	-150.852
385.612	-150.893
387.14	-153.928
388.669	-150.736
390.198	-149.929
391.727	-150.285
393.255	-150.062
394.784	-151.434
396.313	-152.672
397.842	-150.326
399.371	-150.647
400.899	-150.518
402.428	-148.802
403.957	-149.157
405.486	-147.185
407.014	-147.672
408.543	-147.159
410.072	-148.044
411.601	-149.468
413.129	-148.778
414.658	-146.823
416.187	-150.2
417.716	-148.376
419.245	-149
420.773	-150.05
422.302	-148.036
423.831	-149.44
425.36	-148.501
426.888	-148.721
428.417	-149.118
429.946	-149.929
431.475	-148.694
433.004	-149.457
434.532	-148.2
436.061	-149.117
437.59	-147.544
439.119	-147.584
440.647	-151.951
442.176	-151.556
443.705	-148.365
445.234	-148.174
446.763	-148.523
448.291	-149.2
449.82	-149
451.349	-148.03
452.878	-149.688
454.406	-149.882
455.935	-150.165
457.464	-148.203
458.993	-146.551
460.522	-146.331
462.05	-149.576
463.579	-149.197
465.108	-147.062
466.637	-148.621
468.165	-147.883
469.694	-149.746
471.223	-148.499
472.752	-149.389
474.281	-149.401
475.809	-148.407
477.338	-150.646
478.867	-148.085
480.396	-148.995
481.924	-144.332
483.453	-147.144
484.982	-148.961
486.511	-148.303
488.04	-149.26
489.568	-148.953
491.097	-146.873
492.626	-150.148
494.155	-149.31
495.683	-148.035
497.212	-145.124
498.741	-148.162
500.27	-149.823
501.799	-146.456
503.327	-148.682
504.856	-147.934
506.385	-149.4
507.914	-147.305
509.442	-147.605
510.971	-145.421
512.5	-148.887
514.029	-146.063
515.558	-146.379
517.086	-149.336
518.615	-147.259
520.144	-146.779
521.673	-146.681
523.201	-146.548
524.73	-146.175
526.259	-145.837
527.788	-146.796
529.317	-144.981
530.845	-148.093
532.374	-144.771
533.903	-145.448
535.432	-147.632
536.96	-148.373
538.489	-147.129
540.018	-143.964
541.547	-146.123
543.076	-149.158
544.604	-144.592
546.133	-147.654
547.662	-145.794
549.191	-147.651
550.719	-146.358
552.248	-147.796
553.777	-146.932
555.306	-145.183
556.835	-146.533
558.363	-144.807
559.892	-146.868
561.421	-147.552
562.95	-148.05
564.478	-146.171
566.007	-147.085
567.536	-145.985
569.065	-141.883
570.594	-143.828
572.122	-146.619
573.651	-145.524
575.18	-147.61
576.709	-143.693
578.237	-145.374
579.766	-145.644
581.295	-145.341
582.824	-145.927
584.353	-145.607
585.881	-147.778
587.41	-146.749
588.939	-145.035
590.468	-144.837
591.996	-145.071
593.525	-145.054
595.054	-146.109
596.583	-150.513
598.112	-144.164
599.64	-144.837
601.169	-144.136
602.698	-146.743
604.227	-145.386
605.755	-145.561
607.284	-146.255
608.813	-147.342
610.342	-144.449
611.87	-146.096
613.399	-146.862
614.928	-145.2
616.457	-143.605
617.986	-146.852
619.514	-146
621.043	-144.615
622.572	-146.181
624.101	-147.308
625.63	-147.575
627.158	-146.859
628.687	-146.402
630.216	-145.694
631.745	-146.227
633.273	-148.545
634.802	-144.895
636.331	-143.949
637.86	-144.801
639.388	-145.276
640.917	-147.572
642.446	-145.111
643.975	-143.629
645.504	-144.845
647.032	-146.073
648.561	-144.834
650.09	-145.377
651.619	-144.792
653.147	-146.972
654.676	-147.723
656.205	-146.853
657.734	-145.803
659.263	-144.09
660.791	-141.871
662.32	-144.862
663.849	-141.821
665.378	-144.447
666.906	-144.723
668.435	-145.6
669.964	-145.122
671.493	-143.169
673.022	-141.444
674.55	-143.235
676.079	-145.763
677.608	-145.486
679.137	-142.144
680.665	-143.23
682.194	-144.47
683.723	-143.391
685.252	-141.006
686.781	-140.387
688.309	-142.346
689.838	-144.235
691.367	-143.229
692.896	-142.884
694.424	-140.805
695.953	-142.491
697.482	-143.67
699.011	-143.702
700.54	-142.268
702.068	-140.696
703.597	-141.531
705.126	-139.724
706.655	-141.56
708.183	-142.196
709.712	-141.365
711.241	-142.177
712.77	-140.691
714.299	-140.977
715.827	-140.581
717.356	-139.913
718.885	-140.281
720.414	-141.905
721.942	-139.769
723.471	-137.256
725	-139.982
726.529	-140.265
728.058	-138.992
729.586	-140.072
731.115	-139.291
732.644	-138.581
734.173	-138.79
735.701	-137.611
737.23	-137.138
738.759	-137.343
740.288	-139.181
741.817	-138
743.345	-139.893
744.874	-137.356
746.403	-138.414
747.932	-138.977
749.46	-138.376
750.989	-137.666
752.518	-138.4
754.047	-140.207
755.576	-137.971
757.104	-138.479
758.633	-136.5
760.162	-137.222
761.691	-137.546
763.219	-138.936
764.748	-138.869
766.277	-139.276
767.806	-137.366
769.335	-136.194
770.863	-138.872
772.392	-137.232
773.921	-136.727
775.45	-136.654
776.978	-136.462
778.507	-138.358
780.036	-135.491
781.565	-138.923
783.094	-137.532
784.622	-136.286
786.151	-134.649
787.68	-135.817
789.209	-136.505
790.737	-138.67
792.266	-136.379
793.795	-136.29
795.324	-135.601
796.853	-136.03
798.381	-139.366
799.91	-135.895
801.439	-137.281
802.968	-134.61
804.496	-137.976
806.025	-136.507
807.554	-136.884
809.083	-135.731
810.612	-135.917
812.14	-133.286
813.669	-137.586
815.198	-134.881
816.727	-134.662
818.255	-134.652
819.784	-134.997
821.313	-133.067
822.842	-132.989
824.37	-134.092
825.899	-133.905
827.428	-136.065
828.957	-134.481
830.486	-133.461
832.014	-137.003
833.543	-135.115
835.072	-135.736
836.601	-134.862
838.13	-135.426
839.658	-134.889
841.187	-133.847
842.716	-136.74
844.245	-134.528
845.773	-134.68
847.302	-133.404
848.831	-134.173
850.36	-133.9
851.888	-135.45
853.417	-133.206
854.946	-133.589
856.475	-133.333
858.004	-133.429
859.532	-136.11
861.061	-133.755
862.59	-133.095
864.119	-131.489
865.647	-132.13
867.176	-132.093
868.705	-133.878
870.234	-131.693
871.763	-132.204
873.291	-135.198
874.82	-132.443
876.349	-134.01
877.878	-132.45
879.406	-132.009
880.935	-131.1
882.464	-131.884
883.993	-130.257
885.522	-132.66
887.05	-131.527
888.579	-133.257
890.108	-130.284
891.637	-131.893
893.165	-132.262
894.694	-132.29
896.223	-132.218
897.752	-131.328
899.281	-130.427
900.809	-130.904
902.338	-133.039
903.867	-132.218
905.396	-129.563
906.924	-130.482
908.453	-131.8
909.982	-129.103
911.511	-131.787
913.04	-127.591
914.568	-132.782
916.097	-129
917.626	-131.815
919.155	-129.521
920.683	-127.913
922.212	-131.293
923.741	-129.713
925.27	-129.851
926.799	-129
928.327	-127.986
929.856	-128.73
931.385	-127.6
932.914	-127.581
934.442	-128.186
935.971	-129.908
937.5	-129.3
939.029	-127.72
940.558	-127.948
942.086	-126.952
943.615	-127.922
945.144	-129.243
946.673	-125.108
948.201	-126.444
949.73	-126.448
951.259	-127.859
952.788	-126.666
954.317	-124.548
955.845	-124.57
957.374	-125.834
958.903	-127.608
960.432	-124.784
961.96	-125.774
963.489	-124.883
965.018	-122.926
966.547	-125.066
968.076	-121.377
969.604	-124.661
971.133	-125.574
972.662	-123.202
974.191	-123.309
975.719	-122.021
977.248	-124.505
978.777	-123.319
980.306	-121.608
981.835	-120.681
983.363	-118.567
984.892	-121.406
986.421	-119.857
987.95	-121.545
989.478	-122.689
991.007	-122.785
992.536	-120.04
994.065	-118.488
995.594	-121.575
997.122	-120.32
998.651	-119.639
1000.18	-118.123
1001.71	-118.14
1003.24	-115.553
1004.77	-115.6
1006.29	-117.077
1007.82	-114.854
1009.35	-112.247
1010.88	-114.764
1012.41	-114.591
1013.94	-114.59
1015.47	-110.556
1017	-112.6
1018.53	-111.661
1020.05	-111.417
1021.58	-110.216
1023.11	-110.325
1024.64	-111.38
1026.17	-109.14
1027.7	-109.046
1029.23	-110.138
1030.76	-108.633
1032.28	-107.775
1033.81	-104.616
1035.34	-105.378
1036.87	-103.052
1038.4	-101.171
1039.93	-102.024
1041.46	-100.694
1042.99	-102.269
1044.51	-97.8318
1046.04	-100.044
1047.57	-98.2459
1049.1	-96.7834
1050.63	-94.9059
1052.16	-96.3568
1053.69	-93.0776
1055.22	-91.2369
1056.74	-89.8577
1058.27	-86.3744
1059.8	-86.4472
1061.33	-84.5444
1062.86	-80.8781
1064.39	-81.2327
1065.92	-77.8076
1067.45	-76.6521
1068.97	-75.1699
1070.5	-72.7558
1072.03	-70.6102
1073.56	-71.655
1075.09	-69.3136
1076.62	-66.5941
1078.15	-66.0538
1079.68	-64.723
1081.21	-62.5107
1082.73	-60.3786
1084.26	-59.6282
1085.79	-59.3903
1087.32	-56.6817
1088.85	-54.7459
1090.38	-54.0243
1091.91	-54.521
1093.44	-51.1478
1094.96	-52.8373
1096.49	-49.814
1098.02	-49.5234
1099.55	-48.8832
1101.08	-48.4157
1102.61	-47.0349
1104.14	-44.733
1105.67	-43.4472
1107.19	-43.7205
1108.72	-44.5681
1110.25	-42.9977
1111.78	-43.0166
1113.31	-42.0162
1114.84	-42.4786
1116.37	-42.5199
1117.9	-42.4674
1119.42	-42.1881
1120.95	-43.4241
1122.48	-43.912
1124.01	-43.6555
1125.54	-43.6267
1127.07	-46.3549
1128.6	-43.5523
1130.13	-48.9349
1131.65	-49.8622
1133.18	-49.1985
1134.71	-49.2857
1136.24	-44.7319
1137.77	-46.2497
1139.3	-48.0698
1140.83	-49.5577
1142.36	-46.6291
1143.88	-47.1935
1145.41	-46.6781
1146.94	-47.6178
1148.47	-48.6508
1150	-48.4617
1151.53	-47.0015
1153.06	-47.5036
1154.59	-48.3874
1156.12	-47.7976
1157.64	-48.1233
1159.17	-47.9376
1160.7	-49.0646
1162.23	-48.3191
1163.76	-48.7026
1165.29	-46.9153
1166.82	-44.3711
1168.35	-50.4779
1169.87	-48.5232
1171.4	-47.3898
1172.93	-45.9878
1174.46	-49.8897
1175.99	-46.3477
1177.52	-50.6263
1179.05	-48.5109
1180.58	-47.6493
1182.1	-47.5212
1183.63	-44.7422
1185.16	-49.2938
1186.69	-48.0907
1188.22	-49.2263
1189.75	-48.3692
1191.28	-47.8016
1192.81	-46.3122
1194.33	-46.7233
1195.86	-46.5225
1197.39	-48.6011
1198.92	-49.3298
1200.45	-44.8964
1201.98	-47.2394
1203.51	-46.923
1205.04	-45.6579
1206.56	-45.6922
1208.09	-45.4431
1209.62	-47.7755
1211.15	-47.9936
1212.68	-46.6057
1214.21	-46.0663
1215.74	-46.404
1217.27	-48.5568
1218.79	-44.4026
1220.32	-47.2535
1221.85	-45.9264
1223.38	-47.0358
1224.91	-48.1717
1226.44	-45.4939
1227.97	-48.3898
1229.5	-47.8567
1231.03	-45.842
1232.55	-47.0556
1234.08	-46.0019
1235.61	-44.0286
1237.14	-45.5221
1238.67	-45.905
1240.2	-46.2255
1241.73	-44.8326
1243.26	-46.5388
1244.78	-46.5233
1246.31	-44.1972
1247.84	-45.4407
1249.37	-45.8291
1250.9	-44.1233
1252.43	-44.1871
1253.96	-44.8461
1255.49	-45.9603
1257.01	-42.9195
1258.54	-45.8055
1260.07	-44.3561
1261.6	-45.3594
1263.13	-46.1578
1264.66	-46.0486
1266.19	-47.306
1267.72	-45.7415
1269.24	-44.5106
1270.77	-44.8179
1272.3	-45.0343
1273.83	-45.8204
1275.36	-46.2799
1276.89	-44.5056
1278.42	-46.3381
1279.95	-43.9604
1281.47	-43.6139
1283	-43.8969
1284.53	-44.5774
1286.06	-45.7583
1287.59	-45.4855
1289.12	-43.8113
1290.65	-42.9233
1292.18	-43.2506
1293.71	-46.4341
1295.23	-44.1833
1296.76	-43.7875
1298.29	-44.5395
1299.82	-41.0254
1301.35	-45.1221
1302.88	-43.3598
1304.41	-39.8551
1305.94	-42.1442
1307.46	-40.6964
1308.99	-40.1497
1310.52	-40.6659
1312.05	-42.6961
1313.58	-41.8721
1315.11	-41.2417
1316.64	-39.8498
1318.17	-44.8548
1319.69	-39.5303
1321.22	-41.7099
1322.75	-40.7496
1324.28	-43.3093
1325.81	-40.0988
1327.34	-39.7696
1328.87	-39.0823
1330.4	-39.1139
1331.92	-40.0572
1333.45	-40.9724
1334.98	-39.9009
1336.51	-37.5294
1338.04	-36.6355
1339.57	-37.813
1341.1	-40.3821
1342.63	-35.5821
1344.15	-36.1699
1345.68	-37.3999
1347.21	-36.673
1348.74	-35.9218
1350.27	-36.438
1351.8	-37.9541
1353.33	-37.1609
1354.86	-38.8335
1356.38	-39.049
1357.91	-40.608
1359.44	-39.8728
1360.97	-38.6391
1362.5	-37.735
1364.03	-41.9032
1365.56	-40.9856
1367.09	-38.4878
1368.62	-40.1195
1370.14	-37.9329
1371.67	-39.4137
1373.2	-39.3022
1374.73	-39.4338
1376.26	-39.5435
1377.79	-38.9943
1379.32	-38.9691
1380.85	-38.425
1382.37	-38.5971
1383.9	-39.704
1385.43	-38.2155
1386.96	-42.1605
1388.49	-40.3233
1390.02	-38.5952
1391.55	-39.2538
1393.08	-40.3662
1394.6	-39.7747
1396.13	-38.3233
1397.66	-37.1012
1399.19	-39.4963
1400.72	-41.932
1402.25	-38.5251
1403.78	-37.5035
1405.31	-40.2735
1406.83	-39.0913
1408.36	-41.05
1409.89	-37.7325
1411.42	-38.3917
1412.95	-39.8686
1414.48	-41.8668
1416.01	-38.5413
1417.54	-36.1604
1419.06	-39.7722
1420.59	-38.2873
1422.12	-37.5095
1423.65	-38.3213
1425.18	-38.9477
1426.71	-37.7839
1428.24	-37.5262
1429.77	-37.152
1431.29	-38.0982
1432.82	-36.9584
1434.35	-39.4422
1435.88	-36.1842
1437.41	-37.4879
1438.94	-37.3658
1440.47	-37.0238
1442	-37.3815
1443.53	-35.4508
1445.05	-36.5822
1446.58	-36.6395
1448.11	-35.7942
1449.64	-39.3143
1451.17	-36.7327
1452.7	-39.6252
1454.23	-35.6285
1455.76	-37.123
1457.28	-36.3968
1458.81	-36.8904
1460.34	-38.0786
1461.87	-37.5485
1463.4	-37.3787
1464.93	-36.968
1466.46	-34.1555
1467.99	-36.7233
1469.51	-36.0484
1471.04	-33.9518
1472.57	-36.8976
1474.1	-37.1013
1475.63	-37.3516
1477.16	-37.7284
1478.69	-36.2998
1480.22	-35.5776
1481.74	-37.9976
1483.27	-37.3168
1484.8	-36.5316
1486.33	-37.0068
1487.86	-34.3046
1489.39	-38.8024
1490.92	-36.1585
1492.45	-34.5621
1493.97	-38.1315
1495.5	-35.3149
1497.03	-35.312
1498.56	-35.4323
1500.09	-34.2877
1501.62	-35.6549
1503.15	-36.1785
1504.68	-33.9482
1506.21	-33.9096
1507.73	-36.9664
1509.26	-35.2742
1510.79	-35.4938
1512.32	-32.5169
1513.85	-33.0256
1515.38	-32.1937
1516.91	-32.5095
1518.44	-32.7261
1519.96	-29.8338
1521.49	-31.2436
1523.02	-33.3559
1524.55	-32.0874
1526.08	-31.289
1527.61	-31.0741
1529.14	-30.6778
1530.67	-29.8312
1532.19	-31.0427
1533.72	-30.0864
1535.25	-32.6936
1536.78	-29.7777
1538.31	-30.3544
1539.84	-29.5335
1541.37	-32.6043
1542.9	-29.7004
1544.42	-30.8451
1545.95	-28.6415
1547.48	-28.9204
1549.01	-30.7893
1550.54	-27.3508
1552.07	-27.6959
1553.6	-29.5032
1555.13	-26.5515
1556.65	-26.5492
1558.18	-27.7071
1559.71	-28.1432
1561.24	-24.7935
1562.77	-26.952
1564.3	-27.1845
1565.83	-25.8622
1567.36	-26.3506
1568.88	-23.7835
1570.41	-25.0636
1571.94	-23.4643
1573.47	-23.6566
1575	-23.9493
1576.53	-22.7163
1578.06	-21.5433
1579.59	-22.6264
1581.12	-21.8398
1582.64	-20.7191
1584.17	-23.0634
1585.7	-21.123
1587.23	-21.9745
1588.76	-18.4381
1590.29	-20.4006
1591.82	-19.7629
1593.35	-20.8651
1594.87	-19.8564
1596.4	-19.1298
1597.93	-19.4621
1599.46	-19.0948
1600.99	-21.4463
1602.52	-20.2634
1604.05	-21.2018
1605.58	-18.7488
1607.1	-18.4669
1608.63	-20.3921
1610.16	-18.2627
1611.69	-16.6957
1613.22	-18.4701
1614.75	-16.1641
1616.28	-14.9096
1617.81	-17.4016
1619.33	-18.6834
1620.86	-17.2904
1622.39	-17.2901
1623.92	-18.0585
1625.45	-15.7441
1626.98	-17.1644
1628.51	-15.5345
1630.04	-18.0269
1631.56	-17.2808
1633.09	-16.8064
1634.62	-17.8055
1636.15	-17.8301
1637.68	-17.4657
1639.21	-17.1471
1640.74	-16.831
1642.27	-15.8334
1643.79	-16.1615
1645.32	-15.7434
1646.85	-14.9021
1648.38	-12.4766
1649.91	-14.4664
1651.44	-15.9684
1652.97	-13.3315
1654.5	-12.9801
1656.03	-13.9229
1657.55	-14.6423
1659.08	-12.3737
1660.61	-11.215
1662.14	-12.2484
1663.67	-12.8038
1665.2	-13.2399
1666.73	-11.5977
1668.26	-11.2405
1669.78	-9.94854
1671.31	-13.0205
1672.84	-11.1041
1674.37	-11.6673
1675.9	-11.1646
1677.43	-11.149
1678.96	-9.17409
1680.49	-11.0584
1682.01	-11.8276
1683.54	-9.06979
1685.07	-8.73479
1686.6	-7.93418
1688.13	-10.4512
1689.66	-7.59998
1691.19	-8.08573
1692.72	-6.30816
1694.24	-6.59924
1695.77	-6.59924
1697.3	-6.19659
1698.83	-6.33423
1700.36	-5.52615
1701.89	-6.39703
1703.42	-5.26369
1704.95	-4.20112
1706.47	-4.22037
1708	-6.30211
1709.53	-5.35363
1711.06	-4.57755
1712.59	-3.4981
1714.12	-5.73183
1715.65	-3.61699
1717.18	-3.97625
1718.71	-2.05885
1720.23	-1.19336
1721.76	-3.24818
1723.29	-0.953866
1724.82	-0.297954
1726.35	-2.02761
1727.88	-2.4581
1729.41	0.0972766
1730.94	1.99364
1732.46	0.716571
1733.99	1.42722
1735.52	-8.50525e-05
1737.05	3.03089
1738.58	1.30362
1740.11	1.5595
1741.64	2.85695
1743.17	1.49071
1744.69	1.18371
1746.22	0.952159
1747.75	2.45284
1749.28	4.20387
1750.81	4.62718
1752.34	5.17971
1753.87	5.54941
1755.4	4.89282
1756.92	7.28586
1758.45	4.15102
1759.98	4.83504
1761.51	4.4502
1763.04	3.68683
1764.57	2.79905
1766.1	3.76524
1767.63	4.91533
1769.15	6.41834
1770.68	5.28408
1772.21	5.24788
1773.74	6.06622
1775.27	5.7376
1776.8	7.77703
1778.33	4.08789
1779.86	4.93465
1781.38	4.63013
1782.91	5.29557
1784.44	2.1261
1785.97	5.052
1787.5	3.55321
1789.03	4.43637
1790.56	3.93746
1792.09	2.55192
1793.62	4.52564
1795.14	0.663693
1796.67	1.72392
1798.2	3.81391
1799.73	3.04414
1801.26	0.954407
1802.79	-0.707305
1804.32	0.385066
1805.85	0.130561
1807.37	-3.26447
1808.9	-0.068634
1810.43	-0.532562
1811.96	-0.988586
1813.49	0.537567
1815.02	-2.33612
1816.55	-2.05644
1818.08	-0.130295
1819.6	-3.3452
1821.13	0.792618
1822.66	-0.913727
1824.19	1.39497
1825.72	0.227829
1827.25	-1.60503
1828.78	-0.272781
1830.31	0.0358582
1831.83	-1.06496
1833.36	-0.707382
1834.89	1.46577
1836.42	-0.55455
1837.95	0.0507507
1839.48	-1.14159
1841.01	-2.07133
1842.54	-0.126541
1844.06	-0.0856171
1845.59	-0.813187
1847.12	-0.536087
1848.65	2.26714
1850.18	-1.20502
1851.71	-1.62996
1853.24	-1.14832
1854.77	0.979919
1856.29	0.314362
1857.82	-3.18575
1859.35	-1.45581
1860.88	-0.0864716
1862.41	-1.80858
1863.94	-0.584518
1865.47	1.79498
1867	1.20914
1868.53	-2.19328
1870.05	-0.289352
1871.58	1.08003
1873.11	0.603943
1874.64	1.65657
1876.17	2.32033
1877.7	3.62775
1879.23	0.281174
1880.76	1.9649
1882.28	1.11443
1883.81	-0.00131226
1885.34	3.11722
1886.87	2.60141
1888.4	-0.265961
1889.93	3.66446
1891.46	4.07343
1892.99	1.14734
1894.51	2.91533
1896.04	4.17929
1897.57	2.10843
1899.1	3.33475
1900.63	4.43523
1902.16	2.7215
1903.69	4.40047
1905.22	3.44518
1906.74	3.95894
1908.27	4.31732
1909.8	5.02016
1911.33	5.63655
1912.86	4.03897
1914.39	7.77422
1915.92	4.08771
1917.45	6.62631
1918.97	4.05396
1920.5	2.38925
1922.03	5.38382
1923.56	5.41565
1925.09	5.69792
1926.62	6.60745
1928.15	4.82135
1929.68	3.2916
1931.21	5.48849
1932.73	5.07076
1934.26	5.39497
1935.79	5.98959
1937.32	4.86995
1938.85	4.66576
1940.38	4.97025
1941.91	6.76796
1943.44	5.13809
1944.96	6.53667
1946.49	5.26431
1948.02	5.79498
1949.55	4.38431
1951.08	6.94768
1952.61	9.1927
1954.14	6.36592
1955.67	5.99368
1957.19	8.68063
1958.72	4.89388
1960.25	6.55623
1961.78	7.49838
1963.31	7.82768
1964.84	9.01855
1966.37	9.96733
1967.9	8.23848
1969.42	7.66772
1970.95	11.7689
1972.48	8.29257
1974.01	7.27043
1975.54	9.16086
1977.07	9.5162
1978.6	10.5695
1980.13	10.5479
1981.65	11.2195
1983.18	10.221
1984.71	11.3193
1986.24	9.27458
1987.77	11.4169
1989.3	11.3111
1990.83	9.54973
1992.36	10.1507
1993.88	12.9821
1995.41	12.392
1996.94	12.1638
1998.47	13.6776
2000	11.9223