File: Example Data/Raman/Kara/05-23-2011/Si wafer - n dopeAs_1.txt
200	95.3025
202.127	87.9025
204.254	90.5644
206.381	96.6324
208.508	94.6606
210.636	93.7582
212.763	97.2162
214.89	99.0389
217.017	102.074
219.144	106.068
221.271	123.292
223.398	127.884
225.525	132.402
227.653	132.032
229.78	131.577
231.907	133.392
234.034	137.402
236.161	134.306
238.288	133.833
240.415	134.335
242.542	141.087
244.67	138.161
246.797	137.184
248.924	142.892
251.051	135.478
253.178	140.038
255.305	140.903
257.432	146.928
259.559	142.684
261.686	145.636
263.814	140.474
265.941	148.221
268.068	146.565
270.195	146.57
272.322	145.169
274.449	154.266
276.576	156.926
278.703	156.291
280.831	161.888
282.958	164.138
285.085	174.235
287.212	181.747
289.339	176.661
291.466	186.485
293.593	194.26
295.72	206.029
297.848	231.798
299.975	238.418
302.102	219.976
304.229	205.417
306.356	198.167
308.483	180.785
310.61	166.391
312.737	166.286
314.865	159.865
316.992	151.135
319.119	149.985
321.246	148.032
323.373	136.846
325.5	136
327.627	136.216
329.754	137.339
331.882	132.265
334.009	135.138
336.136	130.625
338.263	125.005
340.39	124.833
342.517	123.006
344.644	124.511
346.771	112.284
348.898	118.262
351.026	114.072
353.153	112.8
355.28	110.308
357.407	109.142
359.534	107.226
361.661	107.409
363.788	108.438
365.915	102.448
368.043	105.306
370.17	104.136
372.297	98.8096
374.424	99.0813
376.551	93.3255
378.678	100.112
380.805	98.8682
382.932	95.5094
385.06	94.8815
387.187	91.8166
389.314	91.1015
391.441	91.0654
393.568	87.4765
395.695	87.1941
397.822	92.0438
399.949	91.4264
402.076	89.2307
404.204	86.6972
406.331	88.7625
408.458	89.6443
410.585	86.7661
412.712	89.4266
414.839	87.5739
416.966	85.7888
419.093	87.4375
421.221	93.7356
423.348	93.1606
425.475	91.8332
427.602	93.7859
429.729	94.3965
431.856	93.9467
433.983	93.1687
436.11	91.5466
438.238	78.58
440.365	77.3428
442.492	70.4577
444.619	71.3796
446.746	68.3827
448.873	65.8276
451	57.5137
453.127	56.6839
455.254	50.1877
457.382	49.2725
459.509	52.6832
461.636	51.528
463.763	60.5439
465.89	58.6434
468.017	64.5601
470.144	68.5558
472.271	70.6539
474.399	75.9801
476.526	75.9912
478.653	76.9377
480.78	84.6917
482.907	88.221
485.034	97.9401
487.161	99.3375
489.288	111.53
491.416	115.94
493.543	128.85
495.67	142.689
497.797	162.899
499.924	184.497
502.051	215.854
504.178	281.748
506.305	358.343
508.433	497.063
510.56	765.999
512.687	1430.85
514.814	3456.23
516.941	10986.4
519.068	15150
521.195	5649.93
523.322	1872.29
525.449	930.37
527.577	561.162
529.704	396.514
531.831	304.517
533.958	232.822
536.085	191.306
538.212	169.709
540.339	138.566
542.466	125.715
544.594	108.079
546.721	107.053
548.848	87.7098
550.975	80.8072
553.102	76.3694
555.229	71.0196
557.356	63.8361
559.483	64.9023
561.611	58.7024
563.738	57.7297
565.865	54.4948
567.992	51.0015
570.119	45.8926
572.246	46.1812
574.373	39.6451
576.5	44.4334
578.628	42.3874
580.755	44.1276
582.882	44.2954
585.009	39.5256
587.136	45.2595
589.263	42.4997
591.39	43.4349
593.517	45.5761
595.644	45.6598
597.772	45.4687
599.899	45.484
602.026	48.2113
604.153	48.46
606.28	54.1732
608.407	59.2687
610.534	62.2871
612.661	69.1946
614.789	69.4802
616.916	66.0956
619.043	68.5036
621.17	68.3608
623.297	66.0455
625.424	63.2339
627.551	60.9872
629.678	57.7381
631.806	58.142
633.933	56.6816
636.06	61.2629
638.187	59.2013
640.314	58.0906
642.441	54.8587
644.568	60.8267
646.695	58.5515
648.823	59.7456
650.95	64.256
653.077	62.5808
655.204	63.5347
657.331	68.8963
659.458	72.2681
661.585	65.0308
663.712	68.3718
665.839	69.259
667.967	69.7326
670.094	70.3408
672.221	70.0121
674.348	66.1922
676.475	63.1753
678.602	68.103
680.729	65.3574
682.856	60.3883
684.984	63.6426
687.111	58.0019
689.238	55.7407
691.365	48.7757
693.492	54.6908
695.619	53.1802
697.746	47.211
699.873	54.09
702	50.8172
704.128	45.6621
706.255	49.2644
708.382	51.8025
710.509	50.8595
712.636	49.8579
714.763	48.4069
716.89	50.8501
719.017	51.0155
721.145	52.5605
723.272	51.119
725.399	49.4282
727.526	49.9727
729.653	54.7231
731.78	55.0986
733.907	51.5237
736.034	50.821
738.162	56.4377
740.289	50.9665
742.416	56.8134
744.543	56.3472
746.67	53.87
748.797	54.3977
750.924	57.0782
753.051	61.3828
755.179	62.1502
757.306	59.0169
759.433	63.9923
761.56	64.2511
763.687	63.0436
765.814	65.5131
767.941	65.7727
770.068	62.7455
772.195	63.4585
774.323	70.6397
776.45	65.8218
778.577	69.4397
780.704	67.6863
782.831	67.2398
784.958	73.6893
787.085	70.5271
789.212	72.0436
791.34	76.6852
793.467	76.3946
795.594	78.0629
797.721	79.295
799.848	74.9
801.975	77.873
804.102	83.073
806.229	80.5653
808.357	83.8952
810.484	89.4823
812.611	86.6433
814.738	90.3683
816.865	92.7596
818.992	89.7295
821.119	88.1539
823.246	92.9222
825.374	90.2371
827.501	98.9495
829.628	92.2424
831.755	88.0212
833.882	84.5542
836.009	83.3016
838.136	84.7064
840.263	85.8804
842.391	84.9869
844.518	90.8274
846.645	87.1894
848.772	88.2513
850.899	85.6492
853.026	85.2386
855.153	85.9917
857.28	87.8121
859.407	86.3154
861.535	81.8493
863.662	86.8294
865.789	83.8735
867.916	84.6013
870.043	79.7891
872.17	82.4648
874.297	79.3387
876.424	78.1611
878.552	76.5519
880.679	79.7788
882.806	74.8509
884.933	76.9541
887.06	71.991
889.187	76.0358
891.314	75.1684
893.441	73.3424
895.568	71.8031
897.696	69.7077
899.823	67.7263
901.95	71.586
904.077	72.2676
906.204	71.1607
908.331	74.0568
910.458	72.8854
912.585	70.2149
914.713	67.6423
916.84	73.0317
918.967	76.5433
921.094	85.8166
923.221	91.1217
925.348	108.475
927.475	139.886
929.602	168.952
931.73	202.272
933.857	240.855
935.984	281.764
938.111	325.158
940.238	332.012
942.365	321.281
944.492	316.654
946.619	308.066
948.747	316.186
950.874	318.326
953.001	312.527
955.128	315.363
957.255	315.54
959.382	318.054
961.509	315.848
963.636	320.323
965.763	319.153
967.891	323.238
970.018	330.273
972.145	330.173
974.272	328.432
976.399	332.144
978.526	335.856
980.653	322.504
982.78	316.458
984.908	301.25
987.035	267.2
989.162	229.083
991.289	201.08
993.416	177.891
995.543	161.454
997.67	147.717
999.797	138.052
1001.92	130.578
1004.05	125.274
1006.18	117.81
1008.31	117.187
1010.43	108.434
1012.56	104.977
1014.69	100.54
1016.81	99.4642
1018.94	93.8781
1021.07	89.6993
1023.2	88.2014
1025.32	82.7338
1027.45	81.3977
1029.58	77.5933
1031.7	71.5888
1033.83	69.6823
1035.96	65.1735
1038.09	61.2392
1040.21	55.3758
1042.34	51.5491
1044.47	54.0549
1046.59	50.6262
1048.72	49.741
1050.85	51.924
1052.98	45.9345
1055.1	49.1185
1057.23	46.0086
1059.36	45.9813
1061.48	45.818
1063.61	42.1295
1065.74	45.4515
1067.87	43.724
1069.99	40.4516
1072.12	40.7215
1074.25	40.8042
1076.37	39.8118
1078.5	40.2813
1080.63	40.4914
1082.76	40.4619
1084.88	38.452
1087.01	38.3399
1089.14	37.9363
1091.26	37.9504
1093.39	38.7375
1095.52	37.5203
1097.65	37.0277
1099.77	39.295
1101.9	37.7769
1104.03	35.6016
1106.15	36.156
1108.28	33.1626
1110.41	30.4226
1112.53	34.1984
1114.66	35.9426
1116.79	35.5847
1118.92	34.4672
1121.04	33.4954
1123.17	34.3924
1125.3	34.2244
1127.42	32.1469
1129.55	34.8193
1131.68	32.3961
1133.81	31.9772
1135.93	34.1811
1138.06	30.6393
1140.19	31.3507
1142.31	29.8971
1144.44	28.6167
1146.57	29.7606
1148.7	30.7153
1150.82	30.8619
1152.95	29.6831
1155.08	27.1775
1157.2	29.8531
1159.33	24.8786
1161.46	27.9422
1163.59	27.373
1165.71	25.4827
1167.84	26.6191
1169.97	26.5134
1172.09	29.372
1174.22	25.9324
1176.35	27.1619
1178.48	28.4206
1180.6	26.1432
1182.73	26.3322
1184.86	28.4767
1186.98	26.9743
1189.11	28.9457
1191.24	30.2269
1193.37	26.9811
1195.49	23.112
1197.62	27.0021
1199.75	27.5726
1201.87	26.4757
1204	25.5781
1206.13	25.2216
1208.26	25.6022
1210.38	26.3782
1212.51	25.878
1214.64	26.8471
1216.76	26.2396
1218.89	28.0038
1221.02	27.4296
1223.15	25.2596
1225.27	24.907
1227.4	28.8423
1229.53	28.162
1231.65	27.3669
1233.78	26.8374
1235.91	26.999
1238.03	27.9454
1240.16	28.6722
1242.29	26.2978
1244.42	27.0333
1246.54	25.1226
1248.67	28.0939
1250.8	25.8619
1252.92	26.7236
1255.05	27.691
1257.18	27.0931
1259.31	28.2323
1261.43	26.8717
1263.56	25.967
1265.69	27.7642
1267.81	25.7532
1269.94	26.1586
1272.07	23.552
1274.2	27.2851
1276.32	25.4166
1278.45	27.4226
1280.58	26.86
1282.7	28.6397
1284.83	24.8263
1286.96	25.8168
1289.09	25.8279
1291.21	25.2793
1293.34	28.0466
1295.47	26.445
1297.59	27.3586
1299.72	24.8183
1301.85	27.1619
1303.98	28.6563
1306.1	26.7824
1308.23	28.4155
1310.36	26.1044
1312.48	25.4564
1314.61	26.4682
1316.74	27.1493
1318.87	27.5978
1320.99	28.8662
1323.12	27.5478
1325.25	27.3953
1327.37	29.6023
1329.5	27.4801
1331.63	25.7409
1333.76	25.2882
1335.88	26.6692
1338.01	24.6289
1340.14	28.5831
1342.26	25.7214
1344.39	25.538
1346.52	27.3554
1348.65	27.6736
1350.77	28.739
1352.9	27.6721
1355.03	28.9854
1357.15	29.1528
1359.28	26.1038
1361.41	31.355
1363.54	28.2287
1365.66	30.4576
1367.79	28.5695
1369.92	28.4697
1372.04	28.1759
1374.17	27.3012
1376.3	29.4139
1378.42	28.3261
1380.55	26.1274
1382.68	26.7213
1384.81	28.3775
1386.93	25.4025
1389.06	26.5327
1391.19	25.2372
1393.31	26.3283
1395.44	27.0671
1397.57	28.0354
1399.7	25.2072
1401.82	25.5869
1403.95	26.4752
1406.08	27.4933
1408.2	26.1558
1410.33	29.2682
1412.46	28.7544
1414.59	26.3789
1416.71	28.0437
1418.84	28.7342
1420.97	28.8806
1423.09	29.3406
1425.22	27.6132
1427.35	29.8873
1429.48	31.7343
1431.6	26.7966
1433.73	26.6203
1435.86	30.716
1437.98	27.4045
1440.11	26.906
1442.24	28.023
1444.37	31.3666
1446.49	26.5669
1448.62	26.7349
1450.75	28.0444
1452.87	28.5687
1455	27.9739
1457.13	27.7901
1459.26	28.2917
1461.38	30.2975
1463.51	30.0044
1465.64	27.798
1467.76	27.9275
1469.89	28.6027
1472.02	26.2908
1474.15	28.3477
1476.27	28.0662
1478.4	25.8596
1480.53	27.3983
1482.65	26.9857
1484.78	25.4035
1486.91	27.5674
1489.04	25.8385
1491.16	25.3833
1493.29	26.8972
1495.42	29.2841
1497.54	25.9855
1499.67	27.4484
1501.8	27.5938
1503.93	25.1462
1506.05	29.0496
1508.18	27.1266
1510.31	27.9074
1512.43	26.9533
1514.56	26.7734
1516.69	25.2554
1518.81	25.066
1520.94	23.7397
1523.07	25.6849
1525.2	24.1067
1527.32	26.6461
1529.45	25.1796
1531.58	25.5861
1533.7	26.0467
1535.83	26.0431
1537.96	25.2047
1540.09	27.7619
1542.21	27.9588
1544.34	27.5002
1546.47	27.2913
1548.59	28.835
1550.72	35.0101
1552.85	48.1426
1554.98	55.5466
1557.1	31.2526
1559.23	28.469
1561.36	26.0182
1563.48	27.042
1565.61	27.5627
1567.74	27.1429
1569.87	28.2653
1571.99	27.8831
1574.12	29.2662
1576.25	29.3566
1578.37	28.3632
1580.5	27.9368
1582.63	29.7836
1584.76	29.0768
1586.88	29.2095
1589.01	28.9193
1591.14	28.0217
1593.26	31.4557
1595.39	27.7072
1597.52	26.8006
1599.65	32.1583
1601.77	29.4946
1603.9	27.4265
1606.03	28.892
1608.15	29.0222
1610.28	29.9656
1612.41	31.7094
1614.54	30.8164
1616.66	32.0153
1618.79	31.0951
1620.92	31.376
1623.04	31.0182
1625.17	31.7102
1627.3	33.5925
1629.43	31.9207
1631.55	31.0138
1633.68	32.5734
1635.81	33.8766
1637.93	32.9047
1640.06	33.4502
1642.19	34.5848
1644.32	36.5578
1646.44	33.3908
1648.57	36.3686
1650.7	36.3762
1652.82	33.7607
1654.95	37.6156
1657.08	38.7233
1659.2	39.5711
1661.33	42.3083
1663.46	41.9391
1665.59	41.9493
1667.71	42.0004
1669.84	43.3382
1671.97	44.3479
1674.09	45.5119
1676.22	45.107
1678.35	46.4177
1680.48	47.0882
1682.6	48.4853
1684.73	48.6322
1686.86	47.7659
1688.98	49.26
1691.11	50.7997
1693.24	50.0273
1695.37	50.8368
1697.49	51.9207
1699.62	51.3731
1701.75	52.5643
1703.87	52.1563
1706	54.4021
1708.13	51.9334
1710.26	52.8389
1712.38	54.0674
1714.51	54.1525
1716.64	54.1921
1718.76	52.31
1720.89	52.694
1723.02	50.5482
1725.15	51.2855
1727.27	51.0851
1729.4	49.7704
1731.53	49.5832
1733.65	53.8258
1735.78	52.4112
1737.91	50.7609
1740.04	50.3284
1742.16	53.0374
1744.29	51.2065
1746.42	51.8771
1748.54	51.9877
1750.67	50.8584
1752.8	49.7156
1754.93	49.8332
1757.05	51.256
1759.18	50.9779
1761.31	50.1793
1763.43	52.4465
1765.56	51.7869
1767.69	53.2319
1769.82	52.9099
1771.94	52.0462
1774.07	53.7885
1776.2	53.179
1778.32	51.6156
1780.45	52.115
1782.58	51.5895
1784.7	49.9313
1786.83	53.0831
1788.96	51.4811
1791.09	50.359
1793.21	52.9996
1795.34	52.4439
1797.47	50.7222
1799.59	51.8035
1801.72	50.6639
1803.85	52.9873
1805.98	53.9379
1808.1	52.7815
1810.23	52.3983
1812.36	53.1848
1814.48	53.5066
1816.61	53.5707
1818.74	54.884
1820.87	51.6443
1822.99	51.0035
1825.12	53.8858
1827.25	50.5684
1829.37	55.0193
1831.5	54.0928
1833.63	53.0878
1835.76	54.8434
1837.88	55.026
1840.01	53.6757
1842.14	52.7637
1844.26	52.3943
1846.39	53.295
1848.52	55.8889
1850.65	53.4409
1852.77	55.0367
1854.9	53.3524
1857.03	55.0195
1859.15	53.5414
1861.28	54.8039
1863.41	55.7225
1865.54	54.312
1867.66	54.8079
1869.79	51.4296
1871.92	53.441
1874.04	52.4685
1876.17	51.7123
1878.3	54.5592
1880.43	52.9804
1882.55	54.0968
1884.68	50.9019
1886.81	53.313
1888.93	55.0339
1891.06	55.1488
1893.19	55.2762
1895.32	52.6989
1897.44	55.5573
1899.57	54.6106
1901.7	54.973
1903.82	55.9054
1905.95	55.5843
1908.08	55.2464
1910.21	52.1366
1912.33	54.3795
1914.46	55.1223
1916.59	53.5213
1918.71	53.3322
1920.84	54.3951
1922.97	56.0366
1925.09	55.0497
1927.22	55.2943
1929.35	57.1374
1931.48	53.6432
1933.6	56.6421
1935.73	54.4909
1937.86	53.3174
1939.98	54.0504
1942.11	55.6866
1944.24	56.8574
1946.37	55.1971
1948.49	54.8577
1950.62	53.2995
1952.75	55.277
1954.87	54.7383
1957	55.3367
1959.13	54.3736
1961.26	54.5879
1963.38	55.7035
1965.51	56.0201
1967.64	55.5145
1969.76	53.9288
1971.89	56.0909
1974.02	55.3383
1976.15	56.5001
1978.27	56.3163
1980.4	56.683
1982.53	55.1833
1984.65	53.6472
1986.78	55.3035
1988.91	53.9544
1991.04	54.9592
1993.16	55.1779
1995.29	55.7063
1997.42	56.8715
1999.54	55.1338
2001.67	55.5508
2003.8	57.7099
2005.93	52.4987
2008.05	56.893
2010.18	56.2092
2012.31	56.6406
2014.43	59.6515
2016.56	57.1212
2018.69	58.1079
2020.82	56.927
2022.94	55.3703
2025.07	55.5215
2027.2	56.4101
2029.32	53.9469
2031.45	56.2504
2033.58	58.7884
2035.71	58.179
2037.83	56.1651
2039.96	56.4874
2042.09	56.6213
2044.21	56.2938
2046.34	55.4295
2048.47	56.0419
2050.59	56.8042
2052.72	56.9899
2054.85	57.3109
2056.98	56.9616
2059.1	57.4438
2061.23	55.5624
2063.36	57.3093
2065.48	55.4629
2067.61	56.4889
2069.74	59.0835
2071.87	58.0857
2073.99	58.3745
2076.12	59.0836
2078.25	57.5652
2080.37	56.0948
2082.5	57.3803
2084.63	57.0678
2086.76	57.4272
2088.88	59.3415
2091.01	60.6703
2093.14	59.3563
2095.26	58.368
2097.39	59.406
2099.52	56.375
2101.65	58.9103
2103.77	57.6712
2105.9	56.7716
2108.03	58.2491
2110.15	57.2132
2112.28	59.1408
2114.41	55.5093
2116.54	58.99
2118.66	56.6751
2120.79	56.4347
2122.92	58.8118
2125.04	59.8667
2127.17	58.0979
2129.3	57.988
2131.43	59.7186
2133.55	58.8214
2135.68	58.5695
2137.81	56.0865
2139.93	56.5661
2142.06	58.2016
2144.19	57.5062
2146.32	58.6523
2148.44	58.6756
2150.57	61.8978
2152.7	58.5657
2154.82	59.1309
2156.95	60.3198
2159.08	59.9905
2161.21	58.2168
2163.33	59.0185
2165.46	60.8765
2167.59	61.7536
2169.71	60.0759
2171.84	60.3554
2173.97	61.0825
2176.1	62.0193
2178.22	60.4575
2180.35	62.5115
2182.48	61.2239
2184.6	61.3808
2186.73	60.4948
2188.86	59.1513
2190.99	61.0341
2193.11	59.912
2195.24	61.7971
2197.37	59.6533
2199.49	61.5477
2201.62	61.6044
2203.75	61.803
2205.875	61.6277
2208	60.1362
2210.13	62.2651
2212.26	61.2702
2214.38	63.2481
2216.51	62.7472
2218.64	62.2415
2220.76	62.3391
2222.89	61.6523
2225.02	64.2481
2227.15	64.1309
2229.27	65.3035
2231.4	63.667
2233.53	64.9354
2235.65	65.9534
2237.78	66.465
2239.91	65.1442
2242.04	65.7373
2244.16	67.3621
2246.29	65.1968
2248.42	67.1394
2250.54	63.8262
2252.67	69.369
2254.8	67.4044
2256.93	67.8933
2259.05	71.0663
2261.18	69.2311
2263.31	70.1806
2265.43	70.5133
2267.56	72.8903
2269.69	72.4208
2271.82	70.8459
2273.94	70.7887
2276.07	73.4022
2278.2	73.3455
2280.32	72.4068
2282.45	76.3928
2284.58	75.6912
2286.71	78.435
2288.83	78.631
2290.96	80.8843
2293.09	78.0995
2295.21	81.7785
2297.34	83.5768
2299.47	85.6555
2301.6	84.2097
2303.72	85.4076
2305.85	87.9521
2307.98	88.0192
2310.1	89.2471
2312.23	88.7616
2314.36	90.8108
2316.49	92.7895
2318.61	92.7614
2320.74	95.0089
2322.87	101.117
2324.99	121.038
2327.12	177.087
2329.25	156.783
2331.375	94.5415
2333.5	93.0807
2335.63	94.564
2337.76	91.5554
2339.88	94.8156
2342.01	93.7237
2344.14	92.5098
2346.26	92.8944
2348.39	89.7567
2350.52	93.5601
2352.65	89.3181
2354.77	91.9031
2356.9	91.9775
2359.03	91.059
2361.15	91.7524
2363.28	89.605
2365.41	91.1012
2367.54	90.5023
2369.66	90.8673
2371.79	93.8233
2373.92	91.709
2376.04	89.8861
2378.17	92.5014
2380.3	91.8462
2382.43	91.095
2384.55	90.42
2386.68	94.7893
2388.81	93.9327
2390.93	94.0041
2393.06	91.8632
2395.19	93.0573
2397.32	93.4932
2399.44	91.506
2401.57	93.2884
2403.7	91.523
2405.82	92.0506
2407.95	94.3019
2410.08	95.1451
2412.21	94.1779
2414.33	90.0445
2416.46	90.6156
2418.59	93.901
2420.71	91.8701
2422.84	91.8061
2424.97	91.388
2427.1	93.6588
2429.22	91.5529
2431.35	91.9513
2433.48	91.7898
2435.6	93.9139
2437.73	94.7689
2439.86	91.3221
2441.99	93.5818
2444.11	91.1394
2446.24	91.8668
2448.37	91.2299
2450.49	92.4221
2452.62	94.4496
2454.75	93.495
2456.88	93.6432
2459	96.0988
2461.13	93.849
2463.26	91.0185
2465.38	93.8303
2467.51	95.3822
2469.64	93.6462
2471.76	93.8212
2473.89	94.7369
2476.02	94.5956
2478.15	93.6223
2480.27	94.4809
2482.4	93.5459
2484.53	95.0752
2486.65	94.5173
2488.78	94.1257
2490.91	93.7148
2493.04	94.0828
2495.16	94.982
2497.29	94.0188
2499.42	93.1618
2501.54	92.9818
2503.67	91.946
2505.8	92.8361
2507.93	93.2851
2510.05	93.6308
2512.18	93.1631
2514.31	92.5709
2516.43	95.2459
2518.56	91.3961
2520.69	94.5167
2522.82	93.2174
2524.94	95.804
2527.07	92.2548
2529.2	93.9045
2531.32	92.5088
2533.45	94.2467
2535.58	94.393
2537.71	95.0895
2539.83	96.3025
2541.96	94.987
2544.09	93.9197
2546.21	96.0434
2548.34	96.2113
2550.47	94.4345
2552.6	94.9816
2554.72	91.8907
2556.85	96.2577
2558.98	93.4646
2561.1	95.4837
2563.23	95.5037
2565.36	97.9482
2567.49	94.3973
2569.61	94.6212
2571.74	98.454
2573.87	96.5252
2575.99	95.7337
2578.12	95.9697
2580.25	94.3985
2582.38	96.6237
2584.5	96.5293
2586.63	95.3701
2588.76	93.8268
2590.88	94.7817
2593.01	95.0825
2595.14	95.1753
2597.27	94.223
2599.39	95.1144
2601.52	97.1582
2603.65	96.3756
2605.77	95.0061
2607.9	96.3079
2610.03	94.7262
2612.16	93.5
2614.28	95.1757
2616.41	94.4525
2618.54	96.4683
2620.66	94.8003
2622.79	98.1173
2624.92	96.6971
2627.04	97.1088
2629.17	96.7132
2631.3	99.5624
2633.43	97.6705
2635.55	96.3214
2637.68	96.5043
2639.81	96.5544
2641.93	97.8293
2644.06	96.1976
2646.19	97.2142
2648.32	97.8258
2650.44	97.6299
2652.57	97.2075
2654.7	96.8793
2656.82	97.5208
2658.95	97.3576
2661.08	97.4948
2663.21	96.8838
2665.33	96.6068
2667.46	101.243
2669.59	97.5596
2671.71	99.0018
2673.84	98.8423
2675.97	98.735
2678.1	99.1351
2680.22	99.8097
2682.35	98.7236
2684.48	99.8038
2686.6	100.307
2688.73	99.9132
2690.86	99.2304
2692.99	100.651
2695.11	97.8712
2697.24	101.022
2699.37	101.151
2701.49	100.991
2703.62	100.895
2705.75	101.83
2707.88	100.774
2710	101.838
2712.13	102.988
2714.26	102.46
2716.38	101.789
2718.51	103.424
2720.64	102.558
2722.77	102.468
2724.89	102.022
2727.02	102.053
2729.15	101.834
2731.27	101.398
2733.4	102.683
2735.53	101.808
2737.66	101.711
2739.78	102.795
2741.91	102.841
2744.04	101.204
2746.16	100.224
2748.29	104.454
2750.42	102.107
2752.54	102.567
2754.67	103.832
2756.8	103.204
2758.93	102.821
2761.05	103.665
2763.18	103.411
2765.31	106.789
2767.43	104.888
2769.56	106.031
2771.69	104.465
2773.82	104.576
2775.94	105.777
2778.07	104.424
2780.2	104.399
2782.32	104.275
2784.45	105.383
2786.58	107.128
2788.71	106.095
2790.83	105.008
2792.96	106.051
2795.09	105.521
2797.21	106.782
2799.34	105.794
2801.47	104.714
2803.6	106.736
2805.72	105.09
2807.85	105.39
2809.98	107.25
2812.1	107.835
2814.23	104.937
2816.36	107.759
2818.49	107.826
2820.61	106.102
2822.74	109.455
2824.87	106.765
2826.99	105.884
2829.12	109.021
2831.25	108.935
2833.38	109.299
2835.5	108.05
2837.63	107.226
2839.76	109.004
2841.88	107.995
2844.01	109.617
2846.14	109.929
2848.27	109.658
2850.39	110.217
2852.52	110.749
2854.65	110.972
2856.77	112.116
2858.9	109.632
2861.03	112.499
2863.16	111.331
2865.28	110.239
2867.41	111.688
2869.54	110.189
2871.66	112.023
2873.79	112.418
2875.92	112.075
2878.05	111.681
2880.17	112.02
2882.3	110.172
2884.43	110.675
2886.55	113.791
2888.68	111.183
2890.81	112.015
2892.93	112.264
2895.06	112.569
2897.19	108.318
2899.32	113.141
2901.44	112.594
2903.57	111.318
2905.7	111.846
2907.82	112.033
2909.95	110.956
2912.08	111.702
2914.21	115.013
2916.33	113.336
2918.46	112.656
2920.59	112.013
2922.71	110.617
2924.84	112.808
2926.97	112.924
2929.1	113.181
2931.22	109.181
2933.35	113.186
2935.48	112.807
2937.6	112.415
2939.73	111.556
2941.86	113.255
2943.99	112.005
2946.11	113.581
2948.24	115.048
2950.37	113.873
2952.49	111.445
2954.62	116.352
2956.75	111.661
2958.88	111.571
2961	111.88
2963.13	113.707
2965.26	114.766
2967.38	114.207
2969.51	113.934
2971.64	112.118
2973.77	114.499
2975.89	113.445
2978.02	114.731
2980.15	117.131
2982.27	115.101
2984.4	116.968
2986.53	116.677
2988.66	114.048
2990.78	115.875
2992.91	114.167
2995.04	113.784
2997.16	117.029
2999.29	116.818
3000	113.245