File: Example Data/Raman/Kara/05-23-2011/Si wafer - n dopeAs_2.txt
200	213.199
202.689	211.247
205.378	207.852
208.068	210.274
210.757	211.888
213.446	214.165
216.135	219.421
218.825	228.717
221.514	239.354
224.203	248.165
226.892	260.331
229.582	274.087
232.271	274.699
234.96	279.103
237.649	284.307
240.339	281.755
243.028	271.769
245.717	282.929
248.406	287.127
251.096	281.585
253.785	284.447
256.474	288.947
259.163	287.573
261.853	293.224
264.542	300.998
267.231	299.368
269.92	299.142
272.61	300.033
275.299	302.069
277.988	306.731
280.677	315.514
283.367	323.817
286.056	333.959
288.745	343.515
291.434	352.576
294.124	362.026
296.813	375.454
299.502	398.596
302.191	403.661
304.88	397.377
307.57	384.677
310.259	358.481
312.948	335.521
315.637	328.56
318.327	313.54
321.016	299.874
323.705	296.104
326.394	288.549
329.084	276.491
331.773	267.65
334.462	263.859
337.151	254.25
339.841	250.633
342.53	250.803
345.219	246.622
347.908	242.643
350.598	237.619
353.287	230.557
355.976	224.844
358.665	222.253
361.355	223.891
364.044	216.962
366.733	209.698
369.422	207.814
372.112	206.838
374.801	201.001
377.49	202.13
380.179	192.269
382.869	191.329
385.558	187.435
388.247	184.951
390.936	183.679
393.625	181.266
396.315	179.37
399.004	175.467
401.693	176.711
404.382	170.161
407.072	171.049
409.761	169.917
412.45	165.751
415.139	168.658
417.829	170.142
420.518	175.358
423.207	174.575
425.896	177.057
428.586	174.496
431.275	171.831
433.964	175.085
436.653	177.617
439.343	166.455
442.032	151.291
444.721	143.805
447.41	142
450.1	137.885
452.789	127.218
455.478	113.737
458.167	106.976
460.857	111.604
463.546	113.069
466.235	115.706
468.924	117.385
471.614	122.346
474.303	128.857
476.992	131.786
479.681	133.346
482.371	149.889
485.06	164.046
487.749	177.643
490.438	187.924
493.128	201.6
495.817	225.8
498.506	258.824
501.195	294.076
503.884	356.407
506.574	491.822
509.263	761.281
511.952	1574.57
514.641	4112.92
517.331	8023.68
520.02	10961
522.709	10555.6
525.398	8493.34
528.088	5313.28
530.777	2867.48
533.466	1444.07
536.155	758.45
538.845	467.416
541.534	341.52
544.223	274.34
546.912	224.019
549.602	191.55
552.291	170.511
554.98	150.62
557.669	136.072
560.359	126.15
563.048	116.368
565.737	108.303
568.426	109.343
571.116	104.398
573.805	99.7975
576.494	94.1699
579.183	85.3137
581.872	84.6114
584.562	87.3459
587.251	86.7372
589.94	85.1426
592.629	86.4886
595.319	75.4044
598.008	83.8231
600.697	84.617
603.386	81.7535
606.076	88.7003
608.765	102.422
611.454	111.741
614.143	114.494
616.833	121.034
619.522	125.035
622.211	122.213
624.9	124.019
627.59	120.18
630.279	114.799
632.968	112.256
635.657	110.4
638.347	107.378
641.036	109.316
643.725	105.395
646.414	103.255
649.104	105.123
651.793	111.808
654.482	111.785
657.171	112.251
659.861	115.909
662.55	119.167
665.239	125.059
667.928	121.941
670.618	122.835
673.307	126.634
675.996	118.557
678.685	117.061
681.375	113.4
684.064	109.065
686.753	108.098
689.442	104.623
692.131	100.496
694.821	90.7178
697.51	95.2683
700.199	94.5305
702.888	86.8028
705.578	86.5065
708.267	88.4536
710.956	89.3827
713.645	89.4433
716.335	85.3185
719.024	85.9953
721.713	92.2937
724.402	88.0641
727.092	82.9458
729.781	89.5866
732.47	92.848
735.159	90.2571
737.849	88.3068
740.538	90.3242
743.227	93.2226
745.916	93.8142
748.606	102.388
751.295	96.2703
753.984	102.925
756.673	104.133
759.363	101.634
762.052	105.054
764.741	109.768
767.43	108.992
770.12	108.604
772.809	113.052
775.498	105.516
778.187	114.758
780.876	117.858
783.566	115.871
786.255	119.828
788.944	120.597
791.633	121.463
794.323	123.274
797.012	121.361
799.701	120.428
802.39	129.49
805.08	138.102
807.769	133.648
810.458	139.503
813.147	141.148
815.837	141.3
818.526	139.258
821.215	143.573
823.904	146.313
826.594	143.849
829.283	150.103
831.972	143.2
834.661	136.943
837.351	143.601
840.04	138.854
842.729	141.697
845.418	141.98
848.108	135.573
850.797	135.122
853.486	140.422
856.175	138.003
858.865	131.651
861.554	141.484
864.243	142.318
866.932	141.403
869.622	140.579
872.311	140.252
875	138.414
877.689	133.179
880.378	134.146
883.068	132.352
885.757	126.561
888.446	125.585
891.135	127.677
893.825	127.679
896.514	129.666
899.203	130.388
901.892	123.315
904.582	119.761
907.271	116.694
909.96	116.986
912.649	118.339
915.339	119.212
918.028	121.835
920.717	122.885
923.406	127.321
926.096	153.545
928.785	183.553
931.474	223.254
934.163	285.524
936.853	358.756
939.542	421.642
942.231	477.963
944.92	509.344
947.61	520.276
950.299	522.504
952.988	518.127
955.677	512.38
958.367	515.923
961.056	522.674
963.745	518.749
966.434	524.936
969.124	518.083
971.813	528.25
974.502	524.57
977.191	533.311
979.88	533.901
982.57	529.404
985.259	515.484
987.948	482.992
990.637	440.086
993.327	391.427
996.016	330.054
998.705	276.357
1001.39	247.459
1004.08	217.483
1006.77	195.612
1009.46	179.985
1012.15	171.22
1014.84	160.393
1017.53	139.074
1020.22	126.806
1022.91	124.89
1025.6	117.282
1028.29	108.96
1030.98	102.957
1033.67	90.9819
1036.35	82.5592
1039.04	74.5509
1041.73	66.2188
1044.42	57.8707
1047.11	52.8223
1049.8	46.4946
1052.49	43.8647
1055.18	42.6378
1057.87	36.0698
1060.56	30.388
1063.25	27.8118
1065.94	27.0942
1068.63	26.6737
1071.31	25.1295
1074	23.7074
1076.69	23.2637
1079.38	20.5345
1082.07	21.3673
1084.76	26.0841
1087.45	16.7206
1090.14	22.6391
1092.83	20.8802
1095.52	18.4775
1098.21	17.5433
1100.9	19.166
1103.59	18.2425
1106.27	21.6442
1108.96	18.5442
1111.65	15.9577
1114.34	15.3111
1117.03	12.974
1119.72	13.276
1122.41	11.1816
1125.1	10.0149
1127.79	8.58922
1130.48	12.1582
1133.17	11.5861
1135.86	7.4284
1138.55	13.5921
1141.24	5.87021
1143.92	6.54194
1146.61	6.12491
1149.3	3.59179
1151.99	4.70402
1154.68	4.71606
1157.37	4.60566
1160.06	3.26905
1162.75	0.868902
1165.44	1.53916
1168.13	2.91638
1170.82	1.3
1173.51	0.16992
1176.2	-2.97956
1178.88	-2.18997
1181.57	-2.68004
1184.26	-2.36509
1186.95	0.199415
1189.64	-1.32174
1192.33	-0.0468057
1195.02	2.74567
1197.71	-0.261623
1200.4	-0.494044
1203.09	-3.13915
1205.78	0.335855
1208.47	-0.68266
1211.16	-4.05062
1213.84	-5.93977
1216.53	-5.42039
1219.22	-4.45891
1221.91	-3.46964
1224.6	-1.14073
1227.29	-1.9118
1229.98	-1.00113
1232.67	0.238548
1235.36	-2.79351
1238.05	-1.48165
1240.74	-3.73352
1243.43	-5.34464
1246.12	-3.62118
1248.8	-2.84318
1251.49	-4.60702
1254.18	-3.9382
1256.87	-6.67166
1259.56	-2.62342
1262.25	-2.99782
1264.94	-4.36732
1267.63	-3.3852
1270.32	-1.27964
1273.01	-3.52101
1275.7	-4.88486
1278.39	-1.45517
1281.08	-0.825461
1283.76	-3.15781
1286.45	-3.8293
1289.14	-3.13142
1291.83	-1.63634
1294.52	-6.30853
1297.21	-5.99018
1299.9	-4.03968
1302.59	-3.85961
1305.28	-1.84789
1307.97	-0.632823
1310.66	-5.95609
1313.35	-5.13493
1316.04	-1.9477
1318.73	-3.4216
1321.41	-3.86671
1324.1	2.10719
1326.79	1.03037
1329.48	-1.83104
1332.17	-0.988918
1334.86	3.23176
1337.55	0.327847
1340.24	-3.49951
1342.93	-3.25375
1345.62	-1.72561
1348.31	-1.31873
1351	1.24604
1353.69	1.22259
1356.37	-0.398827
1359.06	0.793667
1361.75	1.01262
1364.44	0.771225
1367.13	0.995576
1369.82	-0.743134
1372.51	-1.03295
1375.2	-1.06982
1377.89	-1.43921
1380.58	-2.03085
1383.27	-0.277929
1385.96	-0.355433
1388.65	-1.57176
1391.33	-3.54601
1394.02	1.13283
1396.71	-2.29014
1399.4	-1.2
1402.09	-1.11183
1404.78	0.850646
1407.47	-1.88209
1410.16	0.233755
1412.85	-1.87687
1415.54	-1.53802
1418.23	-3.48267
1420.92	-2.0305
1423.61	1.8829
1426.29	-1.25801
1428.98	1.01039
1431.67	2.09642
1434.36	0.270041
1437.05	-1.20154
1439.74	1.13291
1442.43	1.53082
1445.12	1.92293
1447.81	5.49706
1450.5	3.56778
1453.19	0.809749
1455.88	2.8937
1458.57	4.26013
1461.26	1.59749
1463.94	0.0823497
1466.63	-0.631602
1469.32	-0.017826
1472.01	0.221183
1474.7	-0.00132799
1477.39	-0.412198
1480.08	-0.803716
1482.77	-0.897802
1485.46	-2.45118
1488.15	-3.79187
1490.84	-4.17849
1493.53	-2.24548
1496.22	-1.82918
1498.9	-3.44491
1501.59	-3.59138
1504.28	-3.39853
1506.97	-5.50019
1509.66	-5.3028
1512.35	-3.976
1515.04	-5.93972
1517.73	-7.39516
1520.42	-8.37592
1523.11	-5.49492
1525.8	-6.99837
1528.49	-7.92936
1531.18	-5.70715
1533.86	-8.71496
1536.55	-8.01092
1539.24	-7.3778
1541.93	-6.26205
1544.62	-6.59977
1547.31	-6.90391
1550	-5.90626
1552.69	-1.60124
1555.38	9.62087
1558.07	25.1502
1560.76	17.3177
1563.45	-2.01947
1566.14	-6.32455
1568.82	-8.81738
1571.51	-8.75792
1574.2	-4.78638
1576.89	-7.25785
1579.58	-4.52788
1582.27	-9.06781
1584.96	-7.79098
1587.65	-9.65078
1590.34	-8.29377
1593.03	-6.26929
1595.72	-7.36833
1598.41	-6.61376
1601.1	-8.1527
1603.78	-7.57477
1606.47	-6.14896
1609.16	-7.95245
1611.85	-7.95857
1614.54	-10.4794
1617.23	-9.23278
1619.92	-6.76121
1622.61	-8.36608
1625.3	-11.3167
1627.99	-8.95365
1630.68	-6.84549
1633.37	-11.4863
1636.06	-6.41415
1638.74	-6.80625
1641.43	-7.87993
1644.12	-4.57498
1646.81	-8.59222
1649.5	-7.3511
1652.19	-6.87342
1654.88	-8.02278
1657.57	-7.16325
1660.26	-6.67669
1662.95	-5.49749
1665.64	-6.42305
1668.33	-7.43248
1671.02	-8.8473
1673.71	-6.41887
1676.39	-5.82338
1679.08	-8.30906
1681.77	-6.87534
1684.46	-9.6467
1687.15	-9.05737
1689.84	-8.2732
1692.53	-8.24689
1695.22	-7.0195
1697.91	-8.85151
1700.6	-8.06614
1703.29	-8.15865
1705.98	-6.59284
1708.67	-4.00828
1711.35	-6.29213
1714.04	-10.7676
1716.73	-7.4888
1719.42	-5.15172
1722.11	-7.61196
1724.8	-7.98431
1727.49	-6.03457
1730.18	-5.62136
1732.87	-4.95006
1735.56	-6.24033
1738.25	-7.13332
1740.94	-7.56021
1743.63	-6.1141
1746.31	-5.36082
1749	-5.65881
1751.69	-8.29528
1754.38	-9.16802
1757.07	-5.20908
1759.76	-3.8745
1762.45	-5.28597
1765.14	-6.01531
1767.83	-6.91191
1770.52	-4.01295
1773.21	-4.94968
1775.9	-4.85899
1778.59	-4.04164
1781.27	-7.95583
1783.96	-8.96019
1786.65	-5.26228
1789.34	-3.88708
1792.03	-3.23827
1794.72	-8.28712
1797.41	-10.9595
1800.1	-5.01139
1802.79	-6.37007
1805.48	-8.35921
1808.17	-7.45764
1810.86	-4.64629
1813.55	-3.71206
1816.24	-5.7
1818.92	-5.98368
1821.61	-7.48098
1824.3	-7.96344
1826.99	-6.51727
1829.68	-7.1
1832.37	-7.8223
1835.06	-7.40514
1837.75	-4.34809
1840.44	-3.56816
1843.13	-3.93194
1845.82	-6.60469
1848.51	-7.66617
1851.2	-6.97016
1853.88	-7.45081
1856.57	-6.53407
1859.26	-6.04045
1861.95	-6.56679
1864.64	-2.93595
1867.33	-6.01123
1870.02	-5.09776
1872.71	-5.49869
1875.4	-6.63324
1878.09	-4.97791
1880.78	-6.86583
1883.47	-4.94374
1886.16	-7.23221
1888.84	-2.4156
1891.53	-4.36801
1894.22	-7.87546
1896.91	-7.54071
1899.6	-6.66245
1902.29	-4.82291
1904.98	-6.67584
1907.67	-5.73505
1910.36	-5.76044
1913.05	-5.7653
1915.74	-5.61263
1918.43	-1.64838
1921.12	-2.96874
1923.8	-5.58303
1926.49	-3.51286
1929.18	-2.22842
1931.87	-4.10924
1934.56	-4.6599
1937.25	-4.157
1939.94	-4.1
1942.63	-3.29925
1945.32	-3.35324
1948.01	-3.31121
1950.7	-3.11361
1953.39	-3.68578
1956.08	-6.65583
1958.76	-4.60661
1961.45	-4.86724
1964.14	-5.82268
1966.83	-3.51544
1969.52	-2.89931
1972.21	-4.99275
1974.9	-5.91886
1977.59	-4.09953
1980.28	-1.51402
1982.97	0.292384
1985.66	-1.91948
1988.35	-5.2117
1991.04	-3.71543
1993.73	-5.27389
1996.41	-5.93941
1999.1	-3.11086
2001.79	-1.39783
2004.48	-0.845419
2007.17	-2.01971
2009.86	-3.9804
2012.55	-3.08616
2015.24	-0.642361
2017.93	-1.85257
2020.62	-2.26582
2023.31	-6.816
2026	-3.94924
2028.69	-0.917623
2031.37	-1.63402
2034.06	0.783357
2036.75	0.672418
2039.44	-4.22734
2042.13	-4.95979
2044.82	-2.85823
2047.51	1.36648
2050.2	-1.87807
2052.89	1.96234
2055.58	0.753822
2058.27	1.28955
2060.96	0.134622
2063.65	-1.33078
2066.33	-1.82742
2069.02	-1.69039
2071.71	2.39214
2074.4	0.00285488
2077.09	-2.34224
2079.78	-0.607205
2082.47	0.167301
2085.16	-1.47659
2087.85	0.939004
2090.54	-0.910957
2093.23	-2.51067
2095.92	-1.33938
2098.61	-1.19038
2101.29	-4.97574
2103.98	-3.0507
2106.67	-1.49297
2109.36	-0.857966
2112.05	-2.58577
2114.74	-2.37673
2117.43	-1.89744
2120.12	-1.92563
2122.81	-2.46662
2125.5	-0.462559
2128.19	0.99735
2130.88	-2.21108
2133.57	-3.20977
2136.25	0.426539
2138.94	0.738044
2141.63	0.0174089
2144.32	-4.32353
2147.01	-2.8844
2149.7	-3.72346
2152.39	-0.942526
2155.08	-0.101309
2157.77	-0.301031
2160.46	1.22837
2163.15	1.14473
2165.84	-1.27116
2168.53	-2.26125
2171.22	1.30729
2173.9	1.57598
2176.59	-4.17909
2179.28	3.9106
2181.97	-0.24193
2184.66	0.291239
2187.35	-1.40514
2190.04	-1.13921
2192.73	-1.42469
2195.42	-0.367862
2198.11	-1.17156
2200.8	-0.0351465
2203.49	-3.0126
2206.18	-0.954702
2208.86	4.8231
2211.55	2.85756
2214.24	0.905813
2216.93	2.09822
2219.62	-2.93884
2222.31	2.39062
2225	2.07393
2227.69	0.460907
2230.38	2.59443
2233.07	5.82616
2235.76	6.67594
2238.45	5.91509
2241.14	3.01087
2243.82	-0.654884
2246.51	2.93191
2249.2	1.89918
2251.89	0.591545
2254.58	1.67132
2257.27	2.43224
2259.96	1.01975
2262.65	3.14285
2265.34	4.15829
2268.03	4.26704
2270.72	5.43715
2273.41	5.29226
2276.1	3.0501
2278.78	3.93055
2281.47	5.25636
2284.16	5.27534
2286.85	4.79782
2289.54	6.01745
2292.23	4.34054
2294.92	5.78198
2297.61	4.95163
2300.3	7.98506
2302.99	4.16342
2305.68	5.34342
2308.37	3.73951
2311.06	5.16976
2313.75	4.87803
2316.43	7.0941
2319.12	8.52271
2321.81	7.98485
2324.5	8.86539
2327.19	29.8045
2329.88	75.698
2332.57	105.795
2335.26	55.33
2337.95	20.2011
2340.64	7.14283
2343.33	5.85593
2346.02	7.65006
2348.71	7.01728
2351.39	3.84467
2354.08	4.32785
2356.77	8.0038
2359.46	9.24576
2362.15	7.56301
2364.84	10.2625
2367.53	7.01719
2370.22	7.94987
2372.91	7.78639
2375.6	9.73646
2378.29	8.00149
2380.98	8.63343
2383.67	6.76793
2386.35	6.2217
2389.04	6.59774
2391.73	7.51776
2394.42	10.4067
2397.11	8.31877
2399.8	10.245
2402.49	9.54379
2405.18	13.2072
2407.87	10.0577
2410.56	10.5381
2413.25	11.1853
2415.94	11.147
2418.63	13.7853
2421.31	14.2576
2424	11.4905
2426.69	9.85712
2429.38	11.1901
2432.07	14.1644
2434.76	15.2805
2437.45	13.9888
2440.14	13.8053
2442.83	13.801
2445.52	13.2445
2448.21	13.9202
2450.9	13.9403
2453.59	13.3798
2456.27	12.0424
2458.96	15.2953
2461.65	13.7868
2464.34	13.0169
2467.03	15.7937
2469.72	15.1439
2472.41	14.4595
2475.1	16.4324
2477.79	14.2748
2480.48	17.6942
2483.17	15.4798
2485.86	15.7892
2488.55	14.9114
2491.24	14.0305
2493.92	13.8789
2496.61	16.1005
2499.3	15.013
2501.99	16.9981
2504.68	16.1567
2507.37	17.0708
2510.06	18.0263
2512.75	15.5552
2515.44	15.6081
2518.13	14.7305
2520.82	19.1829
2523.51	21.6909
2526.2	20.5942
2528.88	15.9513
2531.57	19.3787
2534.26	15.8918
2536.95	19.2434
2539.64	22.6386
2542.33	19.0668
2545.02	16.4811
2547.71	15.333
2550.4	16.771
2553.09	22.2
2555.78	23
2558.47	22.4089
2561.16	20.1014
2563.84	19.2409
2566.53	19.2718
2569.22	19.9129
2571.91	13.3765
2574.6	20.8609
2577.29	20.5303
2579.98	20.2576
2582.67	21.6047
2585.36	22.6224
2588.05	22.0641
2590.74	23.4363
2593.43	18.4411
2596.12	24.5297
2598.8	22.6483
2601.49	20.3664
2604.18	20.6475
2606.87	22.1306
2609.56	22.0189
2612.25	22.0601
2614.94	26.1972
2617.63	28.1012
2620.32	25.5753
2623.01	22.9279
2625.7	20.7686
2628.39	26.3628
2631.08	23.5842
2633.76	23.2521
2636.45	25.9308
2639.14	27.0634
2641.83	25.8606
2644.52	26.0842
2647.21	26.4922
2649.9	25.385
2652.59	24.7051
2655.28	27.8205
2657.97	28.5977
2660.66	30.9826
2663.35	28.5927
2666.04	27.2361
2668.73	29.979
2671.41	35.1833
2674.1	28.7089
2676.79	29.4016
2679.48	30.808
2682.17	31.9803
2684.86	32.9666
2687.55	34.2372
2690.24	30.6447
2692.93	32.4484
2695.62	34.4455
2698.31	35.2811
2701	37.2578
2703.69	40.6916
2706.37	33.3083
2709.06	32.2527
2711.75	33.5259
2714.44	37.6318
2717.13	36.4375
2719.82	41.0726
2722.51	37.0227
2725.2	35.3178
2727.89	37.8246
2730.58	38.6494
2733.27	40.4649
2735.96	43.2456
2738.65	37.9737
2741.33	37.9692
2744.02	42.0166
2746.71	38.4975
2749.4	43.7931
2752.09	44.8537
2754.78	46.701
2757.47	45.4712
2760.16	43.7832
2762.85	44.7456
2765.54	45.962
2768.23	44.8551
2770.92	45.243
2773.61	45.4405
2776.29	47.735
2778.98	46.5995
2781.67	48.5152
2784.36	49.1595
2787.05	47.1061
2789.74	50.3985
2792.43	47.8712
2795.12	50.0187
2797.81	51.3399
2800.5	54.5394
2803.19	56.5939
2805.88	51.9536
2808.57	54.2547
2811.25	56.6832
2813.94	56.8395
2816.63	59.5882
2819.32	59.4021
2822.01	58.8845
2824.7	55.6986
2827.39	59.9672
2830.08	59.391
2832.77	62.6115
2835.46	63.2199
2838.15	60.2652
2840.84	64.3598
2843.53	62.6162
2846.22	62.7965
2848.9	67.9106
2851.59	71.3782
2854.28	68.885
2856.97	67.2526
2859.66	71.2468
2862.35	71.3427
2865.04	72.3822
2867.73	75.6974
2870.42	72.2207
2873.11	76.2013
2875.8	77.7729
2878.49	78.3267
2881.18	77.986
2883.86	80.8568
2886.55	81.4871
2889.24	84.2204
2891.93	86.5804
2894.62	85.7551
2897.31	85
2900	92.6232