File: Example Data/Raman/CNT - TIM/Raytheon/Al foil/2010/05-13-10/R1-sideA.txt
300	358.951
301.529	386.03
303.058	398.752
304.586	387.895
306.115	389.618
307.644	392.512
309.173	391.8
310.701	394.964
312.23	382.695
313.759	366.13
315.288	375.337
316.817	382.947
318.345	380.445
319.874	387.47
321.403	373.057
322.932	378.102
324.46	370.554
325.989	375.19
327.518	371.03
329.047	373.059
330.576	382.566
332.104	370.239
333.633	374.055
335.162	379.283
336.691	378.674
338.219	384.381
339.748	368.261
341.277	368.924
342.806	365.723
344.335	369.245
345.863	378.511
347.392	372.715
348.921	371.033
350.45	374.025
351.978	364.415
353.507	365.913
355.036	358.916
356.565	364.376
358.094	358.302
359.622	376.834
361.151	358.843
362.68	364.586
364.209	379.351
365.737	361.854
367.266	351.976
368.795	337.831
370.324	352.993
371.853	346.289
373.381	363.801
374.91	358.523
376.439	350.962
377.968	355.021
379.496	358.665
381.025	339.418
382.554	352.002
384.083	353.181
385.612	352.899
387.14	351.773
388.669	349.541
390.198	349.412
391.727	350.324
393.255	343.463
394.784	343.749
396.313	351.516
397.842	345.188
399.371	341.144
400.899	328.624
402.428	338.912
403.957	336.603
405.486	360.385
407.014	321.875
408.543	340.073
410.072	334.77
411.601	345.368
413.129	337.311
414.658	328.755
416.187	352.934
417.716	336.689
419.245	324.398
420.773	346.241
422.302	330.703
423.831	340.385
425.36	342.125
426.888	339.29
428.417	328.736
429.946	353.385
431.475	336.683
433.004	330.825
434.532	323.991
436.061	323.561
437.59	325.378
439.119	337.009
440.647	334.079
442.176	325.374
443.705	313.678
445.234	321.333
446.763	324.235
448.291	317.027
449.82	335.275
451.349	312.474
452.878	327.303
454.406	313.066
455.935	331.83
457.464	323.66
458.993	330.614
460.522	313.453
462.05	322.784
463.579	314.683
465.108	311.584
466.637	336.98
468.165	295.659
469.694	310.831
471.223	306.678
472.752	300.926
474.281	313.757
475.809	303.636
477.338	304.255
478.867	308.197
480.396	314.464
481.924	300.364
483.453	298.92
484.982	298.676
486.511	303.583
488.04	295.852
489.568	293.859
491.097	284.732
492.626	293.447
494.155	289.712
495.683	300.152
497.212	293.538
498.741	290.829
500.27	283.134
501.799	300.797
503.327	286.036
504.856	297.573
506.385	296.477
507.914	279.124
509.442	280.536
510.971	301.754
512.5	286.572
514.029	284.925
515.558	277.388
517.086	286.044
518.615	276.603
520.144	289.353
521.673	288.008
523.201	288.8
524.73	280.549
526.259	284.919
527.788	296.962
529.317	290.801
530.845	266.533
532.374	279.721
533.903	296.213
535.432	286.922
536.96	275.353
538.489	292.437
540.018	294.441
541.547	292.474
543.076	280.381
544.604	280.919
546.133	293.924
547.662	280.663
549.191	290.713
550.719	287.933
552.248	295.052
553.777	291.473
555.306	294.647
556.835	291.514
558.363	283.867
559.892	289.686
561.421	276.116
562.95	290.334
564.478	290.367
566.007	288.351
567.536	292.866
569.065	302.357
570.594	273.351
572.122	297.164
573.651	291.55
575.18	293.885
576.709	298.768
578.237	295.999
579.766	292.637
581.295	297.4
582.824	288.949
584.353	282.936
585.881	289.49
587.41	315.232
588.939	302.908
590.468	290.294
591.996	287.589
593.525	293.631
595.054	273.79
596.583	299.598
598.112	305.122
599.64	285.852
601.169	295.667
602.698	301.707
604.227	298.812
605.755	291.447
607.284	301.587
608.813	289.406
610.342	292.003
611.87	305.596
613.399	303.902
614.928	296.151
616.457	291.109
617.986	298.232
619.514	296.919
621.043	300.685
622.572	301.562
624.101	300.76
625.63	299.688
627.158	296.698
628.687	301.053
630.216	304.203
631.745	309.474
633.273	295.007
634.802	313.172
636.331	314.271
637.86	310.317
639.388	323.099
640.917	314.089
642.446	301.464
643.975	307.866
645.504	300.256
647.032	310.327
648.561	305.01
650.09	302.601
651.619	304.851
653.147	329.618
654.676	311.908
656.205	310.687
657.734	306.151
659.263	323.281
660.791	330.703
662.32	304.499
663.849	315.889
665.378	317.186
666.906	316.905
668.435	298.557
669.964	315.574
671.493	312.821
673.022	327.633
674.55	317.81
676.079	321.304
677.608	317.781
679.137	321.957
680.665	329.678
682.194	329.796
683.723	320.333
685.252	313.045
686.781	315.235
688.309	320.447
689.838	308.68
691.367	312.052
692.896	322.217
694.424	336.85
695.953	328.802
697.482	323.744
699.011	319.069
700.54	328.017
702.068	334.245
703.597	333.245
705.126	340.511
706.655	331.855
708.183	328.318
709.712	337.687
711.241	342.034
712.77	341.489
714.299	332.636
715.827	325.978
717.356	323.882
718.885	335.429
720.414	327.505
721.942	347.937
723.471	334.434
725	330.094
726.529	341.002
728.058	345.65
729.586	351.443
731.115	351.545
732.644	362.958
734.173	351.969
735.701	352.139
737.23	350.285
738.759	353.9
740.288	365.892
741.817	354.42
743.345	360.129
744.874	348.343
746.403	361.857
747.932	351.861
749.46	365.449
750.989	376.459
752.518	368.381
754.047	376.241
755.576	351.453
757.104	363.561
758.633	374.289
760.162	385.374
761.691	379.521
763.219	373.786
764.748	381.251
766.277	371.807
767.806	376.445
769.335	367.041
770.863	376.19
772.392	381.678
773.921	379.868
775.45	377.304
776.978	386.721
778.507	390.935
780.036	377.358
781.565	390.95
783.094	373.296
784.622	371.846
786.151	386.569
787.68	398.058
789.209	388.45
790.737	387.354
792.266	385.036
793.795	379.329
795.324	369.398
796.853	378.901
798.381	398.959
799.91	394.01
801.439	402.403
802.968	393.02
804.496	388.66
806.025	395.796
807.554	392.899
809.083	400.439
810.612	406.046
812.14	383.809
813.669	406.601
815.198	412.571
816.727	392.821
818.255	398.083
819.784	420.383
821.313	413.2
822.842	404.976
824.37	417.823
825.899	402.92
827.428	418.304
828.957	409.187
830.486	406.25
832.014	414.852
833.543	415.892
835.072	413.412
836.601	404.361
838.13	420.268
839.658	438.804
841.187	408.143
842.716	421.136
844.245	429.579
845.773	423.43
847.302	424.966
848.831	418.575
850.36	410.259
851.888	415.138
853.417	420.02
854.946	417.075
856.475	414.315
858.004	416.408
859.532	409.556
861.061	400.333
862.59	414.692
864.119	412.437
865.647	413.133
867.176	406.499
868.705	399.694
870.234	410.173
871.763	390.522
873.291	389.249
874.82	385.731
876.349	403.394
877.878	391.042
879.406	384.499
880.935	397.346
882.464	374.224
883.993	378.773
885.522	380.379
887.05	377.279
888.579	371.205
890.108	376.271
891.637	378.881
893.165	369.829
894.694	364.636
896.223	355.087
897.752	367.456
899.281	360.319
900.809	348.855
902.338	363.877
903.867	351.569
905.396	355.076
906.924	355.813
908.453	352.131
909.982	342.086
911.511	351.364
913.04	333.06
914.568	329.594
916.097	348.014
917.626	331.473
919.155	343.692
920.683	352.385
922.212	340.148
923.741	342.965
925.27	341.756
926.799	344.023
928.327	331.956
929.856	336.267
931.385	339.911
932.914	349.993
934.442	334.1
935.971	342.885
937.5	338.739
939.029	338.344
940.558	343.427
942.086	337.728
943.615	336.489
945.144	333.934
946.673	336.96
948.201	345.97
949.73	351.419
951.259	336.084
952.788	340.428
954.317	343.761
955.845	331.295
957.374	344.008
958.903	326.632
960.432	336.403
961.96	324.445
963.489	340.636
965.018	346.721
966.547	355.4
968.076	347
969.604	341.733
971.133	336.459
972.662	346.24
974.191	342.281
975.719	353.244
977.248	351.509
978.777	354.077
980.306	347.113
981.835	352.795
983.363	364.397
984.892	348.143
986.421	370.771
987.95	358.595
989.478	354.572
991.007	360.389
992.536	359.913
994.065	377.323
995.594	365.575
997.122	367.591
998.651	372.058
1000.18	381
1001.71	377.855
1003.24	384.203
1004.77	367.162
1006.29	392.587
1007.82	386.581
1009.35	398.532
1010.88	386.898
1012.41	391.433
1013.94	394.829
1015.47	403.133
1017	400.232
1018.53	397.263
1020.05	403.752
1021.58	403.353
1023.11	416.821
1024.64	416.278
1026.17	421.832
1027.7	423.983
1029.23	437.21
1030.76	424.189
1032.28	440.283
1033.81	419.749
1035.34	449.324
1036.87	436.091
1038.4	438.182
1039.93	447.046
1041.46	453.175
1042.99	445.057
1044.51	436.897
1046.04	451.792
1047.57	470.702
1049.1	456.626
1050.63	468.931
1052.16	476.529
1053.69	454.979
1055.22	462.842
1056.74	463.363
1058.27	468.135
1059.8	475.602
1061.33	478.817
1062.86	471.972
1064.39	477.336
1065.92	464.844
1067.45	457.356
1068.97	464.268
1070.5	476.616
1072.03	463.675
1073.56	479.859
1075.09	473.056
1076.62	486.852
1078.15	489.224
1079.68	467.547
1081.21	491.102
1082.73	484.72
1084.26	501.535
1085.79	484.815
1087.32	509.889
1088.85	497.733
1090.38	498.549
1091.91	501.326
1093.44	500.85
1094.96	506.146
1096.49	504.966
1098.02	514.232
1099.55	510.286
1101.08	506.728
1102.61	499.481
1104.14	509.689
1105.67	534.711
1107.19	517.281
1108.72	521.304
1110.25	521.749
1111.78	520.922
1113.31	547.933
1114.84	525.774
1116.37	527.703
1117.9	543.271
1119.42	537.594
1120.95	549.606
1122.48	545.914
1124.01	555.379
1125.54	546.569
1127.07	580.88
1128.6	556.999
1130.13	567.553
1131.65	574
1133.18	568.182
1134.71	593.723
1136.24	597.957
1137.77	582.772
1139.3	590.629
1140.83	618.679
1142.36	596.579
1143.88	627.27
1145.41	609.333
1146.94	612.212
1148.47	611.961
1150	641.38
1151.53	620.829
1153.06	633.579
1154.59	641.121
1156.12	661.119
1157.64	641.766
1159.17	660.709
1160.7	655.658
1162.23	677.007
1163.76	673.179
1165.29	664.279
1166.82	683.183
1168.35	687.439
1169.87	680.448
1171.4	706.798
1172.93	693.087
1174.46	684.25
1175.99	699.865
1177.52	676.059
1179.05	725.484
1180.58	701.789
1182.1	699.044
1183.63	713.969
1185.16	727.801
1186.69	704.305
1188.22	716.7
1189.75	718.098
1191.28	717.84
1192.81	730.776
1194.33	731.839
1195.86	755.772
1197.39	737.932
1198.92	740.247
1200.45	746.856
1201.98	769.482
1203.51	748.106
1205.04	755.613
1206.56	781.358
1208.09	777.959
1209.62	786.966
1211.15	777.993
1212.68	779.762
1214.21	794.108
1215.74	803.92
1217.27	808.109
1218.79	819.545
1220.32	809.438
1221.85	831.704
1223.38	827.514
1224.91	834.065
1226.44	840.333
1227.97	853.664
1229.5	842.463
1231.03	865.135
1232.55	862.104
1234.08	863.993
1235.61	881.19
1237.14	893.105
1238.67	896.732
1240.2	909.875
1241.73	911.788
1243.26	911.571
1244.78	939.309
1246.31	947.533
1247.84	976.04
1249.37	948.915
1250.9	976.092
1252.43	975.043
1253.96	997.149
1255.49	978.851
1257.01	1020.16
1258.54	1027.53
1260.07	1053.51
1261.6	1064.17
1263.13	1043.57
1264.66	1074.81
1266.19	1078.33
1267.72	1095.17
1269.24	1086.18
1270.77	1127.99
1272.3	1111.77
1273.83	1154.78
1275.36	1158.69
1276.89	1167.59
1278.42	1172.86
1279.95	1193.89
1281.47	1224.64
1283	1227.68
1284.53	1260.26
1286.06	1248.95
1287.59	1283.22
1289.12	1326.54
1290.65	1322.58
1292.18	1322.89
1293.71	1330.28
1295.23	1390
1296.76	1384.82
1298.29	1407.86
1299.82	1437.02
1301.35	1483.61
1302.88	1437.55
1304.41	1512.04
1305.94	1518.24
1307.46	1507.01
1308.99	1544.8
1310.52	1557.14
1312.05	1583.23
1313.58	1635.83
1315.11	1649.57
1316.64	1711.31
1318.17	1701.99
1319.69	1690.78
1321.22	1710.36
1322.75	1726.96
1324.28	1733.45
1325.81	1712.96
1327.34	1827.11
1328.87	1792.1
1330.4	1813.98
1331.92	1826.85
1333.45	1817.3
1334.98	1850.97
1336.51	1852.82
1338.04	1866.67
1339.57	1833.15
1341.1	1861.94
1342.63	1869
1344.15	1887.87
1345.68	1882.41
1347.21	1856.63
1348.74	1859.97
1350.27	1855.11
1351.8	1843.31
1353.33	1832.65
1354.86	1830.09
1356.38	1790.16
1357.91	1789.11
1359.44	1772.09
1360.97	1756.93
1362.5	1755.46
1364.03	1745.68
1365.56	1739.35
1367.09	1700.02
1368.62	1688.67
1370.14	1634.14
1371.67	1657.98
1373.2	1614.62
1374.73	1593.99
1376.26	1597.24
1377.79	1579.62
1379.32	1572.84
1380.85	1552.42
1382.37	1543.25
1383.9	1508.01
1385.43	1460.88
1386.96	1479.37
1388.49	1446.56
1390.02	1461.7
1391.55	1427.47
1393.08	1406.49
1394.6	1393.86
1396.13	1384.36
1397.66	1333.39
1399.19	1318.65
1400.72	1332.06
1402.25	1314.02
1403.78	1312.87
1405.31	1295.04
1406.83	1323.2
1408.36	1281.37
1409.89	1281.83
1411.42	1254.2
1412.95	1250.99
1414.48	1238.62
1416.01	1252.15
1417.54	1255.28
1419.06	1174.59
1420.59	1229.97
1422.12	1201.67
1423.65	1202.1
1425.18	1170.63
1426.71	1153.4
1428.24	1156.6
1429.77	1151.12
1431.29	1144.74
1432.82	1157.27
1434.35	1143.88
1435.88	1153.15
1437.41	1123.58
1438.94	1136.31
1440.47	1143.24
1442	1118.47
1443.53	1121.39
1445.05	1110.65
1446.58	1116.28
1448.11	1086.37
1449.64	1095.91
1451.17	1129.71
1452.7	1104.03
1454.23	1094.84
1455.76	1085.9
1457.28	1101.7
1458.81	1083.58
1460.34	1086.07
1461.87	1067.93
1463.4	1095.85
1464.93	1082.11
1466.46	1060.1
1467.99	1083.88
1469.51	1090.69
1471.04	1086.61
1472.57	1087.94
1474.1	1052.71
1475.63	1091.59
1477.16	1066.55
1478.69	1072.83
1480.22	1074.19
1481.74	1077.9
1483.27	1074.02
1484.8	1108.91
1486.33	1057.38
1487.86	1061.61
1489.39	1075.56
1490.92	1059.17
1492.45	1067.64
1493.97	1079.76
1495.5	1065.37
1497.03	1112.39
1498.56	1096.77
1500.09	1100.44
1501.62	1067.95
1503.15	1079.55
1504.68	1079.72
1506.21	1094.14
1507.73	1093.96
1509.26	1083.03
1510.79	1107.69
1512.32	1106.72
1513.85	1109.83
1515.38	1097.88
1516.91	1091.8
1518.44	1114.31
1519.96	1105.46
1521.49	1122.11
1523.02	1138.97
1524.55	1092.27
1526.08	1139.36
1527.61	1152.08
1529.14	1171.08
1530.67	1154.42
1532.19	1147.67
1533.72	1167.01
1535.25	1195.22
1536.78	1170.42
1538.31	1196.09
1539.84	1215.69
1541.37	1203.01
1542.9	1242.64
1544.42	1259.61
1545.95	1271.34
1547.48	1269.18
1549.01	1300.76
1550.54	1317.59
1552.07	1310.92
1553.6	1356.24
1555.13	1375.71
1556.65	1423.35
1558.18	1429.86
1559.71	1444.25
1561.24	1449.46
1562.77	1483.24
1564.3	1527.74
1565.83	1524.04
1567.36	1526.5
1568.88	1591.67
1570.41	1618.41
1571.94	1632.88
1573.47	1646.62
1575	1674.76
1576.53	1733.03
1578.06	1747.08
1579.59	1770.85
1581.12	1789.89
1582.64	1786.32
1584.17	1851.19
1585.7	1838.65
1587.23	1856.09
1588.76	1871.55
1590.29	1899.65
1591.82	1892.25
1593.35	1896.15
1594.87	1913.13
1596.4	1891.01
1597.93	1884.12
1599.46	1898.14
1600.99	1861.41
1602.52	1850.31
1604.05	1796.24
1605.58	1813.9
1607.1	1725.69
1608.63	1708.76
1610.16	1681.54
1611.69	1654.56
1613.22	1617.85
1614.75	1548.88
1616.28	1539.34
1617.81	1474.06
1619.33	1437.97
1620.86	1376.25
1622.39	1352.49
1623.92	1277.52
1625.45	1223.93
1626.98	1182.23
1628.51	1142.97
1630.04	1100.46
1631.56	1070.43
1633.09	1034.02
1634.62	982.238
1636.15	962.788
1637.68	925.085
1639.21	883.51
1640.74	862.4
1642.27	821.652
1643.79	803.797
1645.32	761.858
1646.85	766.742
1648.38	730.246
1649.91	696.161
1651.44	676.424
1652.97	655.357
1654.5	620.472
1656.03	606.756
1657.55	583.564
1659.08	580.791
1660.61	551.783
1662.14	540.252
1663.67	515.242
1665.2	499.945
1666.73	491.921
1668.26	472.926
1669.78	464.262
1671.31	440.328
1672.84	434.283
1674.37	412.025
1675.9	413.941
1677.43	388.917
1678.96	380.462
1680.49	382.449
1682.01	376.318
1683.54	362.134
1685.07	359.815
1686.6	347.496
1688.13	342.715
1689.66	329.695
1691.19	324.173
1692.72	310.559
1694.24	314.946
1695.77	312.653
1697.3	300.825
1698.83	299.853
1700.36	297.069
1701.89	295.353
1703.42	292.794
1704.95	285.946
1706.47	286.807
1708	277.072
1709.53	281.455
1711.06	271.806
1712.59	269.019
1714.12	277.951
1715.65	265.433
1717.18	269.78
1718.71	251.392
1720.23	255.987
1721.76	251.808
1723.29	255.491
1724.82	251.943
1726.35	257.127
1727.88	255.267
1729.41	242.974
1730.94	241.871
1732.46	237.257
1733.99	241.649
1735.52	244.706
1737.05	235.158
1738.58	237.732
1740.11	232.714
1741.64	230.546
1743.17	235.303
1744.69	233.829
1746.22	226.894
1747.75	215.328
1749.28	224.863
1750.81	222.653
1752.34	226.557
1753.87	227.652
1755.4	220.88
1756.92	226.467
1758.45	222.411
1759.98	229.118
1761.51	212.65
1763.04	218.439
1764.57	218.524
1766.1	217.979
1767.63	212.653
1769.15	213.807
1770.68	210.945
1772.21	213.852
1773.74	220.184
1775.27	213.018
1776.8	220.436
1778.33	224.302
1779.86	210.597
1781.38	205.73
1782.91	210.735
1784.44	218.133
1785.97	196.098
1787.5	213.279
1789.03	207.378
1790.56	206.226
1792.09	206.647
1793.62	200.943
1795.14	212.449
1796.67	211.759
1798.2	215.519
1799.73	213.569
1801.26	199.124
1802.79	202.378
1804.32	202.629
1805.85	197.597
1807.37	208.722
1808.9	209.28
1810.43	199.131
1811.96	216.132
1813.49	197.879
1815.02	203.609
1816.55	206.544
1818.08	212.035
1819.6	195.081
1821.13	193.35
1822.66	209.178
1824.19	208.276
1825.72	203.961
1827.25	201.535
1828.78	209.059
1830.31	193.741
1831.83	206.596
1833.36	202.949
1834.89	194.87
1836.42	217.148
1837.95	209.013
1839.48	203.352
1841.01	204.492
1842.54	207.522
1844.06	197.743
1845.59	192.305
1847.12	194.919
1848.65	192.594
1850.18	203.535
1851.71	208.236
1853.24	210.797
1854.77	208.115
1856.29	199.349
1857.82	199.244
1859.35	191.854
1860.88	185.594
1862.41	195.845
1863.94	196.181
1865.47	197.566
1867	205.285
1868.53	198.771
1870.05	202.058
1871.58	200.932
1873.11	204.957
1874.64	195.766
1876.17	197.456
1877.7	208.404
1879.23	203.225
1880.76	188.048
1882.28	188.714
1883.81	191.548
1885.34	193.146
1886.87	201.169
1888.4	196.753
1889.93	201.574
1891.46	206.294
1892.99	197.556
1894.51	199.887
1896.04	192
1897.57	201.611
1899.1	202.434
1900.63	199.931
1902.16	193.43
1903.69	203.113
1905.22	205.599
1906.74	194.772
1908.27	198.48
1909.8	191.904
1911.33	210.473
1912.86	191.903
1914.39	191.159
1915.92	191.638
1917.45	180.767
1918.97	193.564
1920.5	202.512
1922.03	181.684
1923.56	187.306
1925.09	191.102
1926.62	187.921
1928.15	197.707
1929.68	196.057
1931.21	197.058
1932.73	194.688
1934.26	187.13
1935.79	194.023
1937.32	192.118
1938.85	197.564
1940.38	194.358
1941.91	189.587
1943.44	191.002
1944.96	196.106
1946.49	186.934
1948.02	195.75
1949.55	203.618
1951.08	181.516
1952.61	177.679
1954.14	191.824
1955.67	200.108
1957.19	192.859
1958.72	189.865
1960.25	191.081
1961.78	202.89
1963.31	183.137
1964.84	190.683
1966.37	201.079
1967.9	188.788
1969.42	202.996
1970.95	189.91
1972.48	199.818
1974.01	188.764
1975.54	200.203
1977.07	197.666
1978.6	197.667
1980.13	200.667
1981.65	195.199
1983.18	176.601
1984.71	190.813
1986.24	195.68
1987.77	200.46
1989.3	186.245
1990.83	190.278
1992.36	187.031
1993.88	195.485
1995.41	183.404
1996.94	203.69
1998.47	206.626
2000	197.393