File: Example Data/Raman/CNT - TIM/Raytheon/Al foil/2010/05-13-10/R1-sideB.txt
300	319.815
301.529	349.15
303.058	347.277
304.586	359.048
306.115	352.349
307.644	352.402
309.173	353.314
310.701	345.498
312.23	352.885
313.759	340.276
315.288	343.696
316.817	343.355
318.345	347.729
319.874	341.531
321.403	349.115
322.932	331.783
324.46	326.888
325.989	322.046
327.518	316.836
329.047	341.883
330.576	314.868
332.104	333.419
333.633	326.474
335.162	322.375
336.691	326.138
338.219	345.183
339.748	323.53
341.277	329.352
342.806	334.71
344.335	315.713
345.863	319.281
347.392	315.68
348.921	320.861
350.45	320.429
351.978	317.006
353.507	324.584
355.036	306.361
356.565	313.742
358.094	323.111
359.622	318.167
361.151	323.18
362.68	314.512
364.209	320.472
365.737	312.624
367.266	303.161
368.795	309.879
370.324	320.393
371.853	323.607
373.381	300.673
374.91	320.493
376.439	329.953
377.968	313.062
379.496	309.066
381.025	306.274
382.554	303.975
384.083	309.772
385.612	308.185
387.14	285.662
388.669	298.333
390.198	296.074
391.727	309.12
393.255	308.386
394.784	312.766
396.313	305.023
397.842	308.023
399.371	298.369
400.899	295.402
402.428	295.338
403.957	291.042
405.486	287.344
407.014	293.271
408.543	304.564
410.072	282.622
411.601	300.767
413.129	296.27
414.658	294.646
416.187	283.984
417.716	283.333
419.245	290.508
420.773	290.229
422.302	299.679
423.831	285.514
425.36	287.135
426.888	295.28
428.417	291.667
429.946	277.415
431.475	289.804
433.004	288.799
434.532	294.408
436.061	278.902
437.59	279.065
439.119	287.593
440.647	283.026
442.176	293.589
443.705	277.854
445.234	279.655
446.763	272.292
448.291	274.328
449.82	272.451
451.349	280.834
452.878	289.318
454.406	271.746
455.935	272.585
457.464	284.854
458.993	285.237
460.522	269.953
462.05	272.699
463.579	272.172
465.108	274.851
466.637	278.945
468.165	272.809
469.694	272.504
471.223	268.952
472.752	279.218
474.281	265.308
475.809	260.414
477.338	273.393
478.867	261.275
480.396	263.798
481.924	264.859
483.453	267.936
484.982	249.666
486.511	261.812
488.04	252.075
489.568	261.025
491.097	263.398
492.626	262.897
494.155	256.954
495.683	258.568
497.212	254.43
498.741	256.762
500.27	252.154
501.799	255.797
503.327	249.406
504.856	254.86
506.385	258.717
507.914	252.292
509.442	257.957
510.971	243.044
512.5	249.688
514.029	253.43
515.558	244.699
517.086	260.256
518.615	248.458
520.144	263.459
521.673	246.058
523.201	243.496
524.73	241.313
526.259	235.323
527.788	237.545
529.317	243.707
530.845	251.709
532.374	233.926
533.903	234.2
535.432	254.677
536.96	228.465
538.489	242.76
540.018	246.596
541.547	245.109
543.076	255.762
544.604	258.316
546.133	244.904
547.662	246.156
549.191	248.889
550.719	249.114
552.248	243.134
553.777	235.479
555.306	246.397
556.835	240.75
558.363	246.57
559.892	247.937
561.421	249.781
562.95	250.761
564.478	261.633
566.007	257.322
567.536	255.885
569.065	262.099
570.594	255.438
572.122	250.841
573.651	255.394
575.18	259
576.709	249.546
578.237	241.013
579.766	260.001
581.295	248.082
582.824	253.239
584.353	255.061
585.881	266.792
587.41	265.612
588.939	265.248
590.468	262.265
591.996	250.315
593.525	248.99
595.054	237.263
596.583	258.031
598.112	260.701
599.64	263.283
601.169	249.38
602.698	252.793
604.227	250.792
605.755	268.042
607.284	269.159
608.813	253.366
610.342	253.859
611.87	248.989
613.399	255.967
614.928	265.318
616.457	252.201
617.986	260.697
619.514	259.589
621.043	260.087
622.572	248.03
624.101	264.934
625.63	257.838
627.158	267.7
628.687	262.591
630.216	256.319
631.745	264.226
633.273	267.337
634.802	261.881
636.331	258.692
637.86	259.224
639.388	258.927
640.917	253.913
642.446	262.103
643.975	276.767
645.504	269.008
647.032	265.234
648.561	273.896
650.09	272.864
651.619	263.794
653.147	271.387
654.676	272.826
656.205	264.579
657.734	267.265
659.263	270.375
660.791	262.357
662.32	271.35
663.849	266.185
665.378	267.137
666.906	274.203
668.435	268.931
669.964	260.078
671.493	276.601
673.022	286.509
674.55	265.717
676.079	281.913
677.608	275.916
679.137	281.71
680.665	272.667
682.194	268.075
683.723	271.572
685.252	271.872
686.781	280.764
688.309	275.671
689.838	257.044
691.367	277.574
692.896	288.673
694.424	279.151
695.953	271.382
697.482	275.624
699.011	279.797
700.54	275.57
702.068	282.332
703.597	285.732
705.126	275.978
706.655	284.072
708.183	283.335
709.712	275.649
711.241	278.529
712.77	296.166
714.299	278.762
715.827	272.72
717.356	296.655
718.885	298.314
720.414	285.322
721.942	302.861
723.471	293.246
725	308.502
726.529	294.979
728.058	300.245
729.586	285.6
731.115	284.41
732.644	307.734
734.173	298.337
735.701	311.437
737.23	305.057
738.759	302.045
740.288	306.88
741.817	306.131
743.345	320.951
744.874	317.122
746.403	313.284
747.932	315.054
749.46	313.684
750.989	308.461
752.518	320.778
754.047	316.025
755.576	309.751
757.104	317.737
758.633	313.565
760.162	324.001
761.691	330.124
763.219	320.872
764.748	313.988
766.277	322.832
767.806	312.672
769.335	315.228
770.863	327.528
772.392	313.516
773.921	337.314
775.45	325.478
776.978	332.456
778.507	337.682
780.036	322.79
781.565	314.732
783.094	334.543
784.622	327.376
786.151	335.444
787.68	320.392
789.209	327.913
790.737	336.836
792.266	324.837
793.795	323.419
795.324	329.783
796.853	342.388
798.381	325
799.91	327.988
801.439	341.047
802.968	341.922
804.496	340.644
806.025	337.971
807.554	363
809.083	360.073
810.612	337.438
812.14	339.949
813.669	347.01
815.198	358.004
816.727	338.691
818.255	353.588
819.784	366.089
821.313	368
822.842	339.196
824.37	340.212
825.899	356.013
827.428	344.034
828.957	360.111
830.486	354.361
832.014	354.306
833.543	360.049
835.072	365.261
836.601	360.104
838.13	367.021
839.658	359.094
841.187	363.569
842.716	354.565
844.245	345.892
845.773	353.17
847.302	356.333
848.831	366.006
850.36	367.59
851.888	349.654
853.417	361.049
854.946	347.591
856.475	345.608
858.004	351.664
859.532	363.126
861.061	362.597
862.59	348.455
864.119	345.476
865.647	352.507
867.176	345.026
868.705	345.546
870.234	350.838
871.763	334.323
873.291	340.198
874.82	313.263
876.349	326.387
877.878	324.349
879.406	323.201
880.935	324.159
882.464	327.073
883.993	320.86
885.522	317.488
887.05	315.381
888.579	306.152
890.108	296.933
891.637	322.707
893.165	305.656
894.694	319.832
896.223	307.754
897.752	304.84
899.281	307.91
900.809	304.765
902.338	303.232
903.867	285.72
905.396	310.899
906.924	295.326
908.453	294.884
909.982	287.455
911.511	303.528
913.04	285.222
914.568	283.594
916.097	296.977
917.626	285.665
919.155	294.105
920.683	291.055
922.212	291.874
923.741	288.82
925.27	288.06
926.799	280.678
928.327	281.594
929.856	285.134
931.385	280.474
932.914	295.468
934.442	278.15
935.971	281.242
937.5	291.978
939.029	285.331
940.558	273.266
942.086	287.656
943.615	276.783
945.144	298.865
946.673	285.053
948.201	289.019
949.73	291.871
951.259	283.446
952.788	285.799
954.317	279.744
955.845	284.176
957.374	281.443
958.903	274.816
960.432	285.363
961.96	285.443
963.489	274.141
965.018	285.22
966.547	273.4
968.076	275.327
969.604	281.952
971.133	273.9
972.662	283.336
974.191	293.123
975.719	290.579
977.248	281.886
978.777	282.13
980.306	289.664
981.835	283.159
983.363	280.408
984.892	284.302
986.421	301.656
987.95	300.304
989.478	283.477
991.007	289.173
992.536	286.312
994.065	309.573
995.594	302.164
997.122	301.659
998.651	298.802
1000.18	303.267
1001.71	297
1003.24	311.037
1004.77	295.347
1006.29	303.669
1007.82	315.582
1009.35	310.488
1010.88	310.002
1012.41	322.777
1013.94	329.324
1015.47	329.405
1017	335.247
1018.53	335.876
1020.05	333.792
1021.58	330.967
1023.11	335.949
1024.64	325.132
1026.17	347.608
1027.7	337.434
1029.23	335.339
1030.76	349.398
1032.28	365.657
1033.81	352.314
1035.34	353.957
1036.87	356.234
1038.4	368.084
1039.93	360.227
1041.46	346.181
1042.99	364.985
1044.51	351.347
1046.04	345.597
1047.57	368.494
1049.1	375.041
1050.63	360.181
1052.16	368.922
1053.69	350.879
1055.22	349.961
1056.74	352.446
1058.27	351.715
1059.8	365.97
1061.33	367.621
1062.86	354.741
1064.39	376.7
1065.92	367.628
1067.45	371.526
1068.97	367.763
1070.5	369.252
1072.03	367.472
1073.56	370.845
1075.09	367.308
1076.62	375.836
1078.15	368.89
1079.68	378.991
1081.21	376.399
1082.73	380.95
1084.26	376.831
1085.79	388.215
1087.32	375.301
1088.85	398.164
1090.38	382.233
1091.91	387.739
1093.44	393.843
1094.96	383.976
1096.49	392.768
1098.02	393.581
1099.55	398.563
1101.08	395.526
1102.61	417.139
1104.14	384.89
1105.67	398.656
1107.19	400.543
1108.72	406.156
1110.25	407.21
1111.78	406.927
1113.31	394.211
1114.84	412.442
1116.37	407.555
1117.9	405.177
1119.42	411.881
1120.95	424.286
1122.48	432.529
1124.01	402.074
1125.54	422.752
1127.07	416.822
1128.6	419.897
1130.13	427.258
1131.65	416.967
1133.18	415.984
1134.71	422.828
1136.24	418.218
1137.77	435.254
1139.3	437.631
1140.83	434.511
1142.36	431.279
1143.88	458.967
1145.41	439.023
1146.94	437.311
1148.47	457.477
1150	458.76
1151.53	459.763
1153.06	462.13
1154.59	460.491
1156.12	456.873
1157.64	480.204
1159.17	462.706
1160.7	476.922
1162.23	473.985
1163.76	497.105
1165.29	482.791
1166.82	479.213
1168.35	474.273
1169.87	489.927
1171.4	484.343
1172.93	488.259
1174.46	481.05
1175.99	501.265
1177.52	495.966
1179.05	492.374
1180.58	484.884
1182.1	492.408
1183.63	486.716
1185.16	500.349
1186.69	504.087
1188.22	512.709
1189.75	521.988
1191.28	519.29
1192.81	510.219
1194.33	511.531
1195.86	529.637
1197.39	531.409
1198.92	527.293
1200.45	525.003
1201.98	537.5
1203.51	526.312
1205.04	545.684
1206.56	553.292
1208.09	548
1209.62	557.632
1211.15	538.546
1212.68	547.618
1214.21	558.87
1215.74	562.227
1217.27	569.847
1218.79	552.108
1220.32	581.353
1221.85	575.387
1223.38	592.839
1224.91	613.537
1226.44	595.475
1227.97	619.191
1229.5	619.223
1231.03	624.165
1232.55	624.666
1234.08	607.536
1235.61	646.269
1237.14	649.598
1238.67	628.637
1240.2	647.561
1241.73	664.827
1243.26	681.46
1244.78	670.739
1246.31	670.508
1247.84	682.422
1249.37	694.454
1250.9	723.786
1252.43	704.876
1253.96	716.461
1255.49	717.112
1257.01	736.964
1258.54	753.331
1260.07	758.54
1261.6	754.399
1263.13	775.172
1264.66	775.12
1266.19	773.518
1267.72	795.82
1269.24	796.356
1270.77	813.835
1272.3	825.324
1273.83	837.439
1275.36	844.226
1276.89	852.432
1278.42	876.243
1279.95	871.156
1281.47	912.994
1283	910.377
1284.53	919.119
1286.06	948.583
1287.59	947.877
1289.12	980.492
1290.65	988.899
1292.18	1011.78
1293.71	990.978
1295.23	1034.71
1296.76	1044.7
1298.29	1061.68
1299.82	1069.52
1301.35	1087.88
1302.88	1134.12
1304.41	1142.78
1305.94	1160.18
1307.46	1209.92
1308.99	1224.41
1310.52	1258.5
1312.05	1265.01
1313.58	1259.7
1315.11	1326.33
1316.64	1339.99
1318.17	1376.33
1319.69	1391.21
1321.22	1406.35
1322.75	1433.35
1324.28	1472.9
1325.81	1494.48
1327.34	1497.25
1328.87	1522.89
1330.4	1559.65
1331.92	1557.02
1333.45	1583.09
1334.98	1615.28
1336.51	1609.29
1338.04	1630.36
1339.57	1617.04
1341.1	1612.26
1342.63	1631.62
1344.15	1584.1
1345.68	1611.22
1347.21	1579.53
1348.74	1581.17
1350.27	1562.77
1351.8	1559.48
1353.33	1522.6
1354.86	1524.1
1356.38	1494.11
1357.91	1493.69
1359.44	1461.76
1360.97	1422.21
1362.5	1411.01
1364.03	1402.32
1365.56	1387.52
1367.09	1348.31
1368.62	1336.36
1370.14	1291.27
1371.67	1264.76
1373.2	1232.45
1374.73	1249.31
1376.26	1231.74
1377.79	1199.92
1379.32	1173.85
1380.85	1156.33
1382.37	1129.91
1383.9	1108.62
1385.43	1122.05
1386.96	1091.04
1388.49	1064.31
1390.02	1060.59
1391.55	1068.9
1393.08	1032.99
1394.6	1017.48
1396.13	986.116
1397.66	966.681
1399.19	993
1400.72	966.318
1402.25	931.323
1403.78	968.078
1405.31	905.072
1406.83	927.683
1408.36	929.667
1409.89	926.788
1411.42	917.189
1412.95	881.057
1414.48	881.076
1416.01	862.121
1417.54	854.468
1419.06	860.79
1420.59	855.58
1422.12	825.559
1423.65	835.328
1425.18	842.233
1426.71	842.656
1428.24	805.499
1429.77	820.272
1431.29	827
1432.82	793.41
1434.35	800.166
1435.88	784.579
1437.41	799.188
1438.94	827.942
1440.47	792.664
1442	798.406
1443.53	782.045
1445.05	789.252
1446.58	776.564
1448.11	789.986
1449.64	784.006
1451.17	778.657
1452.7	790.801
1454.23	784.121
1455.76	771.318
1457.28	766.239
1458.81	769.514
1460.34	785.145
1461.87	765.094
1463.4	776.829
1464.93	790.296
1466.46	768.871
1467.99	761.348
1469.51	778.234
1471.04	783.056
1472.57	765.109
1474.1	772.485
1475.63	775.249
1477.16	774.372
1478.69	788.297
1480.22	753.772
1481.74	765.963
1483.27	756.968
1484.8	777.141
1486.33	737.749
1487.86	745.583
1489.39	775.948
1490.92	769.102
1492.45	776.896
1493.97	767.444
1495.5	777.639
1497.03	775.965
1498.56	784.38
1500.09	772.043
1501.62	783.381
1503.15	795.134
1504.68	762.161
1506.21	792.526
1507.73	803.204
1509.26	794.605
1510.79	778.399
1512.32	793.88
1513.85	796.75
1515.38	786.834
1516.91	816.014
1518.44	818.566
1519.96	803.277
1521.49	838.633
1523.02	834.83
1524.55	832.599
1526.08	824.998
1527.61	860.437
1529.14	862.295
1530.67	869.427
1532.19	872.728
1533.72	884.51
1535.25	919.856
1536.78	901.821
1538.31	904.956
1539.84	926.714
1541.37	944.638
1542.9	972.486
1544.42	974.619
1545.95	1012.57
1547.48	1014.08
1549.01	1024.09
1550.54	1048.12
1552.07	1088.7
1553.6	1127.8
1555.13	1134.78
1556.65	1160.72
1558.18	1184.19
1559.71	1173.14
1561.24	1167.5
1562.77	1244.13
1564.3	1244.68
1565.83	1241.21
1567.36	1275.27
1568.88	1303.79
1570.41	1326.55
1571.94	1337.14
1573.47	1377.6
1575	1415.91
1576.53	1420.33
1578.06	1414.75
1579.59	1475.18
1581.12	1463.59
1582.64	1466.37
1584.17	1440.84
1585.7	1463.61
1587.23	1463.33
1588.76	1465.27
1590.29	1480.07
1591.82	1452.48
1593.35	1443.77
1594.87	1443.8
1596.4	1418.19
1597.93	1421.54
1599.46	1396.07
1600.99	1382.38
1602.52	1363.09
1604.05	1364.65
1605.58	1324.81
1607.1	1308.43
1608.63	1276.12
1610.16	1245.31
1611.69	1219.56
1613.22	1187.46
1614.75	1143.48
1616.28	1099.53
1617.81	1075.95
1619.33	1050.48
1620.86	1005.27
1622.39	950.781
1623.92	926.055
1625.45	907.864
1626.98	859.608
1628.51	825.995
1630.04	781.401
1631.56	773.706
1633.09	733.416
1634.62	721.76
1636.15	692.222
1637.68	668.538
1639.21	632.68
1640.74	609.619
1642.27	591.341
1643.79	584.574
1645.32	555.454
1646.85	528.585
1648.38	515.549
1649.91	506.977
1651.44	497.084
1652.97	469.849
1654.5	443.727
1656.03	454.628
1657.55	430.574
1659.08	417.769
1660.61	407.605
1662.14	388.997
1663.67	378.027
1665.2	364.144
1666.73	362.23
1668.26	358.804
1669.78	335.478
1671.31	332.82
1672.84	316.529
1674.37	322.031
1675.9	311.574
1677.43	301.326
1678.96	290.645
1680.49	287.656
1682.01	285.134
1683.54	280.013
1685.07	273.72
1686.6	272.925
1688.13	262.93
1689.66	271.578
1691.19	255.974
1692.72	258.528
1694.24	244.673
1695.77	247.589
1697.3	248.778
1698.83	236.662
1700.36	235.638
1701.89	236.38
1703.42	228.225
1704.95	232.407
1706.47	234.737
1708	226.209
1709.53	224.419
1711.06	225.875
1712.59	216.888
1714.12	209.482
1715.65	210.189
1717.18	225.504
1718.71	214.869
1720.23	209.479
1721.76	204.753
1723.29	206.587
1724.82	215.839
1726.35	208.292
1727.88	201.736
1729.41	204.483
1730.94	202.44
1732.46	205.364
1733.99	210.125
1735.52	207.51
1737.05	204.006
1738.58	203.549
1740.11	208.084
1741.64	204.286
1743.17	194.342
1744.69	201.083
1746.22	190.369
1747.75	196.072
1749.28	189.703
1750.81	188.827
1752.34	185.237
1753.87	185.616
1755.4	189.96
1756.92	193.934
1758.45	189.2
1759.98	188.044
1761.51	188.125
1763.04	182.503
1764.57	185.937
1766.1	189.836
1767.63	180.334
1769.15	185.98
1770.68	185.921
1772.21	186.346
1773.74	187.016
1775.27	182.633
1776.8	177.406
1778.33	175.733
1779.86	190.762
1781.38	199.311
1782.91	178.943
1784.44	181.56
1785.97	174.55
1787.5	175.521
1789.03	179.4
1790.56	178.51
1792.09	176.137
1793.62	179.335
1795.14	172.963
1796.67	171.852
1798.2	181.954
1799.73	182.92
1801.26	186.359
1802.79	182.746
1804.32	180.691
1805.85	179.85
1807.37	169.368
1808.9	180.114
1810.43	172.257
1811.96	185.32
1813.49	185.688
1815.02	168.072
1816.55	172.277
1818.08	180.067
1819.6	171.156
1821.13	181.951
1822.66	168.02
1824.19	178.143
1825.72	178.876
1827.25	172.034
1828.78	174.608
1830.31	182.818
1831.83	171.145
1833.36	175.378
1834.89	171.504
1836.42	178.257
1837.95	180.472
1839.48	171.334
1841.01	172.895
1842.54	180.575
1844.06	178.733
1845.59	191.875
1847.12	175.737
1848.65	178.376
1850.18	169.736
1851.71	178.754
1853.24	173.01
1854.77	183.862
1856.29	181.317
1857.82	171.552
1859.35	171.17
1860.88	182.256
1862.41	175.248
1863.94	168.152
1865.47	169.818
1867	168.801
1868.53	164.152
1870.05	166.357
1871.58	158.756
1873.11	175.048
1874.64	163.93
1876.17	169.3
1877.7	171.455
1879.23	174.541
1880.76	163.363
1882.28	166.593
1883.81	166.869
1885.34	169.759
1886.87	166.032
1888.4	169.613
1889.93	164.809
1891.46	165.574
1892.99	153.928
1894.51	162.145
1896.04	166.358
1897.57	164.693
1899.1	158.699
1900.63	159.207
1902.16	170.178
1903.69	162.901
1905.22	170.617
1906.74	164.702
1908.27	160.324
1909.8	167.139
1911.33	171.033
1912.86	167.592
1914.39	167.516
1915.92	168.082
1917.45	166.91
1918.97	149.974
1920.5	159.302
1922.03	165.213
1923.56	175.456
1925.09	166.407
1926.62	164.711
1928.15	159.144
1929.68	164.976
1931.21	166.425
1932.73	165.277
1934.26	159.913
1935.79	170.596
1937.32	162.024
1938.85	147.515
1940.38	162.305
1941.91	159
1943.44	159.459
1944.96	158.181
1946.49	158.22
1948.02	159.202
1949.55	159.986
1951.08	165.428
1952.61	156.796
1954.14	162.937
1955.67	165.791
1957.19	152.978
1958.72	157.074
1960.25	173.246
1961.78	172.7
1963.31	161.971
1964.84	164.139
1966.37	163.429
1967.9	159.18
1969.42	162.358
1970.95	156.213
1972.48	162.281
1974.01	163.918
1975.54	158.712
1977.07	148.391
1978.6	177.634
1980.13	164.82
1981.65	171.137
1983.18	159.357
1984.71	178.144
1986.24	158.368
1987.77	166.578
1989.3	168.766
1990.83	163.501
1992.36	171.615
1993.88	162.943
1995.41	157.803
1996.94	164.713
1998.47	172.182
2000	165.33