File: Example Data/Raman/CNT - TIM/Raytheon/Al foil/2010/05-13-10/R2-sideb.txt
300	119.982
301.529	128.216
303.058	128.025
304.586	136.241
306.115	138.148
307.644	134.475
309.173	125.419
310.701	120.918
312.23	119.94
313.759	131.029
315.288	135.89
316.817	121.061
318.345	117.191
319.874	129.266
321.403	124.54
322.932	121.392
324.46	115.45
325.989	120.936
327.518	131.279
329.047	122.893
330.576	116.862
332.104	121.947
333.633	118.699
335.162	115.301
336.691	134.289
338.219	120.716
339.748	120.723
341.277	120.264
342.806	111.367
344.335	127.276
345.863	121.416
347.392	118.569
348.921	122.105
350.45	119.643
351.978	123.163
353.507	115.388
355.036	117.901
356.565	126.17
358.094	116.651
359.622	119.666
361.151	123.391
362.68	117.027
364.209	127.766
365.737	117.554
367.266	114.295
368.795	113.564
370.324	117.421
371.853	117.939
373.381	118.895
374.91	116.415
376.439	119.31
377.968	112.917
379.496	114.8
381.025	106.958
382.554	110.963
384.083	115.648
385.612	117.387
387.14	115.583
388.669	98.2054
390.198	116.671
391.727	112.509
393.255	116.052
394.784	110.899
396.313	107.063
397.842	106.158
399.371	114.988
400.899	110.257
402.428	112.055
403.957	113.128
405.486	109.004
407.014	108.05
408.543	104.504
410.072	109.23
411.601	108.54
413.129	111.937
414.658	103.837
416.187	111.197
417.716	112.078
419.245	110.821
420.773	106.538
422.302	104.187
423.831	103.336
425.36	103.844
426.888	111.264
428.417	106.266
429.946	100.245
431.475	101.122
433.004	109.333
434.532	107.727
436.061	109.199
437.59	110.442
439.119	95.9084
440.647	105.388
442.176	106.128
443.705	104.288
445.234	112.322
446.763	101.687
448.291	107.058
449.82	106.678
451.349	107.542
452.878	107.227
454.406	103.555
455.935	99.5098
457.464	106.352
458.993	107.271
460.522	105.979
462.05	100.226
463.579	102.101
465.108	107.803
466.637	101.427
468.165	113.982
469.694	104.28
471.223	99.7894
472.752	100.708
474.281	100.031
475.809	100.022
477.338	107.185
478.867	96.5131
480.396	96.2027
481.924	108.195
483.453	92.0938
484.982	101.497
486.511	93.6597
488.04	88.3994
489.568	90.5618
491.097	94.3241
492.626	99.7938
494.155	95.0676
495.683	98.7863
497.212	97.8567
498.741	93.2711
500.27	99.3156
501.799	90.7972
503.327	98.2378
504.856	93.5157
506.385	98.1418
507.914	93.2927
509.442	99.1027
510.971	96.1739
512.5	95.0286
514.029	89.9576
515.558	93.4579
517.086	93.6923
518.615	92.3493
520.144	91.588
521.673	92.4342
523.201	88.3132
524.73	90.2204
526.259	90.0925
527.788	82.2883
529.317	92.4881
530.845	92.5108
532.374	94.7132
533.903	97.1858
535.432	96.7412
536.96	91.1541
538.489	95.232
540.018	96.2258
541.547	94.9947
543.076	99.2862
544.604	92.3614
546.133	95.5739
547.662	94.5889
549.191	92.4683
550.719	97.1882
552.248	93.4006
553.777	93.574
555.306	91.8647
556.835	89.7716
558.363	94.0382
559.892	97.1129
561.421	92.49
562.95	98.1576
564.478	96.0395
566.007	86.5601
567.536	96.1658
569.065	94.867
570.594	96.2803
572.122	92.3058
573.651	99.176
575.18	98.983
576.709	102.104
578.237	93.9979
579.766	95.4785
581.295	103.339
582.824	96.0092
584.353	95.6903
585.881	95.66
587.41	104.974
588.939	96.7186
590.468	99.8331
591.996	97.1302
593.525	94.5627
595.054	100.772
596.583	95.0648
598.112	101.085
599.64	95.3521
601.169	99.0034
602.698	99.7067
604.227	94.073
605.755	101.085
607.284	99.3598
608.813	96.3863
610.342	93.6148
611.87	99.5327
613.399	101.006
614.928	97.6887
616.457	100.938
617.986	104.252
619.514	100.886
621.043	105.97
622.572	98.2213
624.101	98.4986
625.63	94.7345
627.158	101.7
628.687	105.488
630.216	103.333
631.745	97.9321
633.273	110.654
634.802	101.828
636.331	97.5897
637.86	108.54
639.388	107.278
640.917	109.333
642.446	96.0748
643.975	95.8334
645.504	103.442
647.032	111.59
648.561	104.82
650.09	105.672
651.619	106.419
653.147	96.2537
654.676	105.451
656.205	110.261
657.734	112.764
659.263	108.892
660.791	110.067
662.32	104.104
663.849	109.426
665.378	110.645
666.906	113.246
668.435	112.262
669.964	106.302
671.493	111.089
673.022	113.155
674.55	103.827
676.079	107.579
677.608	112.864
679.137	119.005
680.665	111.819
682.194	119.538
683.723	117.767
685.252	114.005
686.781	108.837
688.309	113.338
689.838	112.565
691.367	110.613
692.896	119.847
694.424	115.64
695.953	116.143
697.482	117.232
699.011	110.277
700.54	112.235
702.068	115.671
703.597	117.203
705.126	116.181
706.655	112.02
708.183	112.81
709.712	119.6
711.241	120.573
712.77	117.663
714.299	120.189
715.827	115.909
717.356	119.401
718.885	113.998
720.414	125.766
721.942	114.192
723.471	117.131
725	113.938
726.529	128.732
728.058	120.405
729.586	113.541
731.115	124.01
732.644	120.276
734.173	126.774
735.701	118.933
737.23	125.78
738.759	122.265
740.288	127.747
741.817	122.666
743.345	124.474
744.874	126.552
746.403	126.72
747.932	134.722
749.46	135.333
750.989	129.929
752.518	137.397
754.047	126.755
755.576	134.333
757.104	132.999
758.633	132.709
760.162	134.411
761.691	137.131
763.219	128.351
764.748	131.672
766.277	133.815
767.806	132.529
769.335	131.614
770.863	139.84
772.392	141.86
773.921	135.501
775.45	132.881
776.978	130.983
778.507	138.166
780.036	132.494
781.565	141.235
783.094	139.743
784.622	130.011
786.151	132.729
787.68	136.102
789.209	142.29
790.737	146.737
792.266	149.64
793.795	153.031
795.324	138.491
796.853	140.429
798.381	139.334
799.91	140.672
801.439	148.012
802.968	151.606
804.496	150.055
806.025	134.634
807.554	130.374
809.083	138.874
810.612	153.7
812.14	154.623
813.669	146.317
815.198	143.451
816.727	144.339
818.255	158.748
819.784	141.5
821.313	143.634
822.842	151.548
824.37	150.702
825.899	149.92
827.428	156.829
828.957	148.741
830.486	147.708
832.014	147.354
833.543	148.49
835.072	154.874
836.601	155.064
838.13	147.428
839.658	143.464
841.187	149.272
842.716	148.012
844.245	154.075
845.773	149.185
847.302	159.56
848.831	158.172
850.36	154.99
851.888	154.333
853.417	150.437
854.946	159.602
856.475	143.477
858.004	158.853
859.532	155.669
861.061	155.213
862.59	152.359
864.119	149.455
865.647	146.995
867.176	145.237
868.705	148.259
870.234	150.7
871.763	138.108
873.291	145.6
874.82	147.967
876.349	142.101
877.878	140.94
879.406	134.661
880.935	134.233
882.464	132.733
883.993	133.319
885.522	137.457
887.05	130.449
888.579	134.889
890.108	128.224
891.637	129.881
893.165	137.844
894.694	132.201
896.223	128.537
897.752	127.806
899.281	125.983
900.809	126.678
902.338	120.868
903.867	126.166
905.396	123.753
906.924	123.335
908.453	123.659
909.982	123.179
911.511	125.534
913.04	114.778
914.568	120.595
916.097	119.722
917.626	118.774
919.155	111.467
920.683	120.632
922.212	117.122
923.741	117.618
925.27	114.964
926.799	115.718
928.327	107.899
929.856	111.332
931.385	111.465
932.914	112.95
934.442	106.759
935.971	112.345
937.5	111.583
939.029	107.403
940.558	113.921
942.086	111.025
943.615	111.93
945.144	111.7
946.673	120.36
948.201	110.064
949.73	118.307
951.259	110.885
952.788	109.043
954.317	113.471
955.845	113.903
957.374	107.626
958.903	122.693
960.432	107.795
961.96	111.022
963.489	115.858
965.018	114.284
966.547	109.733
968.076	108.68
969.604	113.756
971.133	103.885
972.662	110.597
974.191	118.212
975.719	118.018
977.248	114.904
978.777	114.803
980.306	116.284
981.835	120.088
983.363	122.494
984.892	123.205
986.421	120.321
987.95	125.769
989.478	120.44
991.007	121.043
992.536	115.739
994.065	124.665
995.594	114.305
997.122	110.976
998.651	116.846
1000.18	121.827
1001.71	121.594
1003.24	126.871
1004.77	127.087
1006.29	127.202
1007.82	129.916
1009.35	125.244
1010.88	119.422
1012.41	124.081
1013.94	128.869
1015.47	128.133
1017	131.962
1018.53	131.096
1020.05	126.542
1021.58	136.716
1023.11	133.385
1024.64	139.421
1026.17	146.054
1027.7	139.412
1029.23	141.215
1030.76	141.398
1032.28	134.084
1033.81	132.033
1035.34	149.119
1036.87	151.114
1038.4	147.575
1039.93	139.33
1041.46	151.561
1042.99	150.126
1044.51	146.348
1046.04	152.866
1047.57	149.877
1049.1	142.776
1050.63	148.609
1052.16	153.098
1053.69	156.019
1055.22	156.943
1056.74	159.692
1058.27	159.28
1059.8	154.882
1061.33	154.813
1062.86	149.682
1064.39	159.872
1065.92	158.376
1067.45	151.989
1068.97	150.86
1070.5	152.082
1072.03	150.313
1073.56	162.876
1075.09	160.941
1076.62	159.439
1078.15	156.462
1079.68	157.748
1081.21	156.05
1082.73	158.206
1084.26	166.298
1085.79	165.182
1087.32	163.617
1088.85	169.627
1090.38	167.964
1091.91	165.24
1093.44	168.081
1094.96	163.763
1096.49	166.967
1098.02	164.51
1099.55	170.172
1101.08	180.355
1102.61	165.16
1104.14	172.761
1105.67	175.161
1107.19	180.974
1108.72	187.619
1110.25	175.364
1111.78	181.998
1113.31	176.371
1114.84	191.014
1116.37	182.635
1117.9	180.711
1119.42	184.563
1120.95	187.722
1122.48	192.584
1124.01	178.581
1125.54	188.572
1127.07	181.976
1128.6	187.769
1130.13	191.443
1131.65	192.958
1133.18	197.635
1134.71	194.468
1136.24	194.477
1137.77	187.411
1139.3	211.868
1140.83	201.671
1142.36	213.213
1143.88	212.438
1145.41	188.15
1146.94	219.048
1148.47	214.297
1150	216.998
1151.53	221.108
1153.06	216.812
1154.59	215.832
1156.12	217.805
1157.64	221.577
1159.17	228.651
1160.7	217.62
1162.23	229.715
1163.76	237.408
1165.29	225.791
1166.82	227.079
1168.35	239.179
1169.87	239.173
1171.4	227.049
1172.93	241.969
1174.46	236.725
1175.99	235.779
1177.52	240.885
1179.05	237.717
1180.58	233.992
1182.1	226.732
1183.63	240.416
1185.16	250.149
1186.69	227.394
1188.22	233.314
1189.75	257.799
1191.28	255.272
1192.81	238.965
1194.33	254.437
1195.86	233.468
1197.39	241.253
1198.92	261.884
1200.45	246.281
1201.98	245.365
1203.51	256.162
1205.04	260.112
1206.56	260.311
1208.09	254.556
1209.62	271.359
1211.15	255.941
1212.68	264.524
1214.21	283.912
1215.74	278.678
1217.27	269.442
1218.79	264.558
1220.32	278.691
1221.85	264.912
1223.38	271.028
1224.91	274.927
1226.44	297.828
1227.97	279.922
1229.5	284.823
1231.03	292.802
1232.55	287.578
1234.08	277.217
1235.61	295.891
1237.14	284.508
1238.67	302.312
1240.2	294.873
1241.73	298.455
1243.26	301.439
1244.78	308.91
1246.31	303.083
1247.84	312.638
1249.37	305.008
1250.9	328.872
1252.43	332.931
1253.96	322.887
1255.49	345.274
1257.01	334.897
1258.54	344.648
1260.07	337.46
1261.6	355.644
1263.13	356.911
1264.66	354.132
1266.19	372.154
1267.72	356.52
1269.24	367.785
1270.77	372.515
1272.3	378.687
1273.83	386.066
1275.36	377.964
1276.89	389.752
1278.42	391.739
1279.95	402.44
1281.47	413.861
1283	409.751
1284.53	409.085
1286.06	416.229
1287.59	437.292
1289.12	439.166
1290.65	456.873
1292.18	442.551
1293.71	457.051
1295.23	439.766
1296.76	464.534
1298.29	475.136
1299.82	488.793
1301.35	485.545
1302.88	500.819
1304.41	507.854
1305.94	507.089
1307.46	527.069
1308.99	528.412
1310.52	526.944
1312.05	532.667
1313.58	568.196
1315.11	560.847
1316.64	572.674
1318.17	594.665
1319.69	583.062
1321.22	602.314
1322.75	609.581
1324.28	596.336
1325.81	618.895
1327.34	604.973
1328.87	646.887
1330.4	644.054
1331.92	628.828
1333.45	656.492
1334.98	634.825
1336.51	653.587
1338.04	669.276
1339.57	662.695
1341.1	671.732
1342.63	685.304
1344.15	674.791
1345.68	664.655
1347.21	670.159
1348.74	694.317
1350.27	671.299
1351.8	673
1353.33	687.442
1354.86	678.824
1356.38	664.33
1357.91	642.795
1359.44	647.893
1360.97	647.407
1362.5	657.128
1364.03	648.563
1365.56	660.063
1367.09	609.353
1368.62	645.685
1370.14	629.239
1371.67	584.693
1373.2	602.879
1374.73	591.362
1376.26	577.003
1377.79	563.771
1379.32	575.313
1380.85	551.705
1382.37	531.192
1383.9	555.491
1385.43	544.233
1386.96	532.821
1388.49	527.205
1390.02	508.735
1391.55	513.296
1393.08	502.774
1394.6	492.972
1396.13	494.069
1397.66	494.081
1399.19	486.423
1400.72	466.195
1402.25	471.335
1403.78	480.85
1405.31	445.321
1406.83	454.771
1408.36	445.019
1409.89	450.819
1411.42	446.601
1412.95	434.248
1414.48	427.205
1416.01	421.824
1417.54	433.682
1419.06	424.415
1420.59	419.707
1422.12	410.143
1423.65	417.672
1425.18	428.268
1426.71	407.185
1428.24	415.923
1429.77	406.487
1431.29	400.389
1432.82	404.548
1434.35	411.925
1435.88	397.967
1437.41	397.185
1438.94	373.593
1440.47	399.782
1442	380.094
1443.53	387.002
1445.05	396.336
1446.58	372.475
1448.11	395.93
1449.64	376.078
1451.17	374.903
1452.7	382.09
1454.23	388.227
1455.76	375.965
1457.28	377
1458.81	375.439
1460.34	394.289
1461.87	386.596
1463.4	380.738
1464.93	379.087
1466.46	389.642
1467.99	377.669
1469.51	370.662
1471.04	382.61
1472.57	375.041
1474.1	379.868
1475.63	373.089
1477.16	371.767
1478.69	366.871
1480.22	382.101
1481.74	369.6
1483.27	371.791
1484.8	370.941
1486.33	370.231
1487.86	381.003
1489.39	383.126
1490.92	367.534
1492.45	367.826
1493.97	387.287
1495.5	366.167
1497.03	386.493
1498.56	383.368
1500.09	366.432
1501.62	371.718
1503.15	378.039
1504.68	367.414
1506.21	387.505
1507.73	380.807
1509.26	348.159
1510.79	376.617
1512.32	382.158
1513.85	372.239
1515.38	359.024
1516.91	384.613
1518.44	382.714
1519.96	373.24
1521.49	385.963
1523.02	375.25
1524.55	378.848
1526.08	392.587
1527.61	393.678
1529.14	387.786
1530.67	396.107
1532.19	404.543
1533.72	403.014
1535.25	392.996
1536.78	414.699
1538.31	398.967
1539.84	403.819
1541.37	416.912
1542.9	419.653
1544.42	423.887
1545.95	429.454
1547.48	438.158
1549.01	446.393
1550.54	438.255
1552.07	452.563
1553.6	468.134
1555.13	467.323
1556.65	482.71
1558.18	496.247
1559.71	489.401
1561.24	491.7
1562.77	515.489
1564.3	505.102
1565.83	525.999
1567.36	538.18
1568.88	542.017
1570.41	547.514
1571.94	552.065
1573.47	567.168
1575	572.163
1576.53	592.632
1578.06	610.552
1579.59	619.104
1581.12	626.24
1582.64	628.928
1584.17	659.938
1585.7	655.65
1587.23	665.902
1588.76	663.136
1590.29	669.817
1591.82	686.871
1593.35	698.388
1594.87	705.335
1596.4	691.028
1597.93	696.514
1599.46	693.885
1600.99	702.247
1602.52	696.209
1604.05	695.068
1605.58	670.305
1607.1	679.572
1608.63	656.744
1610.16	658.353
1611.69	650.109
1613.22	608.569
1614.75	611.482
1616.28	596.589
1617.81	573.374
1619.33	569.166
1620.86	552.468
1622.39	537.151
1623.92	513.194
1625.45	499.722
1626.98	480.117
1628.51	460.483
1630.04	444.64
1631.56	426.024
1633.09	400.56
1634.62	397.443
1636.15	379.489
1637.68	365.694
1639.21	352.84
1640.74	337.635
1642.27	324.234
1643.79	314.471
1645.32	294.11
1646.85	294.641
1648.38	275.136
1649.91	264.989
1651.44	265.116
1652.97	247.312
1654.5	246.487
1656.03	229.055
1657.55	221.445
1659.08	220.065
1660.61	204.696
1662.14	198.895
1663.67	194.281
1665.2	185.655
1666.73	180.458
1668.26	174.138
1669.78	165.795
1671.31	167.294
1672.84	160.247
1674.37	147.884
1675.9	145.733
1677.43	143.872
1678.96	137.742
1680.49	125.735
1682.01	132.936
1683.54	124.591
1685.07	121.357
1686.6	117.502
1688.13	116.499
1689.66	111.978
1691.19	110.713
1692.72	111.676
1694.24	104.177
1695.77	107.907
1697.3	104.422
1698.83	101.253
1700.36	99.7585
1701.89	91.719
1703.42	95.1196
1704.95	97.9375
1706.47	95.2182
1708	90.6069
1709.53	85.151
1711.06	90.6161
1712.59	85.7982
1714.12	86.5413
1715.65	87.9875
1717.18	82.39
1718.71	86.1776
1720.23	85.736
1721.76	82.4387
1723.29	81.3446
1724.82	82.2474
1726.35	79.0001
1727.88	77.2093
1729.41	79.91
1730.94	80.7409
1732.46	78.7518
1733.99	82.4228
1735.52	71.6705
1737.05	82.0902
1738.58	74.0966
1740.11	72.9979
1741.64	70.412
1743.17	73.9753
1744.69	74.6842
1746.22	76.8795
1747.75	73.8815
1749.28	80.867
1750.81	72.5592
1752.34	73.9927
1753.87	70.9962
1755.4	71.3822
1756.92	65.9781
1758.45	80.8378
1759.98	69.9965
1761.51	71.758
1763.04	67.5084
1764.57	70.2048
1766.1	67.3479
1767.63	71.0488
1769.15	63.8574
1770.68	65.4838
1772.21	69.666
1773.74	70.3395
1775.27	70.2959
1776.8	65.8113
1778.33	71.6806
1779.86	67.4284
1781.38	66.5488
1782.91	70.7934
1784.44	72.3327
1785.97	67.9618
1787.5	62.5027
1789.03	75.4159
1790.56	63.7509
1792.09	67.3305
1793.62	63.668
1795.14	64.2285
1796.67	70.0689
1798.2	72.6121
1799.73	63.3082
1801.26	73.6108
1802.79	66.8191
1804.32	66.6991
1805.85	69.703
1807.37	66.2057
1808.9	68.4278
1810.43	64.1579
1811.96	64.7325
1813.49	72.1995
1815.02	69.9427
1816.55	63.753
1818.08	65.4451
1819.6	62.6604
1821.13	62.9124
1822.66	68.6186
1824.19	68.5959
1825.72	71.5739
1827.25	60.9858
1828.78	62.4027
1830.31	69.2695
1831.83	59.463
1833.36	62.5585
1834.89	62.8747
1836.42	68.4275
1837.95	65.1803
1839.48	63.3428
1841.01	69.6413
1842.54	64.2415
1844.06	66.6667
1845.59	63.7928
1847.12	64.6161
1848.65	63.5519
1850.18	72.467
1851.71	58.5398
1853.24	67.2714
1854.77	64.1919
1856.29	63.3015
1857.82	55.8974
1859.35	61.3967
1860.88	62.9091
1862.41	66.3255
1863.94	68.5281
1865.47	73.7567
1867	65.1524
1868.53	58.2463
1870.05	66.3427
1871.58	61.1207
1873.11	60.5603
1874.64	73.8656
1876.17	66.3556
1877.7	61.3673
1879.23	61.6563
1880.76	64.5054
1882.28	64.565
1883.81	64.5561
1885.34	67.0469
1886.87	68.2869
1888.4	70.4199
1889.93	62.0042
1891.46	67.2112
1892.99	59.9088
1894.51	60.3647
1896.04	63.2964
1897.57	62.0832
1899.1	64.955
1900.63	63.6551
1902.16	58.8445
1903.69	71.6252
1905.22	65.3541
1906.74	65.421
1908.27	66.8147
1909.8	65.7847
1911.33	63.1606
1912.86	63.3618
1914.39	60.5317
1915.92	65.6299
1917.45	62.9135
1918.97	56.9162
1920.5	64.8374
1922.03	62.2298
1923.56	60.5026
1925.09	64.6766
1926.62	56.7835
1928.15	66.9053
1929.68	70.686
1931.21	65.2917
1932.73	61.3333
1934.26	65.0342
1935.79	63.5467
1937.32	63.1827
1938.85	58.2589
1940.38	68.2556
1941.91	64.9605
1943.44	63.7754
1944.96	63.8849
1946.49	71.6953
1948.02	64.5606
1949.55	59.5433
1951.08	61.4022
1952.61	66.01
1954.14	67.5992
1955.67	65.4755
1957.19	64.8158
1958.72	66.6893
1960.25	60.5751
1961.78	65.4701
1963.31	62.2388
1964.84	64.9288
1966.37	61.1584
1967.9	63.4482
1969.42	65.7284
1970.95	69.8226
1972.48	67.3861
1974.01	59.2395
1975.54	65.2824
1977.07	66.0907
1978.6	65.3504
1980.13	64.1262
1981.65	59.7004
1983.18	72.662
1984.71	64.7394
1986.24	66.8506
1987.77	73.5191
1989.3	64.9415
1990.83	67.7222
1992.36	68.4659
1993.88	70.4231
1995.41	58.4223
1996.94	69.5632
1998.47	65.1576
2000	70.0031