File: Example Data/Raman/CNT - TIM/Raytheon/Al foil/2010/05-13-10/R2-sideA.txt
300	347.428
301.529	363.794
303.058	363.459
304.586	375.731
306.115	350.277
307.644	355.594
309.173	344.629
310.701	364.304
312.23	346.385
313.759	363.844
315.288	355.165
316.817	348.274
318.345	353.223
319.874	347.271
321.403	348.126
322.932	349.81
324.46	353.645
325.989	339.606
327.518	338.961
329.047	356.335
330.576	352.113
332.104	334.239
333.633	338.16
335.162	343.655
336.691	326.007
338.219	355.703
339.748	342.393
341.277	332.927
342.806	340.394
344.335	333.505
345.863	359.316
347.392	339.227
348.921	325.469
350.45	330.738
351.978	320.378
353.507	338.151
355.036	344.352
356.565	343.724
358.094	322.206
359.622	320.667
361.151	317.027
362.68	330.381
364.209	331.35
365.737	327.138
367.266	335.281
368.795	336.076
370.324	326.333
371.853	324.722
373.381	322.081
374.91	314.769
376.439	329.752
377.968	308.146
379.496	327.327
381.025	324.5
382.554	346.478
384.083	319.486
385.612	325.132
387.14	326.333
388.669	322.256
390.198	316.768
391.727	320.45
393.255	311.32
394.784	314.262
396.313	324.504
397.842	328.573
399.371	317.871
400.899	316.287
402.428	312.887
403.957	324.986
405.486	307.945
407.014	312.127
408.543	306.504
410.072	303.333
411.601	312.575
413.129	304.643
414.658	312.069
416.187	311.161
417.716	304.845
419.245	315.05
420.773	301.385
422.302	309.148
423.831	314.456
425.36	295.599
426.888	303.464
428.417	307.932
429.946	319.543
431.475	301.248
433.004	304.77
434.532	312.942
436.061	304.08
437.59	291
439.119	296.564
440.647	288.735
442.176	295.027
443.705	279.878
445.234	290.885
446.763	283.691
448.291	315.055
449.82	293.631
451.349	283.667
452.878	292.853
454.406	292.868
455.935	308.75
457.464	290.235
458.993	284.821
460.522	294.287
462.05	290.526
463.579	282.872
465.108	302.257
466.637	286.651
468.165	286.697
469.694	285.18
471.223	289.665
472.752	291.033
474.281	283.808
475.809	276.946
477.338	277.94
478.867	274.347
480.396	278.988
481.924	285.077
483.453	266.07
484.982	275.5
486.511	259.74
488.04	265.045
489.568	278.908
491.097	273.074
492.626	270.402
494.155	258.749
495.683	264.766
497.212	272.196
498.741	268.499
500.27	267.026
501.799	252.29
503.327	257.493
504.856	253.03
506.385	263.284
507.914	265.271
509.442	254.987
510.971	243.913
512.5	266.137
514.029	262.247
515.558	260.966
517.086	248.272
518.615	256.077
520.144	251.04
521.673	259.671
523.201	252.685
524.73	256.157
526.259	257.734
527.788	238.884
529.317	253.933
530.845	261.461
532.374	244.634
533.903	262.829
535.432	254.626
536.96	254.977
538.489	258.563
540.018	266.494
541.547	249.631
543.076	263.667
544.604	261.347
546.133	260.942
547.662	252.174
549.191	249.913
550.719	262.455
552.248	260.413
553.777	245.193
555.306	262.622
556.835	256.119
558.363	268.162
559.892	251.337
561.421	274.608
562.95	265.207
564.478	263.83
566.007	257.773
567.536	257.405
569.065	261.486
570.594	251.276
572.122	268.207
573.651	272.537
575.18	263.588
576.709	267.461
578.237	262.986
579.766	261.841
581.295	274.536
582.824	268.328
584.353	259.376
585.881	273.976
587.41	281.444
588.939	266.517
590.468	273.364
591.996	262.257
593.525	277.081
595.054	276.386
596.583	276.55
598.112	266.473
599.64	275.657
601.169	267.186
602.698	255.06
604.227	277.562
605.755	270.145
607.284	269.173
608.813	272.221
610.342	266.38
611.87	262.763
613.399	279.607
614.928	276.311
616.457	282.212
617.986	267
619.514	259.343
621.043	263.033
622.572	271.643
624.101	272.196
625.63	260.018
627.158	271.821
628.687	272.241
630.216	265.602
631.745	276.406
633.273	282.323
634.802	275.805
636.331	276.246
637.86	284.936
639.388	279.377
640.917	269.054
642.446	273.558
643.975	277.333
645.504	279.728
647.032	275.99
648.561	281.889
650.09	277.986
651.619	293.636
653.147	285.364
654.676	286.551
656.205	284.775
657.734	303.62
659.263	295.99
660.791	300.661
662.32	300.633
663.849	290.72
665.378	276.235
666.906	284.035
668.435	285.623
669.964	287.31
671.493	287.056
673.022	283.73
674.55	305.751
676.079	287.464
677.608	286.49
679.137	300.15
680.665	289.882
682.194	282.505
683.723	290.436
685.252	279.124
686.781	298.138
688.309	301.717
689.838	305.966
691.367	286.84
692.896	281.324
694.424	286.187
695.953	293.886
697.482	299.787
699.011	289.871
700.54	288.763
702.068	298.786
703.597	295.18
705.126	308.572
706.655	313.956
708.183	297.593
709.712	298.135
711.241	286.058
712.77	305.852
714.299	304.012
715.827	305.957
717.356	301.695
718.885	312.487
720.414	307.859
721.942	312.43
723.471	324.271
725	308.873
726.529	322.512
728.058	311.124
729.586	320.351
731.115	328.089
732.644	328.635
734.173	324.049
735.701	317.188
737.23	314.739
738.759	321.748
740.288	326.185
741.817	317.406
743.345	311.434
744.874	330.423
746.403	315.019
747.932	334.972
749.46	325.001
750.989	324.694
752.518	335.666
754.047	326.84
755.576	343.302
757.104	331.088
758.633	340.796
760.162	330.184
761.691	329.85
763.219	354.409
764.748	334.497
766.277	339.99
767.806	331.719
769.335	341.051
770.863	339.257
772.392	356.057
773.921	359.726
775.45	343.12
776.978	364.313
778.507	340.668
780.036	343.321
781.565	339.412
783.094	346.726
784.622	350.659
786.151	349.172
787.68	356.483
789.209	354.131
790.737	363.369
792.266	346.184
793.795	348.496
795.324	364.464
796.853	362.096
798.381	362.324
799.91	367.984
801.439	364.615
802.968	362.487
804.496	358.167
806.025	370.667
807.554	348.687
809.083	354.354
810.612	354.111
812.14	368.997
813.669	370.447
815.198	368.7
816.727	377.917
818.255	370.167
819.784	359.411
821.313	376.366
822.842	372.239
824.37	385.349
825.899	360.385
827.428	377.192
828.957	380.852
830.486	392.139
832.014	369.292
833.543	381.352
835.072	379.55
836.601	391.997
838.13	385.529
839.658	380.204
841.187	401.155
842.716	378.683
844.245	398.12
845.773	397.652
847.302	379.473
848.831	386.415
850.36	367.544
851.888	392.556
853.417	383.714
854.946	400.322
856.475	389.211
858.004	403.413
859.532	393.965
861.061	363.548
862.59	366.176
864.119	368.362
865.647	377.482
867.176	368.589
868.705	360.19
870.234	355.033
871.763	368.677
873.291	355.649
874.82	349.985
876.349	349.242
877.878	353.49
879.406	344.505
880.935	329.178
882.464	348.195
883.993	348.516
885.522	350.497
887.05	339.646
888.579	329.156
890.108	335.434
891.637	333.213
893.165	331.773
894.694	328.747
896.223	339.902
897.752	335.224
899.281	326.078
900.809	320.223
902.338	325.07
903.867	322.157
905.396	316.729
906.924	324.181
908.453	315.529
909.982	314.731
911.511	329.467
913.04	313.323
914.568	310.389
916.097	314.966
917.626	317.502
919.155	302.709
920.683	309.302
922.212	323.397
923.741	307.787
925.27	326.031
926.799	295.875
928.327	307.897
929.856	309.935
931.385	305.127
932.914	312.929
934.442	295.513
935.971	303.818
937.5	296.428
939.029	304.941
940.558	308.08
942.086	304.054
943.615	299.632
945.144	301.499
946.673	305.426
948.201	305.044
949.73	304.737
951.259	308.168
952.788	320.262
954.317	304.647
955.845	318.492
957.374	305.466
958.903	308.223
960.432	308.634
961.96	310.462
963.489	299.078
965.018	306.73
966.547	302.867
968.076	303.279
969.604	309.062
971.133	315.848
972.662	312.977
974.191	319.004
975.719	306.32
977.248	316.088
978.777	295.138
980.306	318.947
981.835	326.165
983.363	318.333
984.892	319.866
986.421	309.995
987.95	310.079
989.478	315.922
991.007	325.045
992.536	301.826
994.065	320.56
995.594	341.102
997.122	329.357
998.651	333.899
1000.18	338.72
1001.71	327.694
1003.24	336.814
1004.77	328.715
1006.29	341.675
1007.82	338.419
1009.35	342.117
1010.88	355.572
1012.41	346.248
1013.94	350.567
1015.47	360.735
1017	349.478
1018.53	368.717
1020.05	357.307
1021.58	368.325
1023.11	354.59
1024.64	364.788
1026.17	369.557
1027.7	371.555
1029.23	374.02
1030.76	392.846
1032.28	388.144
1033.81	373.905
1035.34	384.419
1036.87	380.362
1038.4	383.311
1039.93	413.568
1041.46	395.602
1042.99	398.54
1044.51	405.115
1046.04	403.937
1047.57	403.639
1049.1	405.63
1050.63	402.746
1052.16	393.902
1053.69	403.301
1055.22	397.836
1056.74	413.421
1058.27	400.668
1059.8	415.966
1061.33	416.907
1062.86	405.581
1064.39	407.946
1065.92	422.578
1067.45	405.147
1068.97	423.064
1070.5	422.902
1072.03	413.502
1073.56	425.224
1075.09	425.575
1076.62	427.664
1078.15	417.789
1079.68	426.582
1081.21	423.052
1082.73	434.075
1084.26	427.495
1085.79	435.858
1087.32	435.368
1088.85	436.774
1090.38	441.482
1091.91	445.696
1093.44	446.842
1094.96	442.831
1096.49	444.895
1098.02	451.076
1099.55	454.377
1101.08	452.056
1102.61	446.528
1104.14	455.766
1105.67	444.898
1107.19	470.823
1108.72	457.166
1110.25	451.816
1111.78	463.149
1113.31	465.159
1114.84	462.534
1116.37	453.562
1117.9	473.881
1119.42	470.491
1120.95	492.313
1122.48	480.018
1124.01	483.607
1125.54	485.106
1127.07	485.255
1128.6	471.545
1130.13	473.894
1131.65	485.992
1133.18	485.94
1134.71	494.596
1136.24	479.604
1137.77	505.901
1139.3	489.578
1140.83	508.901
1142.36	498.634
1143.88	492.32
1145.41	503.736
1146.94	511.693
1148.47	533.247
1150	521.606
1151.53	526.569
1153.06	520.622
1154.59	517.285
1156.12	543.066
1157.64	526.268
1159.17	540.517
1160.7	541.979
1162.23	536.03
1163.76	536.016
1165.29	531.318
1166.82	546.909
1168.35	550.955
1169.87	553.498
1171.4	543.339
1172.93	562.76
1174.46	545.216
1175.99	578.532
1177.52	559.315
1179.05	562.608
1180.58	583.555
1182.1	591.892
1183.63	566.008
1185.16	571.966
1186.69	576.052
1188.22	562.113
1189.75	599.069
1191.28	588.879
1192.81	590.539
1194.33	582.795
1195.86	586.577
1197.39	607.582
1198.92	612.165
1200.45	612.656
1201.98	610.094
1203.51	617.551
1205.04	631.607
1206.56	639.266
1208.09	632.414
1209.62	640.692
1211.15	632.933
1212.68	643.762
1214.21	656.976
1215.74	647.01
1217.27	640.87
1218.79	655.982
1220.32	657.169
1221.85	669.704
1223.38	658.952
1224.91	693.727
1226.44	693.157
1227.97	679.59
1229.5	684.893
1231.03	691.662
1232.55	696.281
1234.08	720.081
1235.61	726.791
1237.14	724.961
1238.67	748.557
1240.2	753.004
1241.73	750.416
1243.26	757.577
1244.78	771.822
1246.31	775.585
1247.84	782.424
1249.37	792.06
1250.9	793.882
1252.43	805.603
1253.96	815.328
1255.49	817.805
1257.01	822.213
1258.54	838.746
1260.07	853.907
1261.6	853.199
1263.13	868.875
1264.66	883.159
1266.19	899.731
1267.72	900.576
1269.24	913.937
1270.77	921.559
1272.3	936.611
1273.83	948.662
1275.36	969.054
1276.89	965.146
1278.42	991.894
1279.95	999.003
1281.47	1018.72
1283	1022.88
1284.53	1035.18
1286.06	1052.42
1287.59	1091.63
1289.12	1082.88
1290.65	1110.05
1292.18	1128.25
1293.71	1151.23
1295.23	1173.23
1296.76	1215.22
1298.29	1226.18
1299.82	1234.92
1301.35	1265.27
1302.88	1302.09
1304.41	1310.18
1305.94	1324.68
1307.46	1356.04
1308.99	1379.89
1310.52	1416.63
1312.05	1474.42
1313.58	1509.41
1315.11	1528.8
1316.64	1552.88
1318.17	1561.65
1319.69	1584.27
1321.22	1606.13
1322.75	1631.59
1324.28	1679.99
1325.81	1740.91
1327.34	1751.92
1328.87	1792.61
1330.4	1770.13
1331.92	1819.47
1333.45	1858.5
1334.98	1862.02
1336.51	1864.41
1338.04	1882.52
1339.57	1908.72
1341.1	1893.07
1342.63	1885.45
1344.15	1901.12
1345.68	1904.14
1347.21	1883.24
1348.74	1868.11
1350.27	1844.6
1351.8	1811.57
1353.33	1813.62
1354.86	1829.65
1356.38	1784.53
1357.91	1744.46
1359.44	1746.6
1360.97	1737.8
1362.5	1715.35
1364.03	1658.03
1365.56	1672.62
1367.09	1630.31
1368.62	1592.84
1370.14	1559.33
1371.67	1504.37
1373.2	1484.21
1374.73	1478.94
1376.26	1454.51
1377.79	1414.93
1379.32	1385.29
1380.85	1373.22
1382.37	1363.29
1383.9	1335.92
1385.43	1316.57
1386.96	1310.98
1388.49	1288.69
1390.02	1248.4
1391.55	1228.59
1393.08	1204.17
1394.6	1229.07
1396.13	1217.28
1397.66	1189.93
1399.19	1173.02
1400.72	1135.95
1402.25	1154.58
1403.78	1114.89
1405.31	1112.9
1406.83	1116.08
1408.36	1112.41
1409.89	1076.44
1411.42	1046.27
1412.95	1044.25
1414.48	1063.69
1416.01	1023.81
1417.54	1043.31
1419.06	1018.76
1420.59	1008.62
1422.12	1014.55
1423.65	981.875
1425.18	972.785
1426.71	992.711
1428.24	994.983
1429.77	965.549
1431.29	970.055
1432.82	977.521
1434.35	953.844
1435.88	969.761
1437.41	966.518
1438.94	927.337
1440.47	949.975
1442	934.799
1443.53	935.969
1445.05	947.898
1446.58	938.401
1448.11	922.438
1449.64	935.068
1451.17	936.157
1452.7	949.73
1454.23	926.87
1455.76	922.783
1457.28	904.025
1458.81	924.199
1460.34	924.665
1461.87	919.632
1463.4	944.972
1464.93	937.001
1466.46	925.65
1467.99	921.316
1469.51	961.506
1471.04	944.862
1472.57	947.955
1474.1	948.896
1475.63	936.087
1477.16	930.105
1478.69	935.435
1480.22	930.714
1481.74	931.397
1483.27	924.153
1484.8	937.601
1486.33	925.194
1487.86	945.116
1489.39	928.205
1490.92	935.962
1492.45	955.139
1493.97	926.671
1495.5	958.708
1497.03	942.984
1498.56	949.832
1500.09	940.446
1501.62	937.053
1503.15	938.041
1504.68	937.571
1506.21	962.286
1507.73	945.159
1509.26	968.779
1510.79	978.56
1512.32	973.99
1513.85	997.562
1515.38	1009.21
1516.91	971.236
1518.44	999.08
1519.96	975.117
1521.49	997.538
1523.02	1016.05
1524.55	1025
1526.08	1064.61
1527.61	1072.53
1529.14	1089.88
1530.67	1080
1532.19	1093.44
1533.72	1102.46
1535.25	1134.43
1536.78	1134.21
1538.31	1176.33
1539.84	1189.86
1541.37	1209.11
1542.9	1209.38
1544.42	1256.42
1545.95	1292.81
1547.48	1291.89
1549.01	1331.44
1550.54	1369.71
1552.07	1410.94
1553.6	1456.92
1555.13	1495.69
1556.65	1508.43
1558.18	1562.93
1559.71	1581.88
1561.24	1593.27
1562.77	1613.25
1564.3	1660.33
1565.83	1687
1567.36	1713.71
1568.88	1758.97
1570.41	1799.56
1571.94	1828.4
1573.47	1864.86
1575	1874.47
1576.53	1894.94
1578.06	1961.78
1579.59	1929.42
1581.12	1969.66
1582.64	1967.93
1584.17	1989.52
1585.7	2004.09
1587.23	1996.45
1588.76	1991.65
1590.29	1977.54
1591.82	1966.54
1593.35	1941.01
1594.87	1957.68
1596.4	1919.88
1597.93	1896.29
1599.46	1880.21
1600.99	1878.35
1602.52	1837.75
1604.05	1822.04
1605.58	1782.31
1607.1	1754.7
1608.63	1725.82
1610.16	1663
1611.69	1593.62
1613.22	1594.81
1614.75	1539.63
1616.28	1487.62
1617.81	1441.18
1619.33	1422.61
1620.86	1360.28
1622.39	1324.11
1623.92	1260.04
1625.45	1223.52
1626.98	1189.39
1628.51	1137.29
1630.04	1107.5
1631.56	1057.48
1633.09	1007.36
1634.62	966.085
1636.15	937.744
1637.68	893.173
1639.21	841.783
1640.74	806.031
1642.27	791.424
1643.79	750.951
1645.32	745.626
1646.85	709.819
1648.38	665.708
1649.91	658.057
1651.44	621.971
1652.97	598.857
1654.5	575.806
1656.03	559.919
1657.55	540.334
1659.08	529.022
1660.61	497.413
1662.14	484.725
1663.67	462.472
1665.2	455.939
1666.73	432.482
1668.26	422.651
1669.78	399.824
1671.31	403.36
1672.84	393.656
1674.37	378.269
1675.9	358.072
1677.43	371.903
1678.96	356.427
1680.49	344.639
1682.01	336.627
1683.54	324.999
1685.07	309.656
1686.6	313.901
1688.13	308.707
1689.66	309.775
1691.19	310.25
1692.72	286.069
1694.24	288.773
1695.77	279.575
1697.3	278.537
1698.83	275.841
1700.36	278.332
1701.89	271.061
1703.42	266.836
1704.95	267.031
1706.47	255.892
1708	252.77
1709.53	257.773
1711.06	245.74
1712.59	248.719
1714.12	240.131
1715.65	246.828
1717.18	250.164
1718.71	248.161
1720.23	234.508
1721.76	236.285
1723.29	234.855
1724.82	236.22
1726.35	221.991
1727.88	230.854
1729.41	236.373
1730.94	232.516
1732.46	235.129
1733.99	224.562
1735.52	229.846
1737.05	226.767
1738.58	222.153
1740.11	223.459
1741.64	217.775
1743.17	220.516
1744.69	220.636
1746.22	207.609
1747.75	215.435
1749.28	221.168
1750.81	219.718
1752.34	215.729
1753.87	225.345
1755.4	207.692
1756.92	223.74
1758.45	195.749
1759.98	208.176
1761.51	210.767
1763.04	218.565
1764.57	205.678
1766.1	204.425
1767.63	216.268
1769.15	208.267
1770.68	206.829
1772.21	212.774
1773.74	207.116
1775.27	211.06
1776.8	197.472
1778.33	206.113
1779.86	202.59
1781.38	201.738
1782.91	206.196
1784.44	211.329
1785.97	196.052
1787.5	202.437
1789.03	209.981
1790.56	197.511
1792.09	210.098
1793.62	207.981
1795.14	197.091
1796.67	194.149
1798.2	200.823
1799.73	197.57
1801.26	195.069
1802.79	196.309
1804.32	193.728
1805.85	200.331
1807.37	193.634
1808.9	196.239
1810.43	198.392
1811.96	194.295
1813.49	188.465
1815.02	189.434
1816.55	202.307
1818.08	205.331
1819.6	193.676
1821.13	199.479
1822.66	191.908
1824.19	198.382
1825.72	201.784
1827.25	183.881
1828.78	190.722
1830.31	196.671
1831.83	189.835
1833.36	188.634
1834.89	203.759
1836.42	190.282
1837.95	176.713
1839.48	194.705
1841.01	196.412
1842.54	186.677
1844.06	188.4
1845.59	197.521
1847.12	200.495
1848.65	186.051
1850.18	198.935
1851.71	193.301
1853.24	188.997
1854.77	200.792
1856.29	184.778
1857.82	190.948
1859.35	196.973
1860.88	195.452
1862.41	195.806
1863.94	182.21
1865.47	196.157
1867	198.171
1868.53	191.314
1870.05	197.249
1871.58	185.307
1873.11	188.333
1874.64	195.052
1876.17	186.163
1877.7	195.805
1879.23	183.946
1880.76	193.619
1882.28	192.353
1883.81	191.568
1885.34	204.801
1886.87	198.122
1888.4	188.41
1889.93	190.769
1891.46	191.917
1892.99	184.685
1894.51	184.729
1896.04	190.568
1897.57	197.78
1899.1	188.724
1900.63	185.127
1902.16	193.196
1903.69	194.402
1905.22	187.719
1906.74	194.298
1908.27	187.093
1909.8	194.612
1911.33	188.563
1912.86	191.057
1914.39	194.916
1915.92	187.388
1917.45	182.418
1918.97	195.626
1920.5	190.742
1922.03	198.247
1923.56	184.931
1925.09	185.829
1926.62	190.584
1928.15	188.548
1929.68	186.584
1931.21	196.517
1932.73	189.301
1934.26	196.218
1935.79	182.792
1937.32	190.936
1938.85	174.798
1940.38	186.826
1941.91	187.353
1943.44	192.809
1944.96	199.04
1946.49	185.552
1948.02	195.416
1949.55	198.862
1951.08	194.68
1952.61	199.674
1954.14	184.981
1955.67	194.123
1957.19	189.454
1958.72	196.344
1960.25	198.155
1961.78	185.234
1963.31	180.632
1964.84	177.997
1966.37	199.253
1967.9	188.879
1969.42	175.72
1970.95	198.61
1972.48	187.801
1974.01	185.693
1975.54	187.994
1977.07	183.609
1978.6	181.016
1980.13	191.108
1981.65	184.25
1983.18	190.655
1984.71	193.185
1986.24	183.945
1987.77	181.821
1989.3	191.081
1990.83	194.057
1992.36	180.674
1993.88	188.974
1995.41	183.583
1996.94	180.205
1998.47	191.491
2000	182.492