File: Example Data/Raman/CNT - TIM/Raytheon/Al foil/2010/05-13-10/R3-sideA.txt
300	167.773
301.529	165.392
303.058	172.894
304.586	176.547
306.115	170.623
307.644	173.493
309.173	177.086
310.701	174.426
312.23	165.521
313.759	172.843
315.288	169.162
316.817	157.212
318.345	164.477
319.874	166.27
321.403	173.425
322.932	174.045
324.46	167.099
325.989	162.71
327.518	166.391
329.047	166.821
330.576	158.302
332.104	160.059
333.633	169.449
335.162	166.605
336.691	176.727
338.219	161.909
339.748	160.627
341.277	168.733
342.806	175.307
344.335	159.349
345.863	164.558
347.392	161.3
348.921	172.752
350.45	166.619
351.978	153
353.507	166.58
355.036	159.907
356.565	162.555
358.094	158.5
359.622	167.833
361.151	157.571
362.68	162.414
364.209	160.054
365.737	147.67
367.266	155.263
368.795	157.926
370.324	156.119
371.853	156.776
373.381	154.035
374.91	153.187
376.439	148.068
377.968	156.125
379.496	160.656
381.025	164.625
382.554	159.692
384.083	157.452
385.612	150.736
387.14	147.671
388.669	148.968
390.198	146.736
391.727	152.124
393.255	151.961
394.784	147.089
396.313	148.773
397.842	149
399.371	154.6
400.899	150.315
402.428	139.297
403.957	145.846
405.486	143.784
407.014	147.565
408.543	140.316
410.072	149.622
411.601	143.495
413.129	154.84
414.658	136.666
416.187	159.823
417.716	148.927
419.245	144.575
420.773	147.177
422.302	159.146
423.831	143.699
425.36	147.192
426.888	144.221
428.417	152.821
429.946	139.194
431.475	139.696
433.004	150.285
434.532	137.191
436.061	144.608
437.59	131.203
439.119	133.826
440.647	131.655
442.176	144.242
443.705	138.288
445.234	134.368
446.763	144.871
448.291	148.51
449.82	139.49
451.349	133.796
452.878	146.938
454.406	143.667
455.935	145.51
457.464	134.721
458.993	141.939
460.522	147.977
462.05	138.16
463.579	142.383
465.108	127.124
466.637	144.514
468.165	137.542
469.694	134.503
471.223	138.121
472.752	135.185
474.281	141.439
475.809	133.207
477.338	138.755
478.867	135.883
480.396	143.725
481.924	137.259
483.453	142.473
484.982	126.833
486.511	136.773
488.04	130.203
489.568	131.922
491.097	128.62
492.626	125.347
494.155	139.113
495.683	135.474
497.212	121.994
498.741	124.036
500.27	130.838
501.799	127.565
503.327	129.447
504.856	118.247
506.385	127.147
507.914	122.065
509.442	131.268
510.971	125.203
512.5	132.622
514.029	120.29
515.558	120.346
517.086	119.771
518.615	128.622
520.144	122.107
521.673	135.794
523.201	123.097
524.73	125.579
526.259	124.599
527.788	117.797
529.317	126.219
530.845	119.787
532.374	117.465
533.903	132.837
535.432	124.906
536.96	119.918
538.489	127.3
540.018	130.703
541.547	126.818
543.076	117.858
544.604	118.663
546.133	129.172
547.662	119.081
549.191	127.301
550.719	120.055
552.248	127.814
553.777	127.62
555.306	120.423
556.835	127.635
558.363	114.284
559.892	125.039
561.421	112.512
562.95	125.541
564.478	119.678
566.007	124.202
567.536	130.234
569.065	116.003
570.594	120.158
572.122	121.913
573.651	132.636
575.18	117.036
576.709	134.046
578.237	121.009
579.766	126.71
581.295	119.912
582.824	128.066
584.353	127.227
585.881	134.231
587.41	118.184
588.939	124.248
590.468	123.853
591.996	123.685
593.525	128.69
595.054	126.544
596.583	128.133
598.112	131.285
599.64	138.283
601.169	131.243
602.698	123.527
604.227	142.646
605.755	135.074
607.284	128.841
608.813	127.166
610.342	135.905
611.87	126.333
613.399	139.33
614.928	133.029
616.457	125.944
617.986	123.455
619.514	130.259
621.043	134.582
622.572	130.31
624.101	132.78
625.63	126.832
627.158	130.544
628.687	134.261
630.216	139.18
631.745	133.773
633.273	142.659
634.802	139.302
636.331	139.751
637.86	137.142
639.388	136.022
640.917	133.264
642.446	131.495
643.975	128.1
645.504	143.814
647.032	137.766
648.561	135.428
650.09	142.667
651.619	145.313
653.147	139.69
654.676	130.593
656.205	139.01
657.734	145.75
659.263	138.175
660.791	134.654
662.32	135.115
663.849	146.665
665.378	139.71
666.906	140.677
668.435	147.878
669.964	145.799
671.493	146.387
673.022	146.197
674.55	125.46
676.079	134.13
677.608	141.989
679.137	141.754
680.665	136.152
682.194	150.581
683.723	152.132
685.252	134.295
686.781	147.365
688.309	140.717
689.838	151.816
691.367	145.5
692.896	150.672
694.424	157.51
695.953	146.457
697.482	142.979
699.011	138.711
700.54	148.627
702.068	146.241
703.597	153.765
705.126	147.711
706.655	143.504
708.183	138.646
709.712	141.732
711.241	142.103
712.77	148.294
714.299	148.069
715.827	145.129
717.356	155.631
718.885	141.297
720.414	151.137
721.942	152.378
723.471	150.716
725	152.883
726.529	153.08
728.058	141.298
729.586	150.749
731.115	145.865
732.644	160.866
734.173	156.093
735.701	161.957
737.23	153.089
738.759	172.068
740.288	158.546
741.817	157.189
743.345	154.159
744.874	165.799
746.403	161.023
747.932	157.639
749.46	165
750.989	152.951
752.518	156.079
754.047	157.975
755.576	151.463
757.104	171.402
758.633	159.697
760.162	151.257
761.691	159.273
763.219	163.333
764.748	163.31
766.277	154.608
767.806	169.991
769.335	166.773
770.863	161.506
772.392	171.171
773.921	169.909
775.45	165.031
776.978	168.385
778.507	178.588
780.036	160.517
781.565	172.826
783.094	167.001
784.622	169.872
786.151	176.147
787.68	168.092
789.209	177.42
790.737	167.716
792.266	167.554
793.795	170.308
795.324	174.237
796.853	169.572
798.381	168.343
799.91	170.502
801.439	176.881
802.968	181.342
804.496	171.981
806.025	180.819
807.554	171.354
809.083	183.248
810.612	169.751
812.14	172.227
813.669	180.704
815.198	184.792
816.727	187.203
818.255	179.502
819.784	173.07
821.313	187.633
822.842	173.389
824.37	176.893
825.899	185.333
827.428	179.118
828.957	183.815
830.486	186.486
832.014	183.852
833.543	187.638
835.072	180.342
836.601	188.569
838.13	187.333
839.658	184.583
841.187	178.503
842.716	187.274
844.245	193.138
845.773	183.2
847.302	184.551
848.831	183.403
850.36	182.659
851.888	181.965
853.417	189.142
854.946	185.388
856.475	190
858.004	188.32
859.532	183.906
861.061	183.577
862.59	189.721
864.119	188.144
865.647	181.133
867.176	179.026
868.705	175.021
870.234	168.366
871.763	166.156
873.291	174.112
874.82	172.099
876.349	172.408
877.878	167.872
879.406	173.58
880.935	163.608
882.464	164.449
883.993	161.604
885.522	168.258
887.05	158.292
888.579	161.418
890.108	157.486
891.637	155.691
893.165	156.142
894.694	150.705
896.223	165.537
897.752	158.328
899.281	153.74
900.809	155.582
902.338	154.984
903.867	157.638
905.396	160.037
906.924	155.404
908.453	152.55
909.982	162.592
911.511	144.456
913.04	153.909
914.568	155.682
916.097	150.125
917.626	158.01
919.155	144.986
920.683	155.713
922.212	143.922
923.741	141.206
925.27	156.948
926.799	151.802
928.327	147.106
929.856	145.385
931.385	154.089
932.914	146.872
934.442	141.646
935.971	150.661
937.5	151.589
939.029	137.631
940.558	143.587
942.086	146.523
943.615	147.794
945.144	144.333
946.673	140.734
948.201	154.458
949.73	148.285
951.259	141.26
952.788	151.333
954.317	149.518
955.845	141.293
957.374	146.967
958.903	142.869
960.432	147.311
961.96	139.579
963.489	151.334
965.018	148.365
966.547	153.933
968.076	146.087
969.604	162.506
971.133	152.727
972.662	147.422
974.191	149.275
975.719	150.651
977.248	154.395
978.777	151.117
980.306	158.071
981.835	154.566
983.363	149.638
984.892	157.326
986.421	148.839
987.95	141.807
989.478	143.708
991.007	168.562
992.536	159.62
994.065	158.57
995.594	152.369
997.122	159.06
998.651	149.51
1000.18	167.54
1001.71	164.043
1003.24	161.203
1004.77	165.786
1006.29	171.892
1007.82	174.778
1009.35	154.601
1010.88	172.765
1012.41	178.819
1013.94	167.598
1015.47	160.266
1017	174.258
1018.53	177.29
1020.05	180.041
1021.58	167.37
1023.11	167.872
1024.64	181.872
1026.17	171.554
1027.7	183.314
1029.23	185.278
1030.76	175.095
1032.28	197.54
1033.81	183.019
1035.34	191.562
1036.87	193.532
1038.4	182.841
1039.93	200.309
1041.46	199.315
1042.99	193.33
1044.51	190.376
1046.04	192.531
1047.57	199.095
1049.1	190.032
1050.63	188.434
1052.16	188.177
1053.69	195.491
1055.22	190.034
1056.74	205.747
1058.27	191.606
1059.8	204.618
1061.33	194.679
1062.86	198.255
1064.39	204.548
1065.92	194.94
1067.45	208.384
1068.97	205.279
1070.5	198.01
1072.03	193.975
1073.56	200.996
1075.09	205.214
1076.62	207.897
1078.15	204.884
1079.68	213.164
1081.21	219.616
1082.73	207.781
1084.26	215.427
1085.79	222.756
1087.32	214.025
1088.85	214.376
1090.38	208.628
1091.91	210.675
1093.44	218.699
1094.96	212.215
1096.49	221.69
1098.02	226.861
1099.55	214.126
1101.08	230.371
1102.61	225.037
1104.14	226.962
1105.67	229.578
1107.19	225.758
1108.72	237.749
1110.25	227.069
1111.78	223.14
1113.31	229.801
1114.84	229.554
1116.37	239.939
1117.9	235.635
1119.42	245.721
1120.95	240.083
1122.48	238.713
1124.01	244.589
1125.54	236.041
1127.07	241.681
1128.6	243.719
1130.13	238.378
1131.65	234.482
1133.18	258.196
1134.71	260.146
1136.24	262.757
1137.77	256.582
1139.3	247.231
1140.83	268.673
1142.36	255.104
1143.88	258.849
1145.41	258.368
1146.94	261.026
1148.47	271.869
1150	279.198
1151.53	294.213
1153.06	288.883
1154.59	287.715
1156.12	278.112
1157.64	284.413
1159.17	271.275
1160.7	276.063
1162.23	282.144
1163.76	272.965
1165.29	291.434
1166.82	291.442
1168.35	287.461
1169.87	293.317
1171.4	285.887
1172.93	296.878
1174.46	289.933
1175.99	306.21
1177.52	297.689
1179.05	298.254
1180.58	305.22
1182.1	292.484
1183.63	299.394
1185.16	303.365
1186.69	307.281
1188.22	299.066
1189.75	310.043
1191.28	314.732
1192.81	310.678
1194.33	299.871
1195.86	301.52
1197.39	312.774
1198.92	326.62
1200.45	305.063
1201.98	332.649
1203.51	324.46
1205.04	325.363
1206.56	325.215
1208.09	329.273
1209.62	328.41
1211.15	326.667
1212.68	340.668
1214.21	348.263
1215.74	345.168
1217.27	357.217
1218.79	346.59
1220.32	354.466
1221.85	356.9
1223.38	356.981
1224.91	350.442
1226.44	375.645
1227.97	375.728
1229.5	367.163
1231.03	386.25
1232.55	385.679
1234.08	380.667
1235.61	386.705
1237.14	381.328
1238.67	392.695
1240.2	388.083
1241.73	377.62
1243.26	392.513
1244.78	400.35
1246.31	399.772
1247.84	416.647
1249.37	423.403
1250.9	425.768
1252.43	423.79
1253.96	431.044
1255.49	437.991
1257.01	442.636
1258.54	438.531
1260.07	449.519
1261.6	453.689
1263.13	457.264
1264.66	468.736
1266.19	471.595
1267.72	487.041
1269.24	483.588
1270.77	501.318
1272.3	497.384
1273.83	498.814
1275.36	515.82
1276.89	503.695
1278.42	505.209
1279.95	519.571
1281.47	541.205
1283	544.38
1284.53	548.989
1286.06	565.909
1287.59	571.973
1289.12	577.688
1290.65	595.608
1292.18	583.565
1293.71	605.221
1295.23	606.972
1296.76	643.078
1298.29	636.917
1299.82	644.13
1301.35	684.142
1302.88	672.897
1304.41	680.347
1305.94	714.99
1307.46	709.408
1308.99	728.659
1310.52	729.667
1312.05	751.085
1313.58	733.224
1315.11	767.39
1316.64	789.864
1318.17	787.991
1319.69	807.664
1321.22	809.648
1322.75	830.86
1324.28	832.287
1325.81	826.647
1327.34	875.386
1328.87	887.935
1330.4	875.378
1331.92	900.283
1333.45	887.326
1334.98	885.022
1336.51	926.579
1338.04	902.114
1339.57	912.487
1341.1	934.745
1342.63	944.557
1344.15	938.849
1345.68	930.996
1347.21	928.076
1348.74	923.176
1350.27	929.254
1351.8	922.497
1353.33	924.983
1354.86	891.482
1356.38	903.152
1357.91	871.81
1359.44	881.7
1360.97	872.77
1362.5	871.886
1364.03	843.334
1365.56	829.338
1367.09	821.329
1368.62	827.383
1370.14	827.226
1371.67	790.933
1373.2	795.366
1374.73	761.778
1376.26	763.09
1377.79	763.718
1379.32	725.735
1380.85	742.49
1382.37	728.673
1383.9	731.379
1385.43	704.155
1386.96	692.075
1388.49	690.924
1390.02	662.868
1391.55	671.718
1393.08	651.227
1394.6	640.842
1396.13	628.831
1397.66	659.838
1399.19	632.085
1400.72	610.834
1402.25	607.269
1403.78	601.349
1405.31	588.448
1406.83	580.332
1408.36	579.333
1409.89	586.006
1411.42	574.134
1412.95	568.754
1414.48	550.772
1416.01	550.511
1417.54	555.083
1419.06	552.04
1420.59	533.717
1422.12	523.998
1423.65	530.978
1425.18	512.734
1426.71	527.172
1428.24	522.834
1429.77	513.004
1431.29	542.862
1432.82	509.54
1434.35	512.22
1435.88	509.573
1437.41	501.962
1438.94	503.805
1440.47	504.518
1442	509.506
1443.53	511.43
1445.05	489.374
1446.58	475.331
1448.11	480.843
1449.64	476.227
1451.17	505.873
1452.7	488.385
1454.23	483.574
1455.76	498.839
1457.28	466.536
1458.81	484.11
1460.34	482.262
1461.87	474.372
1463.4	480.617
1464.93	490.555
1466.46	477.367
1467.99	493.517
1469.51	475.827
1471.04	479.495
1472.57	458.01
1474.1	465.736
1475.63	466.496
1477.16	469.176
1478.69	468.862
1480.22	456.926
1481.74	484.383
1483.27	480.883
1484.8	465.441
1486.33	487.349
1487.86	487.312
1489.39	464.472
1490.92	487.081
1492.45	481.543
1493.97	465.497
1495.5	471.779
1497.03	482.263
1498.56	486.667
1500.09	497.785
1501.62	474.59
1503.15	478.657
1504.68	477.074
1506.21	468.422
1507.73	496.826
1509.26	492.241
1510.79	501.154
1512.32	479.7
1513.85	479.963
1515.38	489.417
1516.91	492.939
1518.44	494.496
1519.96	495.463
1521.49	517.363
1523.02	493.185
1524.55	514.246
1526.08	506.851
1527.61	516.861
1529.14	522.129
1530.67	511.298
1532.19	544.161
1533.72	526.194
1535.25	537.169
1536.78	544.871
1538.31	539.781
1539.84	552.946
1541.37	543.917
1542.9	573.362
1544.42	553.783
1545.95	575.522
1547.48	589.903
1549.01	601.473
1550.54	600.182
1552.07	627.806
1553.6	631.721
1555.13	649.204
1556.65	643.861
1558.18	683.433
1559.71	672.261
1561.24	665.878
1562.77	680.677
1564.3	699.228
1565.83	716.183
1567.36	731.59
1568.88	723.67
1570.41	752.512
1571.94	755.05
1573.47	764.149
1575	768.447
1576.53	786.581
1578.06	814.26
1579.59	805.513
1581.12	828.52
1582.64	853.31
1584.17	850.407
1585.7	876.734
1587.23	866.644
1588.76	875.672
1590.29	880.678
1591.82	881.906
1593.35	897.893
1594.87	902.989
1596.4	874.987
1597.93	866.575
1599.46	859.51
1600.99	873.603
1602.52	857.076
1604.05	843.044
1605.58	838.302
1607.1	823.605
1608.63	810.981
1610.16	793.047
1611.69	771.596
1613.22	762.144
1614.75	728.888
1616.28	711.517
1617.81	697.638
1619.33	680.688
1620.86	663.397
1622.39	645.659
1623.92	615.936
1625.45	583.421
1626.98	578.839
1628.51	545.182
1630.04	519.041
1631.56	505.427
1633.09	491.435
1634.62	472.564
1636.15	452.463
1637.68	441.339
1639.21	432.352
1640.74	403.929
1642.27	380.037
1643.79	373.455
1645.32	363.87
1646.85	347.94
1648.38	340.581
1649.91	329.969
1651.44	315.286
1652.97	313.886
1654.5	290.723
1656.03	286.081
1657.55	267.037
1659.08	259.026
1660.61	249.522
1662.14	249.249
1663.67	236.789
1665.2	237.148
1666.73	228.532
1668.26	223.164
1669.78	218.063
1671.31	202.066
1672.84	186.005
1674.37	181.884
1675.9	182.596
1677.43	184.394
1678.96	178.9
1680.49	176.813
1682.01	168.806
1683.54	166.612
1685.07	165.238
1686.6	151
1688.13	152.726
1689.66	147.868
1691.19	152.288
1692.72	146.131
1694.24	145.172
1695.77	140.19
1697.3	129.81
1698.83	132.349
1700.36	139.932
1701.89	137.235
1703.42	131.075
1704.95	138.767
1706.47	121.455
1708	121.381
1709.53	123.252
1711.06	123.907
1712.59	126
1714.12	116.471
1715.65	120.017
1717.18	117.483
1718.71	116.286
1720.23	114.804
1721.76	120.666
1723.29	113.689
1724.82	121.018
1726.35	122.561
1727.88	112.919
1729.41	112.142
1730.94	114.907
1732.46	101.495
1733.99	104.821
1735.52	107.892
1737.05	108.501
1738.58	101.054
1740.11	105.418
1741.64	102.767
1743.17	107.827
1744.69	107.771
1746.22	100.489
1747.75	98.827
1749.28	94.3385
1750.81	99.7966
1752.34	101.622
1753.87	103.353
1755.4	107.723
1756.92	100.818
1758.45	108.019
1759.98	102.658
1761.51	98.4009
1763.04	105.099
1764.57	100.001
1766.1	102.194
1767.63	101.633
1769.15	96.5306
1770.68	98.4221
1772.21	100.493
1773.74	95.4432
1775.27	99.1733
1776.8	99.6184
1778.33	100.947
1779.86	101.717
1781.38	91.8057
1782.91	94.4593
1784.44	94.4833
1785.97	92.7552
1787.5	99.9259
1789.03	97.1748
1790.56	97.129
1792.09	94.484
1793.62	92.6869
1795.14	91.7755
1796.67	98.4257
1798.2	99.8049
1799.73	95.5245
1801.26	94.4996
1802.79	89.0651
1804.32	96.1039
1805.85	92.6544
1807.37	91.9072
1808.9	97.0473
1810.43	97.1084
1811.96	90.8923
1813.49	96.4251
1815.02	91.7824
1816.55	94.6091
1818.08	101.985
1819.6	93.3156
1821.13	88.382
1822.66	91.8224
1824.19	85.6431
1825.72	96.1049
1827.25	93.8262
1828.78	86.2524
1830.31	98.4507
1831.83	93.1842
1833.36	100.309
1834.89	91.4913
1836.42	102.311
1837.95	94.8279
1839.48	89.0568
1841.01	88.1309
1842.54	94.5749
1844.06	93.1428
1845.59	106.227
1847.12	84.0202
1848.65	84.9891
1850.18	95.9326
1851.71	94.3914
1853.24	81.7871
1854.77	90.8901
1856.29	85.8731
1857.82	92.7564
1859.35	91.7224
1860.88	93.2587
1862.41	87.2664
1863.94	89.4279
1865.47	86.6196
1867	97.0378
1868.53	91.1042
1870.05	87.5571
1871.58	92.8345
1873.11	91.3865
1874.64	94.1145
1876.17	85.1077
1877.7	94.064
1879.23	84.4625
1880.76	92.6373
1882.28	93.8355
1883.81	88.9508
1885.34	87.0939
1886.87	95.4979
1888.4	88.5801
1889.93	88.5668
1891.46	91.4382
1892.99	84.6129
1894.51	80.8428
1896.04	86.112
1897.57	90.4459
1899.1	88.9836
1900.63	91.7822
1902.16	95.0811
1903.69	91.3634
1905.22	85.9818
1906.74	94.3858
1908.27	86.4278
1909.8	96.611
1911.33	84.5251
1912.86	88.0087
1914.39	86.3333
1915.92	89.5827
1917.45	85.9213
1918.97	94.7984
1920.5	83.0854
1922.03	91.3879
1923.56	87.6407
1925.09	90.387
1926.62	88.5258
1928.15	90.7748
1929.68	91.9814
1931.21	81.4001
1932.73	92.6645
1934.26	92.9469
1935.79	91.9765
1937.32	86.9526
1938.85	87.9228
1940.38	90.7689
1941.91	87.1319
1943.44	93.7624
1944.96	87.9251
1946.49	84.6392
1948.02	86.7628
1949.55	86.9528
1951.08	94.4134
1952.61	92.1336
1954.14	82.6442
1955.67	92.4981
1957.19	89.2974
1958.72	78.1075
1960.25	83.8278
1961.78	83.0042
1963.31	84.2351
1964.84	88.5592
1966.37	92.3338
1967.9	84.702
1969.42	87.1646
1970.95	94.8771
1972.48	95.6464
1974.01	84.4043
1975.54	88.1413
1977.07	87.0592
1978.6	84.3333
1980.13	95.0631
1981.65	87.8851
1983.18	102.674
1984.71	84.3527
1986.24	91.8237
1987.77	93.7869
1989.3	81.171
1990.83	93.6116
1992.36	86.1142
1993.88	92.4506
1995.41	88.2581
1996.94	81.2644
1998.47	93.4154
2000	91.0374