File: Example Data/Raman/CNT - TIM/Raytheon/Al foil/2010/05-13-10/R3-sideB.txt
300	152.578
301.529	154.74
303.058	149.268
304.586	158.256
306.115	162.904
307.644	154.671
309.173	158.971
310.701	149.693
312.23	156.16
313.759	152.069
315.288	144.178
316.817	154.696
318.345	152.238
319.874	146.332
321.403	161.379
322.932	154.318
324.46	149.434
325.989	156.875
327.518	156.855
329.047	151.095
330.576	158.013
332.104	148.366
333.633	149.91
335.162	153.22
336.691	151.02
338.219	146.758
339.748	142.189
341.277	150.83
342.806	146.148
344.335	148.74
345.863	146.896
347.392	139.227
348.921	140.618
350.45	149.548
351.978	147.777
353.507	149.525
355.036	149.383
356.565	155.153
358.094	149.659
359.622	144.667
361.151	141.781
362.68	137.063
364.209	148.307
365.737	146.068
367.266	141.535
368.795	141.958
370.324	149.937
371.853	139.77
373.381	139.994
374.91	148.337
376.439	144.36
377.968	138.708
379.496	138.117
381.025	132.009
382.554	157.174
384.083	143.452
385.612	138.768
387.14	138.312
388.669	139.58
390.198	131.463
391.727	149.42
393.255	134.231
394.784	138.405
396.313	141.881
397.842	144.392
399.371	145.832
400.899	135.028
402.428	139.945
403.957	136.18
405.486	137.165
407.014	137.655
408.543	146.855
410.072	141.667
411.601	130.965
413.129	135.336
414.658	135.857
416.187	138.984
417.716	137.799
419.245	150.117
420.773	138.98
422.302	127.985
423.831	138.617
425.36	135.026
426.888	141.103
428.417	133.757
429.946	135.578
431.475	137.009
433.004	139.385
434.532	133.871
436.061	135.535
437.59	145.583
439.119	133.812
440.647	139.92
442.176	138.142
443.705	135.89
445.234	130.517
446.763	129.82
448.291	128.584
449.82	126.898
451.349	124.813
452.878	129.073
454.406	127.73
455.935	137.447
457.464	128.258
458.993	125.01
460.522	129.212
462.05	136.131
463.579	134.825
465.108	123.026
466.637	128.333
468.165	140.062
469.694	131.629
471.223	133.115
472.752	129.204
474.281	124.636
475.809	118.717
477.338	126.838
478.867	127.527
480.396	138.642
481.924	124.623
483.453	123.759
484.982	123.673
486.511	119.053
488.04	127.546
489.568	128.646
491.097	125.963
492.626	122.014
494.155	117.659
495.683	124.281
497.212	111.688
498.741	114.266
500.27	113.834
501.799	113.696
503.327	110.659
504.856	109.688
506.385	120.526
507.914	114.52
509.442	114.488
510.971	112.159
512.5	124.398
514.029	121.441
515.558	117.077
517.086	125.544
518.615	109.968
520.144	122.813
521.673	122.085
523.201	119.606
524.73	120.966
526.259	114.758
527.788	117.591
529.317	111.896
530.845	117.575
532.374	120.525
533.903	110.427
535.432	108.945
536.96	118.298
538.489	119.698
540.018	115.514
541.547	114.037
543.076	113.952
544.604	127.245
546.133	112.691
547.662	114.056
549.191	117.055
550.719	120.094
552.248	117.16
553.777	129.855
555.306	114.208
556.835	118.702
558.363	117.534
559.892	119.774
561.421	119.172
562.95	116.981
564.478	123.175
566.007	115.217
567.536	116.438
569.065	118.511
570.594	123.684
572.122	125.645
573.651	119.869
575.18	121.53
576.709	123.432
578.237	122.971
579.766	121.726
581.295	129.7
582.824	128.516
584.353	115.801
585.881	120.98
587.41	128.914
588.939	119.073
590.468	118.431
591.996	116.816
593.525	128.38
595.054	126.123
596.583	117.052
598.112	128.751
599.64	121.069
601.169	117.195
602.698	127.507
604.227	134.073
605.755	125.454
607.284	130.479
608.813	124.428
610.342	129.095
611.87	121.797
613.399	131.384
614.928	133.252
616.457	126.799
617.986	123.374
619.514	131.741
621.043	130.816
622.572	132.494
624.101	120.694
625.63	122.758
627.158	135.52
628.687	132.858
630.216	132.014
631.745	137.844
633.273	120.007
634.802	131.83
636.331	126.663
637.86	123.762
639.388	127.911
640.917	125.913
642.446	127.62
643.975	128.967
645.504	126.636
647.032	127.513
648.561	127.495
650.09	126.732
651.619	137.495
653.147	147.731
654.676	135.472
656.205	124.688
657.734	127.202
659.263	125.596
660.791	132.958
662.32	126.14
663.849	127.08
665.378	131.76
666.906	136.368
668.435	136.868
669.964	133.829
671.493	135.892
673.022	121.889
674.55	141.658
676.079	127.594
677.608	140.917
679.137	137.821
680.665	137.632
682.194	136.989
683.723	140.607
685.252	121.008
686.781	137.537
688.309	132.037
689.838	132.241
691.367	138.357
692.896	141.669
694.424	143.768
695.953	132.972
697.482	139.646
699.011	137.885
700.54	136.941
702.068	138.542
703.597	140.691
705.126	144.367
706.655	137.232
708.183	134.124
709.712	138.982
711.241	146.284
712.77	144.475
714.299	141.201
715.827	145.763
717.356	149.499
718.885	152.982
720.414	132.322
721.942	141.536
723.471	139.776
725	147.198
726.529	151.732
728.058	135.418
729.586	159.159
731.115	151.789
732.644	151.142
734.173	143.179
735.701	161.2
737.23	150.642
738.759	154.181
740.288	148.015
741.817	153.594
743.345	146.43
744.874	147.682
746.403	152.655
747.932	156.917
749.46	153.737
750.989	149.093
752.518	159.953
754.047	160.422
755.576	159.741
757.104	159.773
758.633	160.246
760.162	155.111
761.691	159.266
763.219	167.122
764.748	160.602
766.277	160.629
767.806	160.764
769.335	170.106
770.863	165.98
772.392	157.339
773.921	166.705
775.45	159.542
776.978	162.296
778.507	159.804
780.036	162.977
781.565	169.793
783.094	161.805
784.622	167.02
786.151	162.517
787.68	159.199
789.209	167.87
790.737	167.427
792.266	178.738
793.795	165.512
795.324	168.726
796.853	169.854
798.381	172.152
799.91	165.996
801.439	172.523
802.968	166.484
804.496	176.621
806.025	179.341
807.554	171.333
809.083	177.853
810.612	173.192
812.14	169.454
813.669	175.723
815.198	181.154
816.727	175.376
818.255	176.25
819.784	169.5
821.313	172.084
822.842	175.254
824.37	165.459
825.899	182.594
827.428	176.312
828.957	177.406
830.486	177.528
832.014	183.254
833.543	178.519
835.072	179.687
836.601	171.905
838.13	169.312
839.658	178.994
841.187	182.109
842.716	174.827
844.245	177.413
845.773	187.459
847.302	179.406
848.831	186.897
850.36	183.493
851.888	177.04
853.417	185.114
854.946	184.419
856.475	176.708
858.004	177.094
859.532	182.626
861.061	183.953
862.59	174.85
864.119	180.515
865.647	173.831
867.176	155.385
868.705	176.211
870.234	175.267
871.763	175.28
873.291	165.78
874.82	166.866
876.349	169.286
877.878	169.206
879.406	165.288
880.935	168.579
882.464	162.453
883.993	173.816
885.522	160.706
887.05	152.17
888.579	162.588
890.108	170.232
891.637	164.369
893.165	160.49
894.694	157.21
896.223	157.61
897.752	153.448
899.281	155.363
900.809	159.333
902.338	157.187
903.867	143.849
905.396	140.112
906.924	143.819
908.453	140.833
909.982	151.132
911.511	149.584
913.04	135.97
914.568	150.639
916.097	157.331
917.626	147.883
919.155	150.287
920.683	143.224
922.212	138.333
923.741	142.295
925.27	145.605
926.799	139.38
928.327	141.266
929.856	146.274
931.385	140.359
932.914	148.246
934.442	145.278
935.971	144.321
937.5	144.939
939.029	144.417
940.558	137.213
942.086	148.631
943.615	146.52
945.144	148.847
946.673	145.773
948.201	141.308
949.73	150.112
951.259	141.27
952.788	152.045
954.317	139.768
955.845	153.451
957.374	137.36
958.903	133.483
960.432	152.07
961.96	155.456
963.489	142.587
965.018	149.108
966.547	150.467
968.076	145.408
969.604	152.094
971.133	149.028
972.662	143.026
974.191	144.757
975.719	145.848
977.248	150.886
978.777	147.538
980.306	142.153
981.835	153.102
983.363	147.667
984.892	154.455
986.421	155.552
987.95	147.91
989.478	149.351
991.007	149.064
992.536	167.486
994.065	142.748
995.594	167.776
997.122	151.036
998.651	152.632
1000.18	164.327
1001.71	163.436
1003.24	151.333
1004.77	166.922
1006.29	162.868
1007.82	169.304
1009.35	163.461
1010.88	170.667
1012.41	165.352
1013.94	174.819
1015.47	179.663
1017	165.382
1018.53	169.873
1020.05	175.393
1021.58	184.46
1023.11	172
1024.64	186.431
1026.17	183.944
1027.7	180.782
1029.23	197.65
1030.76	189.443
1032.28	172.314
1033.81	201.981
1035.34	179.967
1036.87	198.063
1038.4	198.106
1039.93	192.67
1041.46	195.684
1042.99	194.483
1044.51	206.638
1046.04	212.077
1047.57	201.777
1049.1	208.877
1050.63	203.181
1052.16	194.529
1053.69	197.025
1055.22	204.517
1056.74	202.416
1058.27	210.482
1059.8	203.64
1061.33	207.717
1062.86	210.104
1064.39	211.374
1065.92	207.923
1067.45	207.033
1068.97	204.554
1070.5	204.087
1072.03	214.972
1073.56	215.086
1075.09	216.111
1076.62	210.544
1078.15	230.319
1079.68	222.232
1081.21	214.187
1082.73	218.963
1084.26	223.513
1085.79	220.465
1087.32	222.268
1088.85	229.848
1090.38	220.67
1091.91	228.106
1093.44	231.043
1094.96	227.582
1096.49	227.314
1098.02	234.629
1099.55	234.312
1101.08	230.598
1102.61	239.797
1104.14	242.072
1105.67	236.031
1107.19	231.589
1108.72	259.015
1110.25	252.64
1111.78	250.795
1113.31	252.546
1114.84	244.115
1116.37	260.863
1117.9	252.763
1119.42	257.571
1120.95	260.981
1122.48	257.682
1124.01	258.61
1125.54	262.898
1127.07	279.419
1128.6	271.234
1130.13	284.215
1131.65	262.38
1133.18	274.379
1134.71	299.602
1136.24	264.975
1137.77	291.341
1139.3	295.125
1140.83	288.521
1142.36	302.213
1143.88	300.122
1145.41	298.196
1146.94	311.684
1148.47	322.959
1150	309.483
1151.53	319.619
1153.06	312.163
1154.59	331.944
1156.12	309.674
1157.64	335.025
1159.17	331.538
1160.7	330.609
1162.23	328.485
1163.76	317.114
1165.29	334.915
1166.82	341.211
1168.35	335.585
1169.87	344.222
1171.4	336.284
1172.93	354.956
1174.46	341.566
1175.99	346.596
1177.52	343.186
1179.05	337.294
1180.58	352.025
1182.1	353.43
1183.63	360.992
1185.16	360.632
1186.69	358.634
1188.22	352.081
1189.75	352.628
1191.28	320.546
1192.81	355.671
1194.33	361.902
1195.86	369.704
1197.39	370.278
1198.92	370.113
1200.45	361.381
1201.98	362.428
1203.51	363.967
1205.04	386.594
1206.56	388.308
1208.09	375.798
1209.62	401.727
1211.15	386.728
1212.68	387.143
1214.21	403.146
1215.74	396.808
1217.27	384.189
1218.79	402.946
1220.32	404.964
1221.85	418.416
1223.38	407.171
1224.91	411.189
1226.44	416.788
1227.97	418.394
1229.5	425.398
1231.03	424.14
1232.55	430.423
1234.08	419.168
1235.61	434.005
1237.14	439.028
1238.67	455.634
1240.2	441.973
1241.73	446.31
1243.26	456.63
1244.78	470.034
1246.31	470.2
1247.84	471.616
1249.37	480.667
1250.9	480.637
1252.43	480.943
1253.96	491.22
1255.49	485.351
1257.01	504.012
1258.54	509.765
1260.07	513.443
1261.6	521.023
1263.13	532
1264.66	506.519
1266.19	541.625
1267.72	538.911
1269.24	552.208
1270.77	551.589
1272.3	561.913
1273.83	558.903
1275.36	578.234
1276.89	591.725
1278.42	585.795
1279.95	593.713
1281.47	609.63
1283	621.334
1284.53	623.563
1286.06	635.519
1287.59	626.036
1289.12	656.382
1290.65	657.127
1292.18	664.523
1293.71	662.586
1295.23	669.638
1296.76	687.766
1298.29	702.929
1299.82	723.769
1301.35	735.705
1302.88	727.626
1304.41	733.653
1305.94	774.791
1307.46	772.139
1308.99	795.577
1310.52	786.929
1312.05	827.571
1313.58	804.536
1315.11	807.9
1316.64	838.123
1318.17	890.972
1319.69	855.4
1321.22	870.935
1322.75	855.195
1324.28	889.024
1325.81	862.734
1327.34	937.536
1328.87	921.048
1330.4	899.003
1331.92	929.499
1333.45	919.597
1334.98	953.376
1336.51	941.762
1338.04	945.029
1339.57	973.515
1341.1	961.348
1342.63	980.836
1344.15	962.821
1345.68	951.388
1347.21	969.103
1348.74	985.249
1350.27	967.922
1351.8	970.6
1353.33	990.571
1354.86	948.513
1356.38	953.745
1357.91	971.981
1359.44	929.012
1360.97	940.793
1362.5	899.189
1364.03	912.584
1365.56	921.141
1367.09	917.987
1368.62	888.347
1370.14	897.27
1371.67	881.234
1373.2	890.934
1374.73	851.678
1376.26	849.91
1377.79	837.402
1379.32	810.687
1380.85	821.467
1382.37	817.727
1383.9	811.799
1385.43	795.516
1386.96	773.358
1388.49	764.465
1390.02	753.734
1391.55	739.652
1393.08	730.641
1394.6	738.123
1396.13	721.319
1397.66	722.166
1399.19	691.931
1400.72	676.206
1402.25	700.671
1403.78	675.612
1405.31	668.692
1406.83	675.394
1408.36	659.129
1409.89	657.344
1411.42	636.013
1412.95	636.754
1414.48	640.169
1416.01	626.442
1417.54	635.388
1419.06	624.4
1420.59	625.089
1422.12	605.137
1423.65	615.198
1425.18	617.271
1426.71	588.578
1428.24	602.532
1429.77	604.469
1431.29	604.037
1432.82	623.41
1434.35	585.008
1435.88	594.276
1437.41	568.758
1438.94	587.687
1440.47	590.463
1442	586.564
1443.53	558.441
1445.05	556.172
1446.58	564.835
1448.11	576.398
1449.64	561.206
1451.17	584.471
1452.7	571.14
1454.23	573.939
1455.76	561.798
1457.28	563.563
1458.81	559.995
1460.34	557.406
1461.87	564.91
1463.4	566.71
1464.93	552.431
1466.46	555.812
1467.99	550.711
1469.51	558.736
1471.04	536.079
1472.57	549.541
1474.1	539.335
1475.63	552.495
1477.16	539.763
1478.69	551.377
1480.22	571.106
1481.74	557.196
1483.27	549.08
1484.8	545.465
1486.33	533.56
1487.86	539.676
1489.39	536.126
1490.92	561.459
1492.45	548.538
1493.97	567.581
1495.5	551.72
1497.03	546.136
1498.56	552.486
1500.09	551.167
1501.62	537.207
1503.15	552.967
1504.68	541.408
1506.21	543.183
1507.73	537.433
1509.26	549.679
1510.79	542.356
1512.32	560.347
1513.85	552.968
1515.38	548.19
1516.91	568.346
1518.44	553.472
1519.96	556.551
1521.49	550.231
1523.02	564.56
1524.55	550.047
1526.08	553.31
1527.61	578.201
1529.14	560.814
1530.67	590.871
1532.19	577.37
1533.72	559.261
1535.25	587.784
1536.78	584.268
1538.31	574.25
1539.84	600.367
1541.37	607.654
1542.9	609.863
1544.42	617.983
1545.95	625.889
1547.48	612.941
1549.01	619.343
1550.54	650.376
1552.07	650.318
1553.6	656.246
1555.13	679.665
1556.65	690.332
1558.18	686.223
1559.71	696.958
1561.24	711.389
1562.77	709.821
1564.3	727.68
1565.83	721.278
1567.36	747.649
1568.88	775.58
1570.41	777.74
1571.94	791.946
1573.47	821.254
1575	835.833
1576.53	849.201
1578.06	844.377
1579.59	873.228
1581.12	885.102
1582.64	922.168
1584.17	930.229
1585.7	929.072
1587.23	959.976
1588.76	968.521
1590.29	985.184
1591.82	976.28
1593.35	1000.06
1594.87	1006.81
1596.4	999.649
1597.93	1034.38
1599.46	1018.23
1600.99	1011.36
1602.52	1041.36
1604.05	1014.05
1605.58	1014.86
1607.1	995.65
1608.63	998.721
1610.16	1032.2
1611.69	933.376
1613.22	932.211
1614.75	881.7
1616.28	880.148
1617.81	865.682
1619.33	825.775
1620.86	801.98
1622.39	771.983
1623.92	749.178
1625.45	712.767
1626.98	688.482
1628.51	652.437
1630.04	627.98
1631.56	596.797
1633.09	579.543
1634.62	563.769
1636.15	547.495
1637.68	524.694
1639.21	512.812
1640.74	480.308
1642.27	465.995
1643.79	448.531
1645.32	432.128
1646.85	421.984
1648.38	403.501
1649.91	380.817
1651.44	377.035
1652.97	355.368
1654.5	353.861
1656.03	321.025
1657.55	332.272
1659.08	314.841
1660.61	299.485
1662.14	296.596
1663.67	272.27
1665.2	255.137
1666.73	259.763
1668.26	253.734
1669.78	228.751
1671.31	232.468
1672.84	219.678
1674.37	219.244
1675.9	212.018
1677.43	202.281
1678.96	197.555
1680.49	183.372
1682.01	187.132
1683.54	174.51
1685.07	176.055
1686.6	176.828
1688.13	161.349
1689.66	158.919
1691.19	155.554
1692.72	158.86
1694.24	153.824
1695.77	150.527
1697.3	140.983
1698.83	144.966
1700.36	149.883
1701.89	135.65
1703.42	139.596
1704.95	136.095
1706.47	129.727
1708	133.128
1709.53	125.496
1711.06	126.829
1712.59	114.287
1714.12	118.06
1715.65	119.316
1717.18	113.895
1718.71	120.923
1720.23	119.909
1721.76	113.238
1723.29	108.28
1724.82	114.066
1726.35	110.079
1727.88	108.31
1729.41	106.876
1730.94	106.458
1732.46	104.449
1733.99	110.146
1735.52	116.895
1737.05	109.083
1738.58	100.106
1740.11	103.945
1741.64	104.186
1743.17	103.121
1744.69	99.3945
1746.22	105.051
1747.75	103.093
1749.28	101.569
1750.81	103.012
1752.34	101.628
1753.87	98.2437
1755.4	100.945
1756.92	107.511
1758.45	98.2923
1759.98	102.937
1761.51	97.4434
1763.04	98.3655
1764.57	97.9069
1766.1	100.961
1767.63	98.2321
1769.15	101.267
1770.68	89.266
1772.21	89.4124
1773.74	96.3471
1775.27	88.2096
1776.8	92.3991
1778.33	85.5975
1779.86	94.8814
1781.38	89.35
1782.91	91.8143
1784.44	88.5423
1785.97	93.2323
1787.5	93.1302
1789.03	98.8655
1790.56	94.5293
1792.09	92.9077
1793.62	91.2475
1795.14	96.6865
1796.67	90.5734
1798.2	90.7656
1799.73	92.0742
1801.26	95.0899
1802.79	88.0255
1804.32	92.7105
1805.85	95.6641
1807.37	90.734
1808.9	88.5306
1810.43	86.4641
1811.96	85.927
1813.49	95.1995
1815.02	89.0573
1816.55	95.4856
1818.08	87.6763
1819.6	94.3573
1821.13	88.0876
1822.66	87.032
1824.19	85.2731
1825.72	94.6613
1827.25	86.9805
1828.78	92.1098
1830.31	91.892
1831.83	93.4273
1833.36	98.5285
1834.89	97.6641
1836.42	91.7863
1837.95	89.0902
1839.48	88.5431
1841.01	93.3685
1842.54	83.5261
1844.06	95.1048
1845.59	92.4196
1847.12	95.1919
1848.65	87.9168
1850.18	83.6654
1851.71	92.6707
1853.24	84.4675
1854.77	91.0722
1856.29	90.2225
1857.82	95.1152
1859.35	96.1147
1860.88	89.4359
1862.41	84.4213
1863.94	92.3983
1865.47	92.3783
1867	86.4095
1868.53	94.0396
1870.05	86.4825
1871.58	82.508
1873.11	89.0284
1874.64	91.6742
1876.17	90.0408
1877.7	89.7946
1879.23	91.7451
1880.76	98.9671
1882.28	87.3767
1883.81	86.5853
1885.34	92.1878
1886.87	85.9431
1888.4	84.0428
1889.93	82.3376
1891.46	92.6807
1892.99	82.9268
1894.51	93.2766
1896.04	83.1858
1897.57	93.6661
1899.1	92.5211
1900.63	90.7932
1902.16	87.1489
1903.69	80.8597
1905.22	84.3281
1906.74	93.702
1908.27	87.3333
1909.8	81.8263
1911.33	93.449
1912.86	95.1536
1914.39	84.1772
1915.92	86.7322
1917.45	93.0748
1918.97	87.3141
1920.5	89.0312
1922.03	84.3146
1923.56	91.3126
1925.09	93.6766
1926.62	87.4399
1928.15	90.7598
1929.68	86.088
1931.21	92.4334
1932.73	92.9669
1934.26	95.7056
1935.79	92.6146
1937.32	88.8816
1938.85	84.4634
1940.38	87.82
1941.91	88.7691
1943.44	87.4935
1944.96	83.595
1946.49	85.0858
1948.02	86.3804
1949.55	83.9285
1951.08	94.8064
1952.61	86.8963
1954.14	87.5777
1955.67	86.0679
1957.19	87.1631
1958.72	89.3447
1960.25	87.6952
1961.78	90.4388
1963.31	87.9901
1964.84	85.1922
1966.37	91.1744
1967.9	91.8969
1969.42	84.7284
1970.95	80.3511
1972.48	91.5544
1974.01	83.6629
1975.54	91.8927
1977.07	87.0605
1978.6	91.2821
1980.13	88.712
1981.65	88.9638
1983.18	92.8744
1984.71	93.3333
1986.24	86.4139
1987.77	84.7254
1989.3	93.4484
1990.83	90.1117
1992.36	87.8398
1993.88	91.848
1995.41	98.2444
1996.94	91.4184
1998.47	93.8457
2000	87.0562