File: Example Data/Raman/Kara/12-20-10/C-Si-Graphene/CSGbulk3_1.txt
100	206.516
102.559	206.196
105.117	203.671
107.676	199.7
110.235	204.654
112.793	219.566
115.352	229.111
117.91	228.176
120.469	220.177
123.028	230.42
125.586	230.588
128.145	230.778
130.704	234.167
133.262	238.133
135.821	225.632
138.38	224.289
140.938	224.862
143.497	223.099
146.055	218.908
148.614	228.216
151.173	225.776
153.731	214.149
156.29	202.924
158.849	204.31
161.407	198.681
163.966	193.963
166.525	193.36
169.083	192.784
171.642	187.213
174.2	197.673
176.759	192.003
179.318	191.075
181.876	189.925
184.435	180.096
186.994	184.611
189.552	177.07
192.111	177.659
194.67	179.086
197.228	172.993
199.787	168.959
202.345	174.633
204.904	174.41
207.463	167.277
210.021	160.378
212.58	173.475
215.139	168.88
217.697	166.465
220.256	164.776
222.814	165.393
225.373	173.985
227.932	173.014
230.49	170.778
233.049	172.341
235.608	174.739
238.166	172.005
240.725	177.195
243.284	179.371
245.842	177.417
248.401	177.758
250.959	185.905
253.518	196.137
256.077	188.818
258.635	185.777
261.194	181.393
263.753	175.801
266.311	182.957
268.87	192.702
271.429	188.027
273.987	184.848
276.546	186.05
279.104	186.055
281.663	191.757
284.222	195.238
286.78	195.382
289.339	191.999
291.898	188.931
294.456	200.194
297.015	203.116
299.574	195.684
302.132	191.456
304.691	194.396
307.249	197.116
309.808	195.318
312.367	193.251
314.925	187.79
317.484	191.204
320.043	208.437
322.601	200.906
325.16	190.78
327.719	191.877
330.277	189.821
332.836	183.989
335.394	189.479
337.953	187.02
340.512	184.424
343.07	182.6
345.629	179.491
348.188	175.902
350.746	183.451
353.305	178.315
355.864	173.29
358.422	172.109
360.981	174.146
363.539	175.644
366.098	173.835
368.657	173.457
371.215	172.969
373.774	171.732
376.333	171.384
378.891	176.473
381.45	164.444
384.009	167.78
386.567	167.24
389.126	163.033
391.684	161.966
394.243	160.481
396.802	161.804
399.36	163.048
401.919	162.651
404.478	161.503
407.036	162.068
409.595	164.712
412.154	162.053
414.712	165.735
417.271	164.786
419.829	160.269
422.388	169.624
424.947	166.478
427.505	163.051
430.064	166.15
432.623	167.99
435.181	163.987
437.74	162.477
440.298	175.745
442.857	167.52
445.416	167.355
447.974	169.313
450.533	163.201
453.092	161.208
455.65	166.663
458.209	169.908
460.768	172.665
463.326	177.548
465.885	182.545
468.444	173.563
471.002	181.575
473.561	184.18
476.119	189.619
478.678	194.748
481.237	196.251
483.795	207.755
486.354	206.695
488.913	223.553
491.471	227.281
494.03	225.095
496.589	237.648
499.147	263.035
501.706	279.373
504.264	300.447
506.823	332.029
509.382	380.15
511.94	446.865
514.499	525.786
517.058	642.763
519.616	777.423
522.175	826.891
524.733	781.027
527.292	667.145
529.851	505.248
532.409	358.405
534.968	256.621
537.527	195.57
540.085	170.508
542.644	164.939
545.203	151.142
547.761	130.154
550.32	128.633
552.878	126.227
555.437	123.364
557.996	121.166
560.554	118.517
563.113	121.21
565.672	118.741
568.23	112.514
570.789	106.41
573.348	104.673
575.906	109.641
578.465	118.913
581.023	116.997
583.582	113.212
586.141	108.266
588.699	107.825
591.258	112.233
593.817	110.872
596.375	99.048
598.934	113.456
601.493	114.313
604.051	113.93
606.61	118.186
609.168	118.226
611.727	111.463
614.286	112.664
616.844	117.484
619.403	117.978
621.962	111.823
624.52	107.24
627.079	120.869
629.638	118.495
632.196	117.309
634.755	111.097
637.313	110.683
639.872	115.113
642.431	115.732
644.989	124.054
647.548	114.861
650.107	118.194
652.665	117.934
655.224	114.91
657.783	113.893
660.341	114.486
662.9	117.379
665.458	114.928
668.017	110.631
670.576	114.466
673.134	119.102
675.693	116.007
678.252	114.869
680.81	108.56
683.369	107.35
685.927	109.25
688.486	108.137
691.045	105.695
693.603	106.082
696.162	102.541
698.721	109.55
701.279	116.993
703.838	122.189
706.397	121.759
708.955	114.988
711.514	106.936
714.073	111.197
716.631	110.17
719.19	111.716
721.748	111.714
724.307	110.857
726.866	111.313
729.424	112.886
731.983	108.601
734.542	116.325
737.1	112.3
739.659	112.728
742.217	113.127
744.776	113.71
747.335	118.893
749.893	113.718
752.452	107.187
755.011	117.443
757.569	118.176
760.128	118.234
762.687	122.071
765.245	124.413
767.804	126.059
770.362	117.271
772.921	122.099
775.48	119.426
778.038	119.002
780.597	122.697
783.156	122.99
785.714	116.659
788.273	124.946
790.832	128.782
793.39	119.976
795.949	122.324
798.507	125.978
801.066	124.021
803.625	131.164
806.183	121.996
808.742	127.219
811.301	123.927
813.859	122.084
816.418	124.219
818.977	128.861
821.535	134.306
824.094	140.435
826.652	141.129
829.211	129.996
831.77	128.865
834.328	126.508
836.887	127.399
839.446	134
842.004	132.098
844.563	122.536
847.122	131.137
849.68	139.858
852.239	132.475
854.797	131.093
857.356	134.581
859.915	133.578
862.473	149.728
865.032	133.001
867.591	129.052
870.149	131.3
872.708	133.275
875.267	134.148
877.825	132.7
880.384	130.873
882.942	141.533
885.501	130.363
888.06	128.283
890.618	136.869
893.177	132.684
895.736	121.905
898.294	121.209
900.853	131.935
903.411	132.321
905.97	126.72
908.529	127.471
911.087	125.924
913.646	127.73
916.205	130.084
918.763	131.634
921.322	135.526
923.881	137.654
926.439	131.865
928.998	138.664
931.557	142.044
934.115	145.502
936.674	147.071
939.232	144.737
941.791	143.547
944.35	153.358
946.908	157.403
949.467	149.066
952.026	151.558
954.584	151.528
957.143	149.923
959.701	150.259
962.26	149.216
964.819	142.274
967.377	151.577
969.936	137.64
972.495	149.119
975.053	142.316
977.612	148.069
980.171	153.855
982.729	146.215
985.288	142
987.846	136.322
990.405	146.394
992.964	139.519
995.522	146.304
998.081	148.76
1000.64	142.377
1003.2	134.94
1005.76	132.39
1008.32	131.513
1010.87	133.61
1013.43	140.347
1015.99	139.238
1018.55	134.812
1021.11	133
1023.67	134.942
1026.23	134.54
1028.78	132.265
1031.34	140.068
1033.9	135.189
1036.46	146.743
1039.02	147.842
1041.58	151.071
1044.14	151.115
1046.7	150.369
1049.25	149.818
1051.81	148.482
1054.37	150.631
1056.93	154.836
1059.49	156.261
1062.05	161.391
1064.61	164.412
1067.16	162.022
1069.72	156.53
1072.28	157.483
1074.84	162.072
1077.4	154.477
1079.96	157.811
1082.52	171.569
1085.07	170.721
1087.63	179.354
1090.19	179.459
1092.75	176.659
1095.31	179.478
1097.87	183.035
1100.43	181.312
1102.99	186.858
1105.54	178.81
1108.1	205.886
1110.66	201.539
1113.22	200.29
1115.78	199.425
1118.34	204.807
1120.9	216.988
1123.45	223.531
1126.01	217.307
1128.57	218.725
1131.13	229.511
1133.69	238.025
1136.25	244.156
1138.81	252.341
1141.36	263.406
1143.92	267.967
1146.48	269.896
1149.04	279.253
1151.6	289.858
1154.16	294.522
1156.72	323.909
1159.28	315.442
1161.83	316.235
1164.39	336.934
1166.95	349.019
1169.51	346.194
1172.07	349.549
1174.63	362.281
1177.19	364.247
1179.74	374.141
1182.3	382.257
1184.86	387.864
1187.42	381.036
1189.98	385.478
1192.54	397.736
1195.1	409.16
1197.65	417.701
1200.21	425.729
1202.77	432.76
1205.33	434.872
1207.89	434.885
1210.45	444.137
1213.01	444.224
1215.57	461.413
1218.12	464.046
1220.68	475.087
1223.24	476.31
1225.8	482.917
1228.36	501.4
1230.92	506.911
1233.48	514.091
1236.03	501.589
1238.59	521.607
1241.15	527.149
1243.71	541.63
1246.27	557.769
1248.83	563.741
1251.39	577.439
1253.94	586.374
1256.5	580.605
1259.06	582.518
1261.62	598.621
1264.18	600.967
1266.74	631.98
1269.3	628.873
1271.85	623.098
1274.41	631.879
1276.97	651.909
1279.53	660.862
1282.09	662.186
1284.65	664.589
1287.21	671.53
1289.77	689.869
1292.32	714.743
1294.88	712.314
1297.44	726.246
1300	736.012
1302.56	752.006
1305.12	760.839
1307.68	763.46
1310.23	770.047
1312.79	787.819
1315.35	800.951
1317.91	807.363
1320.47	818.357
1323.03	816.393
1325.59	844.135
1328.15	874.317
1330.7	868.977
1333.26	877.155
1335.82	869.59
1338.38	881.244
1340.94	905.753
1343.5	895.206
1346.06	881.073
1348.61	894.975
1351.17	902.333
1353.73	885.559
1356.29	882.39
1358.85	890.793
1361.41	888.375
1363.97	881.905
1366.52	874.411
1369.08	881.755
1371.64	866.627
1374.2	843.997
1376.76	828.022
1379.32	816.164
1381.88	807.208
1384.43	795.023
1386.99	777.467
1389.55	775.217
1392.11	760.192
1394.67	763.633
1397.23	737.84
1399.79	726.047
1402.35	719.84
1404.9	720.009
1407.46	712.594
1410.02	693.032
1412.58	692.029
1415.14	691.733
1417.7	680.09
1420.26	667.497
1422.81	647.655
1425.37	633.832
1427.93	618.207
1430.49	638.205
1433.05	632.052
1435.61	612.584
1438.17	603.289
1440.72	596.156
1443.28	588.96
1445.84	585.487
1448.4	583.737
1450.96	568.831
1453.52	554.531
1456.08	558.945
1458.64	566.887
1461.19	561.317
1463.75	557.476
1466.31	568.472
1468.87	560.143
1471.43	561.952
1473.99	556.332
1476.55	538.369
1479.1	540.912
1481.66	548.352
1484.22	544.706
1486.78	536.506
1489.34	545.533
1491.9	551.843
1494.46	550.527
1497.01	549.915
1499.57	549.606
1502.13	552.819
1504.69	539.735
1507.25	534.829
1509.81	541.622
1512.37	527.995
1514.93	540.041
1517.48	549.539
1520.04	541.844
1522.6	552.052
1525.16	547.147
1527.72	554.654
1530.28	569.052
1532.84	565.217
1535.39	551.934
1537.95	555.817
1540.51	570.983
1543.07	574.656
1545.63	579.885
1548.19	601.495
1550.75	603.779
1553.3	614.821
1555.86	632.18
1558.42	662.123
1560.98	693.555
1563.54	688.557
1566.1	734.768
1568.66	741.876
1571.22	769.404
1573.77	809.992
1576.33	836.037
1578.89	868.033
1581.45	903.072
1584.01	925.037
1586.57	950.811
1589.13	992.186
1591.68	1039.14
1594.24	1077.33
1596.8	1085.79
1599.36	1093.89
1601.92	1102.35
1604.48	1108.5
1607.04	1073.9
1609.59	1081.21
1612.15	1053.59
1614.71	1036.97
1617.27	992.333
1619.83	950.642
1622.39	896.07
1624.95	868.115
1627.51	811.415
1630.06	751.501
1632.62	690.697
1635.18	642.423
1637.74	593.886
1640.3	547.939
1642.86	514.788
1645.42	477.995
1647.97	440.434
1650.53	413.479
1653.09	396.221
1655.65	372.434
1658.21	347.612
1660.77	313.021
1663.33	306.538
1665.88	294.411
1668.44	281.345
1671	261.193
1673.56	259.108
1676.12	245.226
1678.68	229.4
1681.24	213.452
1683.8	209.587
1686.35	211.727
1688.91	209.019
1691.47	193.728
1694.03	178.67
1696.59	177.373
1699.15	180.108
1701.71	175.977
1704.26	168.815
1706.82	160.409
1709.38	150.565
1711.94	144.81
1714.5	140.418
1717.06	135.415
1719.62	137.535
1722.17	132.574
1724.73	124.523
1727.29	126.463
1729.85	124.026
1732.41	119.904
1734.97	120.654
1737.53	114.412
1740.09	106.087
1742.64	111.366
1745.2	107.522
1747.76	108.812
1750.32	102.427
1752.88	106.406
1755.44	112.064
1758	102.052
1760.55	105.649
1763.11	105.996
1765.67	97.6459
1768.23	96.4371
1770.79	94.3267
1773.35	98.4167
1775.91	97.4634
1778.46	99.592
1781.02	102.634
1783.58	98.142
1786.14	94.6404
1788.7	94.7924
1791.26	93.7282
1793.82	89.7889
1796.38	89.1453
1798.93	88.0901
1801.49	85.6255
1804.05	93.0169
1806.61	93.2387
1809.17	87.004
1811.73	90.9184
1814.29	90.1405
1816.84	92.8247
1819.4	87.4409
1821.96	89.5458
1824.52	93.4453
1827.08	83.9368
1829.64	85.6449
1832.2	88.9904
1834.75	84.4695
1837.31	87.3719
1839.87	77.9625
1842.43	91.6733
1844.99	85.591
1847.55	77.799
1850.11	82.4571
1852.67	81.2241
1855.22	87.4369
1857.78	88.059
1860.34	80.6507
1862.9	85.4161
1865.46	82.4719
1868.02	81.871
1870.58	81.2314
1873.13	83.4099
1875.69	87.445
1878.25	91.4902
1880.81	85.3827
1883.37	81.2909
1885.93	78.3562
1888.49	81.8549
1891.04	82.1146
1893.6	81.6383
1896.16	83.5008
1898.72	81.9483
1901.28	76.7976
1903.84	84.6369
1906.4	85.5704
1908.96	77.0408
1911.51	73.0016
1914.07	75.5732
1916.63	77.0122
1919.19	78.5216
1921.75	79.6653
1924.31	79.1055
1926.87	81.4835
1929.42	81.156
1931.98	78.1393
1934.54	74.4743
1937.1	78.7004
1939.66	83.7463
1942.22	75.9337
1944.78	74.7471
1947.33	80.7364
1949.89	83.2566
1952.45	78.9593
1955.01	76.5981
1957.57	78.8301
1960.13	75.8677
1962.69	82.7758
1965.25	84.5516
1967.8	80.1026
1970.36	82.2735
1972.92	78.5486
1975.48	78.2852
1978.04	80.6615
1980.6	82.693
1983.16	83.3049
1985.71	80.0125
1988.27	87.8621
1990.83	85.9516
1993.39	80.0483
1995.95	81.9492
1998.51	84.8074
2001.07	83.3942
2003.62	83.6074
2006.18	78.2593
2008.74	78.8347
2011.3	84.6865
2013.86	84.9091
2016.42	81.6405
2018.98	78.357
2021.54	80.9118
2024.09	87.4755
2026.65	84.7942
2029.21	79.1791
2031.77	78.1227
2034.33	80.135
2036.89	80.939
2039.45	80.8851
2042	81.3891
2044.56	83.2037
2047.12	80.2659
2049.68	79.895
2052.24	81.6925
2054.8	81.8063
2057.36	78.7326
2059.91	76.847
2062.47	83.7214
2065.03	79.7196
2067.59	80.5229
2070.15	82.7791
2072.71	77.672
2075.27	81.1339
2077.83	82.4578
2080.38	84.5946
2082.94	83.891
2085.5	81.9411
2088.06	81.1095
2090.62	77.2223
2093.18	76.0405
2095.74	76.296
2098.29	77.4044
2100.85	73.4676
2103.41	77.738
2105.97	81.7581
2108.53	74.8554
2111.09	75.07
2113.65	79.6266
2116.2	77.7461
2118.76	81.1664
2121.32	83.5917
2123.88	79.9888
2126.44	82.7858
2129	80.1508
2131.56	79.5223
2134.12	80.1059
2136.67	84.5395
2139.23	81.8339
2141.79	83.0824
2144.35	73.9293
2146.91	79.0266
2149.47	83.8901
2152.03	78.8475
2154.58	82.3425
2157.14	88.4089
2159.7	80.0852
2162.26	91.4205
2164.82	79.5062
2167.38	77.5315
2169.94	79.9554
2172.49	84.4215
2175.05	86.9102
2177.61	85.3218
2180.17	82.518
2182.73	84.3928
2185.29	87.0008
2187.85	81.4573
2190.41	82.7728
2192.96	84.8526
2195.52	85.8767
2198.08	82.2363
2200.64	84.1503
2203.2	83.3997
2205.76	84.2615
2208.32	85.7067
2210.87	86.183
2213.43	82.9539
2215.99	82.9888
2218.55	84.8308
2221.11	87.13
2223.67	86.4171
2226.23	85.2059
2228.78	86.7519
2231.34	86.2956
2233.9	90.902
2236.46	81.9649
2239.02	90.9257
2241.58	84.9924
2244.14	84.4193
2246.7	87.6148
2249.25	86.3544
2251.81	86.9058
2254.37	94.0714
2256.93	89.9398
2259.49	89.3017
2262.05	93.9226
2264.61	91.1537
2267.16	92.5559
2269.72	89.87
2272.28	90.5565
2274.84	93.0184
2277.4	89.6186
2279.96	90.3855
2282.52	91.9133
2285.07	91.9455
2287.63	93.2381
2290.19	91.0377
2292.75	88.0459
2295.31	93.682
2297.87	95.4356
2300.43	93.2082
2302.99	93.9827
2305.54	94.2881
2308.1	97.2461
2310.66	103.188
2313.22	95.65
2315.78	93.0193
2318.34	99.1357
2320.9	95.2164
2323.45	96.2552
2326.01	100.814
2328.57	101.904
2331.13	110.496
2333.69	117.361
2336.25	122.517
2338.81	120.414
2341.36	111.915
2343.92	104.839
2346.48	103.777
2349.04	104.906
2351.6	105.774
2354.16	110.619
2356.72	108.894
2359.28	107.871
2361.83	107.292
2364.39	106.463
2366.95	102.704
2369.51	102.749
2372.07	108.788
2374.63	106.696
2377.19	110.994
2379.74	107.979
2382.3	110.002
2384.86	110.96
2387.42	114.595
2389.98	113.704
2392.54	114.602
2395.1	116.765
2397.65	118.364
2400.21	114.593
2402.77	116.913
2405.33	119.514
2407.89	119.172
2410.45	117.299
2413.01	119.021
2415.56	127.749
2418.12	124.997
2420.68	128.936
2423.24	126.847
2425.8	130.348
2428.36	134.682
2430.92	139.805
2433.48	140.514
2436.03	150.027
2438.59	143.773
2441.15	148.577
2443.71	141.689
2446.27	140.957
2448.83	143.653
2451.39	140.381
2453.94	137.68
2456.5	139.091
2459.06	139.354
2461.62	145.043
2464.18	140.199
2466.74	144.141
2469.3	136.801
2471.85	137.104
2474.41	138.6
2476.97	145.189
2479.53	144.343
2482.09	143.294
2484.65	151.872
2487.21	139.628
2489.77	151.719
2492.32	157.977
2494.88	146.614
2497.44	143.156
2500	145.107
2502.56	143.183
2505.12	150.627
2507.68	148.969
2510.23	157.157
2512.79	158.571
2515.35	156.586
2517.91	157.907
2520.47	154.728
2523.03	153.371
2525.59	154.948
2528.15	160.77
2530.7	165.814
2533.26	161.513
2535.82	161.536
2538.38	167.477
2540.94	171.092
2543.5	167.896
2546.06	165.57
2548.61	167.276
2551.17	164.847
2553.73	167.038
2556.29	165.612
2558.85	164.785
2561.41	173.348
2563.97	173.451
2566.52	174.862
2569.08	174.485
2571.64	176.803
2574.2	175.832
2576.76	170.469
2579.32	184.045
2581.88	180.409
2584.44	178.502
2586.99	181.232
2589.55	184.494
2592.11	179.238
2594.67	181.276
2597.23	180.247
2599.79	177.573
2602.35	189.511
2604.9	187.754
2607.46	179.914
2610.02	187.483
2612.58	185.37
2615.14	188.285
2617.7	192.197
2620.26	197.446
2622.81	191.117
2625.37	186.49
2627.93	188.771
2630.49	186.006
2633.05	188.135
2635.61	201.451
2638.17	190.157
2640.72	193.482
2643.28	198.732
2645.84	192.242
2648.4	191.876
2650.96	201.573
2653.52	203.214
2656.08	207.303
2658.64	204.36
2661.19	201.954
2663.75	202.749
2666.31	206.798
2668.87	205.127
2671.43	210.943
2673.99	203.682
2676.55	198.571
2679.1	205.314
2681.66	204.483
2684.22	212.596
2686.78	211.946
2689.34	212.884
2691.9	207.421
2694.46	215.371
2697.01	206.543
2699.57	211.576
2702.13	208.439
2704.69	214.395
2707.25	219.496
2709.81	212.29
2712.37	209.202
2714.93	218.744
2717.48	218.896
2720.04	216.789
2722.6	214.945
2725.16	217.539
2727.72	217.128
2730.28	221.039
2732.84	210.34
2735.39	213.029
2737.95	219.209
2740.51	222.616
2743.07	221.801
2745.63	219.063
2748.19	223.266
2750.75	220.213
2753.3	215.241
2755.86	220.401
2758.42	224.215
2760.98	219.254
2763.54	219.323
2766.1	218.777
2768.66	218.53
2771.22	211.814
2773.77	229.203
2776.33	233.36
2778.89	225.141
2781.45	225.535
2784.01	223.853
2786.57	222.491
2789.13	226.443
2791.68	230.695
2794.24	232.418
2796.8	231.554
2799.36	230.982
2801.92	239.319
2804.48	224.023
2807.04	230.433
2809.59	240.271
2812.15	236.824
2814.71	231.026
2817.27	230.142
2819.83	224.853
2822.39	224.777
2824.95	218.557
2827.51	232.319
2830.06	242.082
2832.62	226.354
2835.18	232.605
2837.74	231.122
2840.3	227.663
2842.86	230.658
2845.42	235.102
2847.97	242.501
2850.53	235.633
2853.09	236.927
2855.65	236.933
2858.21	232.646
2860.77	240.346
2863.33	245.609
2865.88	238.69
2868.44	237.119
2871	243.469
2873.56	237.075
2876.12	237.398
2878.68	237.383
2881.24	242.62
2883.8	244.85
2886.35	247.887
2888.91	242.318
2891.47	243.006
2894.03	241.262
2896.59	242.019
2899.15	244.586
2901.71	240.421
2904.26	240.54
2906.82	236.631
2909.38	244.57
2911.94	250.61
2914.5	249.769
2917.06	243.362
2919.62	250.26
2922.17	247.162
2924.73	247.875
2927.29	237.468
2929.85	241.991
2932.41	249.434
2934.97	236.975
2937.53	244.041
2940.09	253.083
2942.64	237.597
2945.2	256.137
2947.76	252.681
2950.32	245.328
2952.88	229.403
2955.44	249.677
2958	236.155
2960.55	240.348
2963.11	239.884
2965.67	246.906
2968.23	233.527
2970.79	237.791
2973.35	230.901
2975.91	235.742
2978.46	234.151
2981.02	230.482
2983.58	229.537
2986.14	227.784
2988.7	223.761
2991.26	230.245
2993.82	226.395
2996.38	216.984
2998.93	221.284
3001.49	214.629
3004.05	219.601
3006.61	216.558
3009.17	206.213
3011.73	210.309
3014.29	206.465
3016.84	215.609
3019.4	201.152
3021.96	205.35
3024.52	203.024
3027.08	196.64
3029.64	210.546
3032.2	199.662
3034.75	202.28
3037.31	193.771
3039.87	194.357
3042.43	196.627
3044.99	202.862
3047.55	186.993
3050.11	195.685
3052.67	194.908
3055.22	188.257
3057.78	193.355
3060.34	188.546
3062.9	183.2
3065.46	193.898
3068.02	184.656
3070.58	188.079
3073.13	191.553
3075.69	180.847
3078.25	184.659
3080.81	184.88
3083.37	183.14
3085.93	180.497
3088.49	182.97
3091.04	178.92
3093.6	174.865
3096.16	171.474
3098.72	179.657
3101.28	179.509
3103.84	175.571
3106.4	170.094
3108.96	184.677
3111.51	175.557
3114.07	182.398
3116.63	183.55
3119.19	179.078
3121.75	168.636
3124.31	167.074
3126.87	166.915
3129.42	171.76
3131.98	179.087
3134.54	178.537
3137.1	172.076
3139.66	169.047
3142.22	172.495
3144.78	176.415
3147.33	176.275
3149.89	174.188
3152.45	171.617
3155.01	176.968
3157.57	170.327
3160.13	186.911
3162.69	168.571
3165.25	172.275
3167.8	173.947
3170.36	173.895
3172.92	163.079
3175.48	179.873
3178.04	170.304
3180.6	179.029
3183.16	178.068
3185.71	169.661
3188.27	177.094
3190.83	168.558
3193.39	171.624
3195.95	175.149
3198.51	177.604
3201.07	173.533
3203.62	167.746
3206.18	169.934
3208.74	178.258
3211.3	172.893
3213.86	172.921
3216.42	176.647
3218.98	169.686
3221.54	166.808
3224.09	160.915
3226.65	164.618
3229.21	168.689
3231.77	165.482
3234.33	159.295
3236.89	151.533
3239.45	153.983
3242	155.562
3244.56	152.782
3247.12	151.412
3249.68	140.234
3252.24	151.085
3254.8	138.891
3257.36	142.308
3259.91	147.128
3262.47	151.516
3265.03	134.397
3267.59	141.124
3270.15	140.392
3272.71	141.203
3275.27	140.835
3277.83	139.005
3280.38	134.915
3282.94	141.843
3285.5	129.367
3288.06	134.08
3290.62	133.182
3293.18	129.738
3295.74	128.822
3298.29	130.05
3300.85	120.474
3303.41	127.334
3305.97	135.956
3308.53	120.322
3311.09	129.451
3313.65	119.255
3316.2	121.676
3318.76	126.333
3321.32	128.224
3323.88	121.67
3326.44	123.409
3329	119.47
3331.56	118.423
3334.12	123.566
3336.67	124.674
3339.23	120.946
3341.79	120.098
3344.35	121.07
3346.91	117.981
3349.47	119.237
3352.03	119.565
3354.58	116.843
3357.14	117.165
3359.7	122.729
3362.26	123.447
3364.82	117.514
3367.38	124.002
3369.94	118.758
3372.49	123.123
3375.05	114.781
3377.61	107.925
3380.17	116.976
3382.73	116.615
3385.29	121.853
3387.85	123.274
3390.41	114.725
3392.96	116.427
3395.52	110.138
3398.08	112.098
3400.64	115.183
3403.2	112.187
3405.76	122.015
3408.32	118.538
3410.87	119.447
3413.43	120.96
3415.99	119.931
3418.55	120.355
3421.11	118.004
3423.67	122.977
3426.23	114.799
3428.78	117.098
3431.34	121.947
3433.9	124.687
3436.46	119.931
3439.02	123.705
3441.58	116.655
3444.14	125.164
3446.7	121.77
3449.25	119.447
3451.81	120.099
3454.37	121.872
3456.93	119.391
3459.49	114.805
3462.05	116.266
3464.61	116.708
3467.16	123.16
3469.72	115.009
3472.28	114.056
3474.84	124.215
3477.4	116.631
3479.96	120.795
3482.52	119.063
3485.07	118.775
3487.63	118.766
3490.19	117.889
3492.75	122.068
3495.31	120.383
3497.87	115.901
3500.43	119.081
3502.99	113.344
3505.54	116.13
3508.1	121.961
3510.66	112.814
3513.22	114.905
3515.78	120.361
3518.34	118.85
3520.9	125.092
3523.45	117.801
3526.01	120.326
3528.57	114.986
3531.13	121.618
3533.69	123.701
3536.25	121.068
3538.81	119.774
3541.36	118.918
3543.92	125.382
3546.48	121.936
3549.04	125.873
3551.6	127.251
3554.16	121.747
3556.72	125.112
3559.28	129.874
3561.83	119.55
3564.39	117.153
3566.95	125.179
3569.51	119.628
3572.07	130.578
3574.63	118.722
3577.19	125.125
3579.74	127.684
3582.3	124.057
3584.86	127.309
3587.42	124.317
3589.98	122.59
3592.54	131.062
3595.1	122.516
3597.65	126.015
3600.21	128.978
3602.77	125.277
3605.33	126.027
3607.89	129.203
3610.45	125.156
3613.01	127.295
3615.56	123.912
3618.12	133.699
3620.68	121.979
3623.24	127.226
3625.8	125.486
3628.36	124.678
3630.92	129.717
3633.48	125.572
3636.03	127.221
3638.59	123.563
3641.15	130.619
3643.71	132.004
3646.27	134.067
3648.83	127.033
3651.39	131.061
3653.94	125.542
3656.5	123.929
3659.06	132.603
3661.62	127.631
3664.18	131.794
3666.74	125.432
3669.3	124.606
3671.85	120.758
3674.41	119.527
3676.97	119.402
3679.53	131.906
3682.09	122.755
3684.65	136.135
3687.21	127.133
3689.77	127.776
3692.32	130.972
3694.88	128.243
3697.44	133.331
3700	129.391