File: Example Data/Raman/CNT - TIM/Raytheon/FeSi adhesion/Test 7/FeSi2 - T7_1.txt
300	347.919
301.488	357.295
302.977	340.636
304.465	336.726
305.953	331.34
307.442	338.509
308.93	343.369
310.418	337.793
311.906	327.596
313.395	327.039
314.883	339.685
316.371	328.168
317.86	316.056
319.348	334.074
320.836	327.414
322.325	322.529
323.813	320.298
325.301	319.52
326.79	312.968
328.278	321.933
329.766	311.217
331.254	307.091
332.743	314.59
334.231	316.582
335.719	313.808
337.208	314.333
338.696	308.831
340.184	306.269
341.673	305.663
343.161	310.735
344.649	293.586
346.137	292.895
347.626	311.623
349.114	301.253
350.602	308.833
352.091	301.466
353.579	299.995
355.067	294.227
356.556	279.633
358.044	305.343
359.532	296.493
361.021	305.843
362.509	292.501
363.997	297.894
365.485	298.013
366.974	289.435
368.462	279.974
369.95	293.334
371.439	294.389
372.927	311.572
374.415	286.911
375.904	292.233
377.392	276.26
378.88	289.237
380.369	285.646
381.857	279.357
383.345	295.664
384.833	281.982
386.322	288.324
387.81	287.974
389.298	292.06
390.787	284.987
392.275	277.218
393.763	292.053
395.252	282.269
396.74	276.308
398.228	284.698
399.717	280.935
401.205	276.291
402.693	273.46
404.181	289.961
405.67	284.962
407.158	285.484
408.646	281.218
410.135	289.473
411.623	279.607
413.111	278.3
414.6	268.358
416.088	272.818
417.576	279.705
419.064	270.671
420.553	282.368
422.041	270.2
423.529	277.765
425.018	280.478
426.506	271.304
427.994	273.235
429.483	272.927
430.971	262.248
432.459	292.608
433.948	272.211
435.436	275.669
436.924	275.013
438.412	286.098
439.901	266.28
441.389	266.379
442.877	264.163
444.366	264.021
445.854	258.593
447.342	259.456
448.831	271.031
450.319	252.038
451.807	264.496
453.296	261.858
454.784	259.423
456.272	265.544
457.76	252.005
459.249	259.806
460.737	248.775
462.225	252.81
463.714	256.707
465.202	259.569
466.69	252.491
468.179	255.151
469.667	258.024
471.155	256.539
472.644	267.824
474.132	243.945
475.62	253.081
477.108	257.052
478.597	253.882
480.085	252.739
481.573	254.831
483.062	262.174
484.55	250.291
486.038	246.444
487.527	241.107
489.015	249.516
490.503	242.766
491.991	241.635
493.48	249.164
494.968	246.218
496.456	241.455
497.945	236.109
499.433	235.216
500.921	247.786
502.41	233.193
503.898	246.174
505.386	242.75
506.875	244.17
508.363	238.921
509.851	239.496
511.339	246.925
512.828	242.059
514.316	240.457
515.804	251.253
517.293	258.086
518.781	265.815
520.269	289.351
521.758	280.608
523.246	271.025
524.734	257.729
526.223	246.782
527.711	258.569
529.199	238.926
530.687	241.647
532.176	249.363
533.664	246.936
535.152	240.064
536.641	233.243
538.129	233.138
539.617	226.897
541.106	236.069
542.594	229.801
544.082	237.255
545.57	233.662
547.059	239.547
548.547	230.673
550.035	227.72
551.524	226.146
553.012	233.68
554.5	237.069
555.989	227.121
557.477	232.833
558.965	247.77
560.454	229.761
561.942	232.897
563.43	235.25
564.919	239.633
566.407	229.219
567.895	236.869
569.383	247.744
570.872	230.795
572.36	227.307
573.848	232.831
575.337	231.826
576.825	232.869
578.313	241.564
579.802	235.299
581.29	223.642
582.778	234.699
584.266	234.855
585.755	241.465
587.243	243.961
588.731	243.098
590.22	236.36
591.708	234.481
593.196	226.34
594.685	228.215
596.173	238.664
597.661	239.323
599.15	248.125
600.638	232.553
602.126	228.708
603.614	230.495
605.103	243.744
606.591	235.705
608.079	229.854
609.568	233.928
611.056	243.33
612.544	246.557
614.033	229.356
615.521	242.036
617.009	237.102
618.497	237.828
619.986	239.47
621.474	238.14
622.962	231.456
624.451	241.495
625.939	244.973
627.427	238.016
628.916	241.471
630.404	244.701
631.892	240.085
633.381	245.792
634.869	252.359
636.357	252.775
637.846	246.502
639.334	249.027
640.822	256.298
642.31	238.693
643.799	241.432
645.287	261.865
646.775	247.66
648.264	249.509
649.752	257.533
651.24	252.311
652.729	248.834
654.217	247.976
655.705	265.597
657.193	261.181
658.682	254.066
660.17	251.233
661.658	253.803
663.147	264.111
664.635	242.009
666.123	260.037
667.612	255.12
669.1	253.083
670.588	249.162
672.077	256.93
673.565	260.182
675.053	262.043
676.541	265.095
678.03	268.772
679.518	248.709
681.006	262.698
682.495	253.139
683.983	266.548
685.471	262.589
686.96	274.894
688.448	258.671
689.936	255.046
691.424	266.355
692.913	269.582
694.401	259.884
695.889	261.017
697.378	265.083
698.866	269.023
700.354	263.737
701.843	256.913
703.331	269.185
704.819	263.948
706.308	277.273
707.796	267.09
709.284	268.221
710.773	264.758
712.261	266.369
713.749	274.025
715.237	270.521
716.726	287.505
718.214	267.958
719.702	274.027
721.191	282.428
722.679	276.476
724.167	282.642
725.656	283.684
727.144	279.006
728.632	284.746
730.12	295.135
731.609	288.872
733.097	293.689
734.585	292.099
736.074	300.071
737.562	293.937
739.05	293.88
740.539	295.441
742.027	287.45
743.515	294.408
745.004	297.159
746.492	294.316
747.98	297.271
749.468	302.144
750.957	301.876
752.445	292.338
753.933	297.312
755.422	311.975
756.91	298.394
758.398	305.858
759.887	307.516
761.375	305.709
762.863	318.573
764.352	298.569
765.84	309.703
767.328	311.992
768.816	300.753
770.305	307.59
771.793	305.125
773.281	307.727
774.77	304.458
776.258	310.924
777.746	312.064
779.235	314.987
780.723	318.561
782.211	311.273
783.7	317.72
785.188	314.738
786.676	325.269
788.164	313.92
789.653	312.3
791.141	322.133
792.629	324.038
794.118	317.892
795.606	324.769
797.094	305.315
798.583	319.636
800.071	331.765
801.559	328.704
803.047	320.751
804.536	329.044
806.024	322.248
807.512	332.522
809.001	333.585
810.489	328.841
811.977	326.679
813.466	343.372
814.954	334.986
816.442	326.88
817.931	332.265
819.419	339.79
820.907	341.737
822.395	345.01
823.884	345.623
825.372	338.384
826.86	338.023
828.349	345.628
829.837	346.145
831.325	354.876
832.814	355.02
834.302	340.836
835.79	358.74
837.279	353.711
838.767	350.931
840.255	339.656
841.743	358.823
843.232	349.943
844.72	351.11
846.208	360.319
847.697	351.217
849.185	360.489
850.673	354.98
852.162	375.076
853.65	363.415
855.138	362.654
856.627	352.029
858.115	350.295
859.603	346.034
861.091	338.938
862.58	350.098
864.068	341.22
865.556	337.853
867.045	337.569
868.533	345.84
870.021	331.36
871.51	327.276
872.998	328.986
874.486	329.127
875.974	324.337
877.463	331.083
878.951	321.822
880.439	307.831
881.928	306.84
883.416	311.128
884.904	314.298
886.393	318.008
887.881	319.239
889.369	303.336
890.858	311.838
892.346	298.45
893.834	304.468
895.322	295.478
896.811	303.848
898.299	288.26
899.787	298.432
901.276	293.934
902.764	284
904.252	284.694
905.741	296.733
907.229	290.532
908.717	282.835
910.206	271.678
911.694	286.747
913.182	271.092
914.67	283.214
916.159	275.066
917.647	276.108
919.135	273.114
920.624	272.352
922.112	280.018
923.6	275.293
925.089	279.009
926.577	267.955
928.065	271.993
929.554	276.131
931.042	265.002
932.53	278.069
934.018	263.882
935.507	271.1
936.995	274.12
938.483	275.25
939.972	276.618
941.46	276.032
942.948	265.421
944.437	274.53
945.925	271.127
947.413	273.705
948.901	277.824
950.39	261.379
951.878	289.253
953.366	259.994
954.855	283.689
956.343	266.259
957.831	261.693
959.32	270.803
960.808	266.285
962.296	257.085
963.785	267.581
965.273	258.221
966.761	266.359
968.249	264.838
969.738	259.38
971.226	263.531
972.714	271.303
974.203	259.053
975.691	273.399
977.179	274.908
978.668	276.779
980.156	275.354
981.644	271.251
983.133	277.699
984.621	262.944
986.109	267.267
987.597	273.302
989.086	262.093
990.574	273.594
992.062	272.305
993.551	276.508
995.039	267.627
996.527	260.948
998.016	273.091
999.504	273.251
1000.99	277.482
1002.48	271.175
1003.97	286.309
1005.46	283.718
1006.95	280.608
1008.43	290.16
1009.92	282.979
1011.41	282.885
1012.9	282.528
1014.39	285.882
1015.88	276.448
1017.36	290.919
1018.85	293.215
1020.34	284.553
1021.83	291.138
1023.32	293.918
1024.81	298.622
1026.29	303.156
1027.78	312.924
1029.27	307.13
1030.76	314.91
1032.25	296.932
1033.73	303.805
1035.22	301.438
1036.71	316.73
1038.2	309.532
1039.69	304.402
1041.18	313.122
1042.66	307.511
1044.15	306.547
1045.64	316.808
1047.13	314.862
1048.62	318.008
1050.11	331.661
1051.59	318.473
1053.08	310.403
1054.57	340.231
1056.06	323.405
1057.55	331.05
1059.04	324.431
1060.52	323.927
1062.01	319.424
1063.5	326.474
1064.99	324.246
1066.48	323.843
1067.97	331.859
1069.45	322.626
1070.94	324.99
1072.43	325.655
1073.92	339.883
1075.41	339.959
1076.9	339.779
1078.38	337.457
1079.87	330.664
1081.36	342.316
1082.85	338.602
1084.34	335.965
1085.83	348.348
1087.31	346.89
1088.8	344.147
1090.29	344.108
1091.78	342.043
1093.27	346.63
1094.76	348.806
1096.24	350.079
1097.73	347.668
1099.22	347.457
1100.71	335.133
1102.2	355.347
1103.69	353.209
1105.17	360.704
1106.66	354.283
1108.15	352.144
1109.64	346.838
1111.13	348.862
1112.62	354.089
1114.1	354.481
1115.59	351.726
1117.08	353.995
1118.57	351.911
1120.06	351.513
1121.55	352.277
1123.03	348.57
1124.52	363.677
1126.01	347.893
1127.5	337.99
1128.99	345.057
1130.47	359.474
1131.96	345.566
1133.45	346.703
1134.94	363.138
1136.43	352.665
1137.92	350.843
1139.4	349.422
1140.89	345.686
1142.38	356.241
1143.87	345.692
1145.36	361.187
1146.85	353.804
1148.33	342.323
1149.82	359.7
1151.31	355.154
1152.8	361.031
1154.29	349.504
1155.78	367.223
1157.26	362.407
1158.75	354.855
1160.24	353.75
1161.73	377.511
1163.22	354.757
1164.71	360.074
1166.19	363.709
1167.68	365.986
1169.17	360.588
1170.66	371.701
1172.15	374.749
1173.64	374.787
1175.12	370.349
1176.61	374.406
1178.1	364.127
1179.59	381.226
1181.08	382.543
1182.57	359.951
1184.05	384.104
1185.54	368.09
1187.03	379.11
1188.52	379.365
1190.01	380.154
1191.5	368.842
1192.98	380.57
1194.47	393.733
1195.96	377.655
1197.45	386.049
1198.94	395.356
1200.43	387.88
1201.91	394.336
1203.4	390.103
1204.89	391.358
1206.38	410.211
1207.87	412.659
1209.36	411.537
1210.84	409.515
1212.33	404.872
1213.82	417.904
1215.31	417.799
1216.8	415.774
1218.28	419.892
1219.77	429.164
1221.26	437.846
1222.75	418.922
1224.24	430.326
1225.73	433.811
1227.21	453.174
1228.7	426.566
1230.19	444.344
1231.68	456.42
1233.17	449.784
1234.66	456.065
1236.14	458.529
1237.63	469.338
1239.12	489.277
1240.61	461.084
1242.1	478.252
1243.59	481.722
1245.07	486.973
1246.56	484.026
1248.05	486.135
1249.54	503.882
1251.03	519.355
1252.52	508.877
1254	508.045
1255.49	517.079
1256.98	530.621
1258.47	530.698
1259.96	533.881
1261.45	537.248
1262.93	548.851
1264.42	557.179
1265.91	573.108
1267.4	585.677
1268.89	583.13
1270.38	583.288
1271.86	592.151
1273.35	605.575
1274.84	602.238
1276.33	628.351
1277.82	633.97
1279.31	670.3
1280.79	681.513
1282.28	681.892
1283.77	707.797
1285.26	720.502
1286.75	725.366
1288.24	744.843
1289.72	779.561
1291.21	784.163
1292.7	817.352
1294.19	848.443
1295.68	842.943
1297.17	891.002
1298.65	925.89
1300.14	944.625
1301.63	959.264
1303.12	1002.72
1304.61	1055.76
1306.09	1082.92
1307.58	1130.92
1309.07	1173.05
1310.56	1212.39
1312.05	1271.58
1313.54	1340.25
1315.02	1409.75
1316.51	1442.33
1318	1498.67
1319.49	1538.98
1320.98	1620.52
1322.47	1683.17
1323.95	1735.75
1325.44	1789.35
1326.93	1853.84
1328.42	1879.73
1329.91	1936.29
1331.4	1945.4
1332.88	1993.32
1334.37	2008.16
1335.86	1998.71
1337.35	2011.91
1338.84	1982.41
1340.33	1987.27
1341.81	1980.29
1343.3	1930.62
1344.79	1919.91
1346.28	1850.26
1347.77	1796.97
1349.26	1740.35
1350.74	1712.29
1352.23	1675.54
1353.72	1603.34
1355.21	1551.94
1356.7	1486.92
1358.19	1439.41
1359.67	1370.84
1361.16	1337.06
1362.65	1286.27
1364.14	1235.36
1365.63	1207.51
1367.12	1153.52
1368.6	1092.54
1370.09	1076.4
1371.58	1025.49
1373.07	986.961
1374.56	955.334
1376.05	930.445
1377.53	893.315
1379.02	870.169
1380.51	858.846
1382	813.843
1383.49	827.318
1384.98	775.016
1386.46	778.142
1387.95	738.675
1389.44	732.622
1390.93	716.132
1392.42	698.489
1393.91	681.247
1395.39	678.349
1396.88	674.198
1398.37	624.295
1399.86	655.228
1401.35	657.942
1402.83	632.036
1404.32	626.836
1405.81	622.378
1407.3	626.987
1408.79	600.791
1410.28	589.719
1411.76	601.491
1413.25	589.248
1414.74	572.031
1416.23	573.055
1417.72	583.016
1419.21	562.11
1420.69	544.534
1422.18	560.743
1423.67	559.82
1425.16	563.304
1426.65	536.084
1428.14	544.331
1429.62	543.557
1431.11	542.787
1432.6	548.331
1434.09	537.177
1435.58	520.248
1437.07	523.882
1438.55	530.645
1440.04	540.561
1441.53	528.48
1443.02	541.361
1444.51	519.612
1446	523.825
1447.48	537.25
1448.97	534.36
1450.46	514.79
1451.95	526.682
1453.44	543.912
1454.93	516.504
1456.41	537.664
1457.9	538.284
1459.39	533.314
1460.88	549.839
1462.37	535.49
1463.86	542.979
1465.34	540.385
1466.83	537.438
1468.32	540.585
1469.81	543
1471.3	547.508
1472.79	531.434
1474.27	541.578
1475.76	529.706
1477.25	553.402
1478.74	541.507
1480.23	544.139
1481.72	536.15
1483.2	523.45
1484.69	551.387
1486.18	562.987
1487.67	553.864
1489.16	556.708
1490.64	546.119
1492.13	551.943
1493.62	565.795
1495.11	565.915
1496.6	558.475
1498.09	588.467
1499.57	591.328
1501.06	588.216
1502.55	567.9
1504.04	572.94
1505.53	597.232
1507.02	585.671
1508.5	595.082
1509.99	622.573
1511.48	616.82
1512.97	609.745
1514.46	613.882
1515.95	636.145
1517.43	659.306
1518.92	651.73
1520.41	672.68
1521.9	687.618
1523.39	696.185
1524.88	696.574
1526.36	717.007
1527.85	721.747
1529.34	753.307
1530.83	782.256
1532.32	819.565
1533.81	825.848
1535.29	863.937
1536.78	893.048
1538.27	895.214
1539.76	929.26
1541.25	967.176
1542.74	1016.66
1544.22	1048.72
1545.71	1073.12
1547.2	1122.05
1548.69	1177.48
1550.18	1235.28
1551.67	1295.05
1553.15	1334.1
1554.64	1397.03
1556.13	1486.4
1557.62	1556.3
1559.11	1552.99
1560.6	1609.47
1562.08	1628.03
1563.57	1685.9
1565.06	1718.49
1566.55	1765.31
1568.04	1770.12
1569.53	1771.29
1571.01	1795.86
1572.5	1804.88
1573.99	1812.1
1575.48	1796.06
1576.97	1802.34
1578.45	1753.81
1579.94	1701.18
1581.43	1687.76
1582.92	1680.72
1584.41	1657.78
1585.9	1617.34
1587.38	1553.91
1588.87	1539.21
1590.36	1510.55
1591.85	1495.29
1593.34	1489.38
1594.83	1466.44
1596.31	1427.52
1597.8	1446.98
1599.29	1413.19
1600.78	1385.9
1602.27	1355.88
1603.76	1343.35
1605.24	1330.78
1606.73	1266.71
1608.22	1233.96
1609.71	1212.87
1611.2	1171.18
1612.69	1127.06
1614.17	1090.96
1615.66	1065.13
1617.15	1005.74
1618.64	966.427
1620.13	911.978
1621.62	878.91
1623.1	836.775
1624.59	791.662
1626.08	761.96
1627.57	731.51
1629.06	693.809
1630.55	644.795
1632.03	629.931
1633.52	598.072
1635.01	583.411
1636.5	566.372
1637.99	538.224
1639.48	520.495
1640.96	515.562
1642.45	482.918
1643.94	465.504
1645.43	461.849
1646.92	440.191
1648.41	456.77
1649.89	432.589
1651.38	417.342
1652.87	410.452
1654.36	383.807
1655.85	396.8
1657.34	382.544
1658.82	382.897
1660.31	385.103
1661.8	350.862
1663.29	366.361
1664.78	354.047
1666.27	343.05
1667.75	355.726
1669.24	335.525
1670.73	337.706
1672.22	330.461
1673.71	324.888
1675.19	328.759
1676.68	327.392
1678.17	322.003
1679.66	325.211
1681.15	313.517
1682.64	305.95
1684.12	310.826
1685.61	305.782
1687.1	310.042
1688.59	299.231
1690.08	305.928
1691.57	306.259
1693.05	299.167
1694.54	296.854
1696.03	299.42
1697.52	304.414
1699.01	303.123
1700.5	299.347
1701.98	298.615
1703.47	301.624
1704.96	301.891
1706.45	290.301
1707.94	286.557
1709.43	290.647
1710.91	294.516
1712.4	288.548
1713.89	306.614
1715.38	302.056
1716.87	295.912
1718.36	302.38
1719.84	293.968
1721.33	285.38
1722.82	283.718
1724.31	294.642
1725.8	291.148
1727.29	295.694
1728.77	290.489
1730.26	291.257
1731.75	282.534
1733.24	286.657
1734.73	294.956
1736.22	288.184
1737.7	285.68
1739.19	296.724
1740.68	288.495
1742.17	294.922
1743.66	291.529
1745.15	292.677
1746.63	289.727
1748.12	284.466
1749.61	300.588
1751.1	293.604
1752.59	290.807
1754.08	303.469
1755.56	295.798
1757.05	292.404
1758.54	293.163
1760.03	291.821
1761.52	296.255
1763.01	285.444
1764.49	287.817
1765.98	298.146
1767.47	301.703
1768.96	292.828
1770.45	302.492
1771.93	302.38
1773.42	302.749
1774.91	301.382
1776.4	307.057
1777.89	300.708
1779.38	288.64
1780.86	305.799
1782.35	299.138
1783.84	301.181
1785.33	306.959
1786.82	302.816
1788.31	304.591
1789.79	309.312
1791.28	310.616
1792.77	303.071
1794.26	318.147
1795.75	311.911
1797.24	311.219
1798.72	312.745
1800.21	310.624
1801.7	320.539
1803.19	317.339
1804.68	314.877
1806.17	307.347
1807.65	308.581
1809.14	315.476
1810.63	330.952
1812.12	317.103
1813.61	314.556
1815.1	328.442
1816.58	314.466
1818.07	317.172
1819.56	323.121
1821.05	318.243
1822.54	315.912
1824.03	321.292
1825.51	320
1827	323.854
1828.49	312.663
1829.98	316.68
1831.47	325.318
1832.96	325.148
1834.44	324.576
1835.93	326.254
1837.42	328.772
1838.91	317.327
1840.4	311.53
1841.89	317.575
1843.37	326.376
1844.86	322.585
1846.35	336.353
1847.84	323.079
1849.33	329.751
1850.82	331.598
1852.3	331.042
1853.79	331.803
1855.28	316.263
1856.77	320.019
1858.26	323.71
1859.74	330.25
1861.23	331.009
1862.72	326.827
1864.21	320.876
1865.7	333.601
1867.19	335.288
1868.67	330.401
1870.16	330.803
1871.65	307.438
1873.14	323.756
1874.63	315.509
1876.12	327.324
1877.6	327.526
1879.09	327.583
1880.58	333.278
1882.07	337.186
1883.56	328.466
1885.05	325.92
1886.53	327.534
1888.02	315.672
1889.51	323.046
1891	321.851
1892.49	324.805
1893.98	322.976
1895.46	319.85
1896.95	319.446
1898.44	318.81
1899.93	320.648
1901.42	320.178
1902.91	315.587
1904.39	321.594
1905.88	325.57
1907.37	319.114
1908.86	317.196
1910.35	321.377
1911.84	325.192
1913.32	323.958
1914.81	307.806
1916.3	319.969
1917.79	322.093
1919.28	322.601
1920.77	321.061
1922.25	320.285
1923.74	315.824
1925.23	317.376
1926.72	318.561
1928.21	320.869
1929.7	320.62
1931.18	320.419
1932.67	322.476
1934.16	318.266
1935.65	316.255
1937.14	324.925
1938.63	305.113
1940.11	330.772
1941.6	313.947
1943.09	320.452
1944.58	314.218
1946.07	326.051
1947.55	313.347
1949.04	320.45
1950.53	313.001
1952.02	320.441
1953.51	318.338
1955	302.882
1956.48	323.595
1957.97	321.146
1959.46	319.202
1960.95	327.85
1962.44	309.068
1963.93	308.847
1965.41	309.13
1966.9	322.805
1968.39	315.128
1969.88	321.522
1971.37	314.559
1972.86	310.497
1974.34	325.908
1975.83	314.468
1977.32	324.524
1978.81	316.561
1980.3	331.23
1981.79	329.394
1983.27	314.547
1984.76	321.941
1986.25	320.78
1987.74	306.699
1989.23	321.304
1990.72	322.067
1992.2	326.556
1993.69	328.272
1995.18	316.001
1996.67	335.719
1998.16	325.906
1999.65	330.379
2001.13	329.54
2002.62	315.897
2004.11	319.926
2005.6	317.221
2007.09	334.721
2008.58	335.26
2010.06	322.187
2011.55	329.927
2013.04	316.185
2014.53	333.363
2016.02	330.17
2017.51	326.987
2018.99	329.136
2020.48	321.553
2021.97	334.223
2023.46	332.016
2024.95	336.57
2026.44	330.37
2027.92	331.128
2029.41	320.3
2030.9	322.981
2032.39	319.743
2033.88	330.233
2035.36	321.926
2036.85	337.034
2038.34	313.58
2039.83	337.086
2041.32	330.76
2042.81	338.001
2044.29	340.349
2045.78	331.018
2047.27	318.422
2048.76	326.595
2050.25	326.2
2051.74	324.238
2053.22	329.002
2054.71	334.385
2056.2	321.172
2057.69	330.686
2059.18	340.771
2060.67	332.988
2062.15	332.54
2063.64	328.56
2065.13	318.785
2066.62	320.244
2068.11	322.621
2069.6	323.905
2071.08	328.871
2072.57	324.91
2074.06	333.074
2075.55	328.772
2077.04	319.033
2078.53	325.979
2080.01	330.691
2081.5	329.767
2082.99	333.315
2084.48	338.727
2085.97	323.246
2087.46	318.108
2088.94	336.133
2090.43	322.848
2091.92	319.169
2093.41	334.153
2094.9	328.177
2096.39	326.993
2097.87	323.654
2099.36	324.874
2100.85	330.613
2102.34	335.163
2103.83	323.085
2105.32	325.662
2106.8	327.418
2108.29	332.841
2109.78	322.137
2111.27	326.46
2112.76	337.623
2114.25	328.128
2115.73	331.582
2117.22	325.005
2118.71	331.658
2120.2	333.23
2121.69	329.261
2123.18	336.338
2124.66	326.746
2126.15	324.022
2127.64	327.419
2129.13	338.229
2130.62	322.997
2132.1	329.869
2133.59	339.813
2135.08	346.566
2136.57	324.325
2138.06	333.975
2139.55	324.256
2141.03	322.999
2142.52	326.332
2144.01	327.492
2145.5	332.772
2146.99	341.844
2148.48	328.055
2149.96	337.801
2151.45	339.619
2152.94	348.347
2154.43	340.105
2155.92	332.929
2157.41	347.642
2158.89	335.89
2160.38	326.494
2161.87	321.251
2163.36	344.848
2164.85	337.254
2166.34	336.755
2167.82	328.375
2169.31	340.199
2170.8	337.549
2172.29	332.016
2173.78	339.662
2175.27	343.382
2176.75	343.291
2178.24	330.357
2179.73	333.121
2181.22	333.534
2182.71	346.254
2184.2	340.516
2185.68	339.691
2187.17	329.607
2188.66	335.894
2190.15	336.165
2191.64	341.187
2193.13	333.52
2194.61	331.781
2196.1	337.748
2197.59	333.26
2199.08	333.6
2200.57	338.776
2202.06	338.382
2203.54	331.435
2205.03	340.847
2206.52	343.83
2208.01	348.953
2209.5	342.621
2210.99	343.695
2212.47	350.139
2213.96	339.3
2215.45	346.364
2216.94	344.251
2218.43	341.612
2219.92	345.552
2221.4	346.719
2222.89	342.024
2224.38	345.255
2225.87	338.975
2227.36	349.652
2228.84	335.299
2230.33	343.141
2231.82	340.511
2233.31	342.777
2234.8	345.118
2236.29	342.474
2237.77	332.925
2239.26	346.658
2240.75	343.001
2242.24	348.709
2243.73	335.572
2245.22	350.145
2246.7	341.824
2248.19	342.981
2249.68	346.245
2251.17	346.327
2252.66	351.493
2254.15	349.754
2255.63	344.1
2257.12	340.976
2258.61	357.941
2260.1	347.792
2261.59	352.402
2263.08	338.946
2264.56	347.675
2266.05	353.762
2267.54	367.901
2269.03	356.793
2270.52	355.622
2272.01	357.973
2273.49	356.303
2274.98	356.04
2276.47	361.149
2277.96	351.721
2279.45	348.779
2280.94	362.648
2282.42	378.245
2283.91	353.458
2285.4	359.561
2286.89	374.987
2288.38	370.434
2289.87	368.176
2291.35	365.337
2292.84	356.714
2294.33	352.267
2295.82	360.32
2297.31	377.728
2298.8	354.234
2300.28	363.806
2301.77	363.238
2303.26	368.576
2304.75	360.104
2306.24	354.318
2307.73	367.257
2309.21	368.581
2310.7	356.107
2312.19	364.815
2313.68	357.165
2315.17	366.136
2316.65	366.207
2318.14	367.304
2319.63	368.38
2321.12	374.752
2322.61	376.824
2324.1	380.988
2325.58	375.982
2327.07	415.047
2328.56	448.758
2330.05	497.302
2331.54	495.675
2333.03	385.349
2334.51	372.429
2336	368.041
2337.49	369.205
2338.98	366.462
2340.47	360.57
2341.96	365.155
2343.44	380.892
2344.93	378.272
2346.42	371.344
2347.91	384.62
2349.4	377.103
2350.89	367.256
2352.37	386.419
2353.86	391.985
2355.35	383.648
2356.84	380.67
2358.33	368.827
2359.82	381.558
2361.3	367.21
2362.79	384.386
2364.28	376.782
2365.77	398.045
2367.26	384.729
2368.75	383.397
2370.23	384.596
2371.72	381.368
2373.21	390.108
2374.7	388.217
2376.19	391.792
2377.68	389.356
2379.16	379.549
2380.65	398.63
2382.14	396.878
2383.63	396.66
2385.12	398.27
2386.61	382.811
2388.09	402.613
2389.58	403.376
2391.07	405.283
2392.56	400.054
2394.05	396.413
2395.54	415.361
2397.02	409.491
2398.51	411.925
2400	413.222