File: Example Data/Raman/CNT - TIM/Raytheon/Al foil/2010/08-10-10/Au foil_top.txt
300	73.0099
301.518	88.4893
303.037	90.2021
304.555	79.7391
306.073	88.8595
307.592	79.2876
309.11	81.3783
310.628	87.1851
312.147	79.4346
313.665	78.1559
315.183	81.7283
316.702	82.4256
318.22	83.0655
319.738	76.5552
321.257	82.3231
322.775	75.6301
324.294	79.7195
325.812	78.3838
327.33	72.4422
328.849	74.3665
330.367	79.8017
331.885	75.3511
333.404	66.7019
334.922	71.8343
336.44	70.389
337.959	77.0818
339.477	76.4758
340.995	71.2197
342.514	58.3721
344.032	71.3158
345.55	73.7105
347.069	72.6958
348.587	69.1744
350.105	70.5702
351.624	62.2149
353.142	72.9581
354.66	69.5522
356.179	69.7431
357.697	66.8086
359.216	70.4381
360.734	67.2992
362.252	62.6814
363.771	70.5418
365.289	53.273
366.807	76.2523
368.326	54.6735
369.844	57.4611
371.362	67.1366
372.881	62.5098
374.399	52.1937
375.917	62.8197
377.436	55.5377
378.954	49.9579
380.472	58.8941
381.991	55.0384
383.509	59.5918
385.027	54.7876
386.546	54.4344
388.064	57.222
389.582	50.4089
391.101	55.3701
392.619	49.5787
394.137	48.8912
395.656	54.9009
397.174	59.6643
398.693	54.7729
400.211	50.9466
401.729	51.9009
403.248	54.5848
404.766	53.0626
406.284	52.3634
407.803	36.1076
409.321	52.4183
410.839	48.3596
412.358	53.4724
413.876	49.9381
415.394	40.0329
416.913	41.1834
418.431	49.9048
419.949	48.3738
421.468	41.666
422.986	42.4246
424.504	42.0874
426.023	46.5543
427.541	49.1874
429.059	43.3327
430.578	45.6435
432.096	40.571
433.615	44.929
435.133	34.6339
436.651	30.0268
438.17	41.8502
439.688	37.3766
441.206	45.3441
442.725	38.1821
444.243	32.7295
445.761	38.6148
447.28	40.1777
448.798	42.2217
450.316	33.3174
451.835	37.5731
453.353	29.6238
454.871	34.2601
456.39	32.3148
457.908	35.536
459.426	30.9929
460.945	25.7659
462.463	28.1824
463.981	20.6774
465.5	32.5125
467.018	23.012
468.536	27.9199
470.055	12.5292
471.573	22.1515
473.092	24.8042
474.61	25.9538
476.128	18.3578
477.647	23.6873
479.165	26.9208
480.683	24.1554
482.202	31.6143
483.72	18.9248
485.238	28.0466
486.757	16.8862
488.275	16.2641
489.793	11.7518
491.312	15.6854
492.83	17.5474
494.348	11.8621
495.867	8.96259
497.385	3.14997
498.903	17.0782
500.422	12.305
501.94	16.1633
503.458	12.6059
504.977	7.94797
506.495	8.12925
508.013	17.5294
509.532	11.9121
511.05	4.86594
512.569	15.2823
514.087	17.1912
515.605	12.1006
517.124	12.0707
518.642	7.7258
520.16	10.8028
521.679	1.47944
523.197	9.0575
524.715	4.90446
526.234	-2.20322
527.752	19.3321
529.27	-1.94885
530.789	-1.34442
532.307	10.0601
533.825	-1.70003
535.344	9.29589
536.862	8.0463
538.38	2.37365
539.899	8.96213
541.417	7.19831
542.935	11.0143
544.454	3.34874
545.972	4.72128
547.491	3.22293
549.009	4.82002
550.527	6.63866
552.046	-4.87449
553.564	7.99709
555.082	1.78761
556.601	6.80367
558.119	5.62307
559.637	12.557
561.156	-0.545885
562.674	10.7122
564.192	10.4032
565.711	-0.904768
567.229	2.15371
568.747	5.34147
570.266	11.6395
571.784	17.8451
573.302	-1.43445
574.821	-3.62604
576.339	8.53943
577.857	6.66278
579.376	5.50179
580.894	8.7589
582.412	4.4107
583.931	8.19352
585.449	9.45768
586.968	15.3109
588.486	7.26389
590.004	15.4679
591.523	4.26733
593.041	0.149538
594.559	11.0872
596.078	0.338018
597.596	5.69106
599.114	12.0268
600.633	6.28782
602.151	5.75254
603.669	-3.93958
605.188	7.61873
606.706	-1.06604
608.224	6.56641
609.743	4.96156
611.261	10.2206
612.779	9.63491
614.298	8.03872
615.816	10.928
617.334	-2.97698
618.853	4.44842
620.371	3.75657
621.89	2.85249
623.408	6.47388
624.926	4.51254
626.445	6.05958
627.963	7.60485
629.481	7.49453
631	12.106
632.518	15.9406
634.036	6.56973
635.555	-1.45301
637.073	8.15717
638.591	10.7834
640.11	10.1144
641.628	9.21698
643.146	10.0042
644.665	10.6013
646.183	6.63964
647.701	15.3589
649.22	10.6812
650.738	10.0179
652.256	3.04163
653.775	12.2207
655.293	14.6834
656.811	11.4649
658.33	17.0481
659.848	8.34513
661.367	8.42614
662.885	6.75584
664.403	11.357
665.922	9.70486
667.44	11.1816
668.958	15.4835
670.477	7.85418
671.995	13.1964
673.513	11.935
675.032	9.94924
676.55	10.4373
678.068	18.8131
679.587	7.54585
681.105	4.79223
682.623	10.2087
684.142	6.5672
685.66	14.9203
687.178	6.76798
688.697	17.9907
690.215	1.24085
691.733	6.0541
693.252	10.5849
694.77	14.031
696.289	11.5976
697.807	5.37442
699.325	14.2697
700.844	12.185
702.362	4.89678
703.88	14.6122
705.399	15.1449
706.917	20.8812
708.435	11.7786
709.954	14.3182
711.472	8.46152
712.99	15.7862
714.509	20.2051
716.027	20.8967
717.545	10.5576
719.064	26.9273
720.582	15.6353
722.1	9.74374
723.619	16.6809
725.137	18.2381
726.655	15.7527
728.174	21.1144
729.692	15.4848
731.21	8.21434
732.729	9.92595
734.247	23.6197
735.766	19.932
737.284	18.0648
738.802	30.6638
740.321	20.6443
741.839	19.4122
743.357	24.1231
744.876	24.1985
746.394	21.2849
747.912	29.3761
749.431	19.7723
750.949	22.2706
752.467	39.0088
753.986	34.8046
755.504	24.8482
757.022	29.8112
758.541	32.8432
760.059	25.9742
761.577	23.2984
763.096	19.4129
764.614	19.2877
766.132	33.3959
767.651	24.4686
769.169	29.1038
770.6875	37.7683
772.206	30.8352
773.724	37.5112
775.242	33.4795
776.761	32.6341
778.279	39.0827
779.798	26.8211
781.316	36.3931
782.834	27.2582
784.353	25.8116
785.871	34.0144
787.389	41.1778
788.908	32.1258
790.426	40.0659
791.944	35.8409
793.463	37.3126
794.981	36.4861
796.499	40.6988
798.018	32.1717
799.536	38.1318
801.054	34.6348
802.573	50.5614
804.091	44.7681
805.609	33.8314
807.128	39.8561
808.646	47.2122
810.164	30.6312
811.683	36.1522
813.201	51.8392
814.72	46.0024
816.238	39.3495
817.756	40.4951
819.275	37.2095
820.793	47.8281
822.311	43.4766
823.83	47.592
825.348	52.4633
826.866	46.8295
828.385	48.6152
829.903	51.6391
831.421	45.7501
832.94	50.3094
834.458	51.6079
835.976	49.9898
837.495	43.33
839.013	43.8642
840.531	52.4515
842.05	44.5509
843.568	40.2814
845.086	49.5654
846.605	50.6224
848.123	50.0966
849.641	50.548
851.16	46.3918
852.678	45.9742
854.197	41.5522
855.715	45.7373
857.233	44.5247
858.752	45.096
860.27	43.7563
861.788	35.7601
863.307	47.4449
864.825	34.9171
866.343	41.0254
867.862	50.4769
869.38	43.4768
870.898	35.7643
872.417	30.0111
873.935	41.0115
875.453	29.1
876.972	33.3224
878.49	29.8043
880.008	18.0846
881.527	32.7765
883.045	31.3149
884.563	30.4952
886.082	22.9605
887.6	19.5661
889.119	35.6199
890.637	22.4438
892.155	31.6643
893.674	22.7193
895.192	19.4936
896.71	25.7294
898.229	16.5499
899.747	17.722
901.265	12.8487
902.784	16.7056
904.302	8.95561
905.82	16.0507
907.339	26.7441
908.857	14.4819
910.375	2.2363
911.894	8.48427
913.412	3.51832
914.93	11.9258
916.449	3.18035
917.967	6.48329
919.485	-5.26781
921.004	0.623686
922.522	5.6682
924.04	7.8913
925.559	6.20482
927.077	1.35489
928.596	1.92763
930.114	2.33863
931.632	3.58564
933.151	5.00137
934.669	-5.73022
936.187	-1.55284
937.706	7.34811
939.224	8.37903
940.742	4.79279
942.261	-5.79615
943.779	10.2861
945.297	-3.61267
946.816	-1.04442
948.334	9.66104
949.852	-5.16357
951.371	0.624924
952.889	-1.34574
954.407	5.91765
955.926	-1.28414
957.444	-1.00173
958.962	4.18816
960.481	9.38525
961.999	2.64925
963.518	0.917206
965.036	9.36055
966.554	-0.421991
968.073	-6.84487
969.591	-8.86829
971.109	-2.72805
972.628	-8.37445
974.146	7.72051
975.664	-3.0658
977.183	-1.39661
978.701	2.77765
980.219	-4.03006
981.738	-1.54001
983.256	-8.95632
984.774	-5.43962
986.293	-8.51185
987.811	2.39323
989.329	6.05417
990.848	-4.00725
992.366	4.48923
993.884	-5.54154
995.403	7.78303
996.921	-4.44412
998.439	8.40451
999.958	6.86823
1001.48	7.82846
1002.99	1.60492
1004.51	-3.68382
1006.03	2.84476
1007.55	-7.98879
1009.07	-0.841709
1010.59	6.62985
1012.1	7.99097
1013.62	6.20624
1015.14	-6.38094
1016.66	7.84404
1018.18	2.98782
1019.7	10.3866
1021.21	-1.96175
1022.73	2.67463
1024.25	7.73802
1025.77	5.11517
1027.29	11.2076
1028.81	6.76313
1030.32	3.76939
1031.84	9.44858
1033.36	6.3127
1034.88	4.26641
1036.4	13.9108
1037.92	6.7115
1039.43	11.223
1040.95	1.85683
1042.47	0.977607
1043.99	7.04019
1045.51	1.90721
1047.03	8.0934
1048.54	6.14882
1050.06	10.5648
1051.58	5.5921
1053.1	-12.1787
1054.62	4.57797
1056.14	0.00374724
1057.66	0.97318
1059.17	1.17226
1060.69	3.09855
1062.21	5.40206
1063.73	-0.830561
1065.25	4.68591
1066.77	4.776
1068.28	0.282064
1069.8	5.92197
1071.32	1.96481
1072.84	1.27161
1074.36	2.13494
1075.88	9.91538
1077.39	2.27318
1078.91	-3.81243
1080.43	7.47546
1081.95	4.99836
1083.47	6.98809
1084.99	-6.78341
1086.5	-1.40607
1088.02	3.12394
1089.54	-2.1804
1091.06	1.70951
1092.58	9.6288
1094.1	8.09644
1095.61	3.00137
1097.13	0.263286
1098.65	10.4844
1100.17	0.253853
1101.69	-0.866979
1103.21	14.6305
1104.72	20.8101
1106.24	8.4756
1107.76	15.6136
1109.28	10.2067
1110.8	12.5599
1112.32	15.7654
1113.83	16.7092
1115.35	27.6947
1116.87	23.0602
1118.39	19.5681
1119.91	19.6697
1121.43	21.1804
1122.94	19.2168
1124.46	29.9457
1125.98	28.686
1127.5	56.0111
1129.02	32.6729
1130.54	33.0665
1132.05	44.5685
1133.57	57.6207
1135.09	43.9795
1136.61	59.6761
1138.13	62.5355
1139.65	65.1918
1141.16	68.7499
1142.68	78.1488
1144.2	97.8589
1145.72	75.4421
1147.24	99.3554
1148.76	110.33
1150.27	102.429
1151.79	130.945
1153.31	118.233
1154.83	126.846
1156.35	109.863
1157.87	116.719
1159.38	122.453
1160.9	140.459
1162.42	134.329
1163.94	143.88
1165.46	146.911
1166.98	141.876
1168.49	145.134
1170.01	157.528
1171.53	155.754
1173.05	162.358
1174.57	143.106
1176.09	149.653
1177.6	145.755
1179.12	145.016
1180.64	154.963
1182.16	161.542
1183.68	176.149
1185.2	158.392
1186.71	176.081
1188.23	165.317
1189.75	157.092
1191.27	160.652
1192.79	206.873
1194.31	173.101
1195.82	172.695
1197.34	193.994
1198.86	179.02
1200.38	174.626
1201.9	180.491
1203.42	187.387
1204.93	189.983
1206.45	194.992
1207.97	201.628
1209.49	199.091
1211.01	199.728
1212.53	228.753
1214.04	220.324
1215.56	215.503
1217.08	226.848
1218.6	233.908
1220.12	227.477
1221.64	236.156
1223.15	250.96
1224.67	250.542
1226.19	250.952
1227.71	248.452
1229.23	256.474
1230.75	258.261
1232.26	265.533
1233.78	274.259
1235.3	265.434
1236.82	272.578
1238.34	281.43
1239.86	283.861
1241.375	286.304
1242.89	279.657
1244.41	304.369
1245.93	303.913
1247.45	298.468
1248.97	325.988
1250.48	342.97
1252	320.813
1253.52	342.311
1255.04	344.995
1256.56	342.39
1258.08	385.093
1259.6	382.477
1261.11	385.346
1262.63	379.78
1264.15	392.628
1265.67	399.375
1267.19	402.604
1268.71	419.323
1270.22	448.57
1271.74	459.887
1273.26	482.735
1274.78	481.579
1276.3	504.209
1277.82	508.265
1279.33	526.665
1280.85	538.087
1282.37	547.696
1283.89	565.665
1285.41	597.289
1286.93	583.917
1288.44	595.073
1289.96	611.003
1291.48	653.896
1293	658.403
1294.52	702.921
1296.04	699.819
1297.55	737.818
1299.07	761.608
1300.59	764.206
1302.11	756.334
1303.63	803.217
1305.15	801.806
1306.66	824.478
1308.18	876.655
1309.7	883.137
1311.22	886.758
1312.74	909.422
1314.26	931.231
1315.77	940.231
1317.29	959.482
1318.81	962.748
1320.33	976.42
1321.85	1017.98
1323.37	1028.07
1324.88	1047.33
1326.4	1034.95
1327.92	1011.08
1329.44	1014.24
1330.96	1055.51
1332.48	1040.99
1333.99	1035.33
1335.51	1036.13
1337.03	1015.77
1338.55	1033.69
1340.07	1015.36
1341.59	1016.56
1343.1	1018.73
1344.62	982.391
1346.14	982.331
1347.66	1005.87
1349.18	967.188
1350.7	958.134
1352.21	959.667
1353.73	918.097
1355.25	902.871
1356.77	880.679
1358.29	876.438
1359.81	869.091
1361.32	817.785
1362.84	825.425
1364.36	800.007
1365.88	786.537
1367.4	778.49
1368.92	734.007
1370.43	726.778
1371.95	695.679
1373.47	700.18
1374.99	657.553
1376.51	648.004
1378.03	618.077
1379.54	606.511
1381.06	545.88
1382.58	549.853
1384.1	536.798
1385.62	520.679
1387.14	495.788
1388.65	465.346
1390.17	439.17
1391.69	456.425
1393.21	399.726
1394.73	386.11
1396.25	356.294
1397.76	340.513
1399.28	362.004
1400.8	320.39
1402.32	313.088
1403.84	298.362
1405.36	259.187
1406.87	261.247
1408.39	264.472
1409.91	236.274
1411.43	256.039
1412.95	221.764
1414.47	217.756
1415.98	207.296
1417.5	184.03
1419.02	176.707
1420.54	158.312
1422.06	153.079
1423.58	145.852
1425.09	148
1426.61	127.539
1428.13	134.237
1429.65	116.448
1431.17	122.814
1432.69	89.0172
1434.2	105.906
1435.72	92.3962
1437.24	78.4839
1438.76	64.5643
1440.28	83.6347
1441.8	68.8482
1443.32	84.0506
1444.83	66.6754
1446.35	67.3941
1447.87	51.7444
1449.39	43.7455
1450.91	57.6063
1452.43	22.1581
1453.94	18.0504
1455.46	21.2102
1456.98	8.59235
1458.5	17.697
1460.02	36.9609
1461.54	15.3136
1463.05	27.8984
1464.57	21.2383
1466.09	1.5286
1467.61	-17.0466
1469.13	7.42908
1470.65	-21.6041
1472.16	16.6522
1473.68	-1.44627
1475.2	-3.08978
1476.72	3.60071
1478.24	17.0845
1479.76	12.3354
1481.27	3.39948
1482.79	8.8678
1484.31	-9.61237
1485.83	-6.50671
1487.35	-7.53223
1488.87	-5.82178
1490.38	-1.20361
1491.9	-12.4171
1493.42	9.89856
1494.94	-1.18738
1496.46	-8.25256
1497.98	4.65582
1499.49	21.6384
1501.01	-5.86035
1502.53	-0.820161
1504.05	21.583
1505.57	26.4504
1507.09	19.3616
1508.6	12.3558
1510.12	35.1812
1511.64	34.4437
1513.16	52.1236
1514.68	73.6089
1516.2	54.7008
1517.71	53.9928
1519.23	64.8161
1520.75	52.6349
1522.27	70.1805
1523.79	79.4381
1525.31	93.0019
1526.82	108.078
1528.34	107.472
1529.86	120.755
1531.38	116.357
1532.9	145.926
1534.42	132.065
1535.93	134.509
1537.45	170.497
1538.97	166.898
1540.49	179.709
1542.01	201.38
1543.53	202.986
1545.04	213.501
1546.56	226.034
1548.08	233.396
1549.6	242.918
1551.12	278.29
1552.64	293.552
1554.15	286.206
1555.67	302.369
1557.19	358.824
1558.71	353.124
1560.23	383.66
1561.75	386.545
1563.26	421.391
1564.78	444.864
1566.3	468.711
1567.82	489.745
1569.34	536.995
1570.86	587.608
1572.37	603.837
1573.89	641.898
1575.41	667.001
1576.93	691.057
1578.45	752.412
1579.97	788.622
1581.48	833.975
1583	871
1584.52	956.553
1586.04	954.525
1587.56	1025.79
1589.08	1032.2
1590.59	1098.41
1592.11	1155.46
1593.63	1190.8
1595.15	1210.86
1596.67	1233.31
1598.19	1243.74
1599.7	1293.25
1601.22	1299.22
1602.74	1303.39
1604.26	1286.58
1605.78	1266.34
1607.3	1235.21
1608.81	1189.61
1610.33	1156.61
1611.85	1280.95
1613.37	1099.62
1614.89	1024.88
1616.41	978.853
1617.92	923.784
1619.44	859.884
1620.96	784.297
1622.48	734.197
1624	661.783
1625.52	606.602
1627.04	541.822
1628.55	498.429
1630.07	463.932
1631.59	416.917
1633.11	368.939
1634.63	346.032
1636.15	320.051
1637.66	295.456
1639.18	276.695
1640.7	254.033
1642.22	239.032
1643.74	220.897
1645.26	191.426
1646.77	173.609
1648.29	145.871
1649.81	147.953
1651.33	133.135
1652.85	123.76
1654.37	118.998
1655.88	99.6943
1657.4	87.8943
1658.92	78.7138
1660.44	60.4253
1661.96	68.3939
1663.48	49.9464
1664.99	43.0435
1666.51	42.3802
1668.03	20.7889
1669.55	29.5729
1671.07	17.4765
1672.59	11.8671
1674.1	7.18471
1675.62	5.19857
1677.14	-3.62878
1678.66	-10.7222
1680.18	-5.33468
1681.7	-16.5675
1683.21	-15.7053
1684.73	-15.8228
1686.25	-12.8544
1687.77	-12.2011
1689.29	-9.4453
1690.81	-13.3036
1692.32	-15.1509
1693.84	-10.0866
1695.36	-11.8559
1696.88	-11.1049
1698.4	-15.0702
1699.92	-15.2312
1701.43	-9.96191
1702.95	-8.67802
1704.47	-10.4793
1705.99	-11.6353
1707.51	-6.09663
1709.03	-9.87852
1710.54	-1.02789
1712.06	-9.80563
1713.58	-2.13766
1715.1	-0.88125
1716.62	-3.92462
1718.14	-3.01775
1719.65	-5.65058
1721.17	-3.47408
1722.69	-3.80138
1724.21	-10.118
1725.73	-5.30959
1727.25	-8.4455
1728.76	-9.05346
1730.28	-14.9767
1731.8	-12.7487
1733.32	-9.15686
1734.84	-7.95249
1736.36	-9.51841
1737.87	-8.30107
1739.39	-7.60771
1740.91	-15.9576
1742.43	-15.8388
1743.95	-10.4541
1745.47	-9.28761
1746.98	-11.143
1748.5	-11.893
1750.02	-10.2033
1751.54	-10.6102
1753.06	-18.6199
1754.58	-6.7142
1756.09	-9.66878
1757.61	-9.28161
1759.13	-2.37528
1760.65	-14.0131
1762.17	-9.11677
1763.69	-6.86148
1765.2	-2.67148
1766.72	-11.7197
1768.24	-3.92262
1769.76	-12.5259
1771.28	-11.5123
1772.8	-13.5031
1774.31	-2.37421
1775.83	-11.0409
1777.35	-15.2857
1778.87	-5.72462
1780.39	-1.42916
1781.91	2.57099
1783.42	-1.11232
1784.94	-6.53609
1786.46	-0.806488
1787.98	-5.37213
1789.5	-7.85083
1791.02	-4.61068
1792.53	-7.38216
1794.05	-12.8217
1795.57	-4.60385
1797.09	-10.3033
1798.61	-6.68732
1800.13	-3.35333
1801.64	-8.03881
1803.16	-7.31676
1804.68	-4.00718
1806.2	-3.18726
1807.72	-1.98708
1809.24	-4.06217
1810.76	3.61898
1812.27	-3.47916
1813.79	10.799
1815.31	-3.17635
1816.83	2.67965
1818.35	-8.05585
1819.86	-2.82472
1821.38	2.47166
1822.9	-5.39415
1824.42	3.87815
1825.94	-0.690108
1827.46	-1.67724
1828.98	-8.4775
1830.49	-4.82678
1832.01	-2.66777
1833.53	0.89072
1835.05	-0.693503
1836.57	0.282017
1838.09	-0.0603692
1839.6	-11.0305
1841.12	-3.27718
1842.64	-3.90217
1844.16	8.76868
1845.68	4.53903
1847.2	-0.668083
1848.71	-3.05257
1850.23	-2.41378
1851.75	-0.89116
1853.27	-2.52952
1854.79	-3.94799
1856.31	8.36455
1857.82	0.193049
1859.34	4.14148
1860.86	-1.87675
1862.38	-0.697371
1863.9	1.15333
1865.42	0.355924
1866.93	7.27497
1868.45	-0.754579
1869.97	2.16042
1871.49	5.1253
1873.01	0.505513
1874.53	4.02615
1876.04	-1.2448
1877.56	2.42753
1879.08	6.93541
1880.6	4.3395
1882.12	5.62877
1883.64	7.56237
1885.15	-5.31351
1886.67	-1.56643
1888.19	-4.13963
1889.71	11.1275
1891.23	6.46726
1892.75	6.85276
1894.26	5.97224
1895.78	3.56702
1897.3	-1.51474
1898.82	1.04979
1900.34	3.28718
1901.86	-1.50753
1903.37	4.25039
1904.89	12.4737
1906.41	-5.46814
1907.93	-0.0243078
1909.45	6.24851
1910.97	-0.824353
1912.48	4.25233
1914	4.09809
1915.52	7.79843
1917.04	5.06881
1918.56	4.9045
1920.08	11.295
1921.59	-0.0486928
1923.11	4.22897
1924.63	11.3855
1926.15	11.9117
1927.67	10.4037
1929.19	6.83822
1930.7	0.848361
1932.22	9.48711
1933.74	10.44
1935.26	-2.67392
1936.78	2.47685
1938.3	6.8435
1939.81	11.6753
1941.33	8.9777
1942.85	1.6468
1944.37	6.5509
1945.89	6.77704
1947.41	9.32765
1948.92	15.0299
1950.44	2.92106
1951.96	5.78229
1953.48	9.32262
1955	12.4772
1956.52	7.42276
1958.03	8.7969
1959.55	10.5249
1961.07	19.1791
1962.59	8.52479
1964.11	7.41608
1965.63	17.3969
1967.14	13.4035
1968.66	11.5952
1970.18	10.8752
1971.7	8.03657
1973.22	10.9164
1974.74	12.4641
1976.25	14.7734
1977.77	21.2421
1979.29	14.0875
1980.81	19.0944
1982.33	16.4531
1983.85	6.08825
1985.36	9.5779
1986.88	10.5941
1988.4	21.6534
1989.92	17.6722
1991.44	10.5325
1992.96	14.6314
1994.47	13.7578
1995.99	11.4568
1997.51	19.1921
1999.03	17.5047
2000.55	14.3221
2002.07	12.2123
2003.58	10.799
2005.1	15.6636
2006.62	17.6965
2008.14	20.0825
2009.66	20.6242
2011.18	18.6527
2012.7	17.2985
2014.21	14.1692
2015.73	21.0824
2017.25	19.7206
2018.77	22.2544
2020.29	12.2455
2021.81	26.509
2023.32	18.2479
2024.84	23.6933
2026.36	22.205
2027.88	26.2864
2029.4	15.2702
2030.92	20.0178
2032.43	21.3409
2033.95	25.8045
2035.47	25.3539
2036.99	23.5502
2038.51	23.8949
2040.03	19.0923
2041.54	16.6506
2043.06	22.3124
2044.58	33.8724
2046.1	21.7884
2047.62	21.3287
2049.14	32.3669
2050.65	28.388
2052.17	29.8401
2053.69	25.9465
2055.21	23.1541
2056.73	37.121
2058.25	20.5433
2059.76	27.3455
2061.28	29.1641
2062.8	26.6971
2064.32	21.2209
2065.84	30.9277
2067.36	28.1155
2068.87	33.6346
2070.39	28.0587
2071.91	26.0937
2073.43	31.0797
2074.95	26.6457
2076.47	20.9763
2077.98	28.9622
2079.5	32.4403
2081.02	37.122
2082.54	33.5726
2084.06	31.3705
2085.58	27.842
2087.09	33.6926
2088.61	29.9783
2090.13	30.3028
2091.65	27.9448
2093.17	27.5754
2094.69	37.0911
2096.2	31.5991
2097.72	32.0342
2099.24	26.6969
2100	37.056