File: Example Data/Raman/CNT - TIM/Raytheon/Al foil/2010/08-10-10/Au foil_bottom.txt
300	79.4789
301.518	85.0714
303.037	93.3246
304.555	95.4184
306.073	109.079
307.592	103.992
309.11	87.0882
310.628	94.4437
312.147	105.217
313.665	84.8204
315.183	75.7068
316.702	81.9775
318.22	91.6396
319.738	94.5109
321.257	102.23
322.775	78.9902
324.294	72.3743
325.812	86.5911
327.33	85.1608
328.849	82.4246
330.367	92.2068
331.885	79.8286
333.404	74.3808
334.922	73.9758
336.44	84.217
337.959	91.2259
339.477	87.0723
340.995	83.0581
342.514	76.821
344.032	88.5772
345.55	83.9019
347.069	77.6051
348.587	93.2618
350.105	77.0285
351.624	85.8711
353.142	74.9329
354.66	88.3298
356.179	73.6829
357.697	70.3851
359.216	84.9945
360.734	87.157
362.252	76.6882
363.771	83.8507
365.289	69.5406
366.807	84.986
368.326	69.02
369.844	62.3227
371.362	75.6897
372.881	74.8258
374.399	67.2409
375.917	71.9816
377.436	72.0033
378.954	64.6302
380.472	64.0011
381.991	53.4183
383.509	67.6672
385.027	60.4308
386.546	61.7621
388.064	58.5945
389.582	61.6431
391.101	55.885
392.619	52.4519
394.137	66.4567
395.656	63.8347
397.174	49.9014
398.693	66.1542
400.211	65.5105
401.729	61.1731
403.248	56.0684
404.766	57.3259
406.284	62.4396
407.803	57.6097
409.321	64.1219
410.839	46.2493
412.358	60.3377
413.876	73.9118
415.394	62.1592
416.913	52.0818
418.431	58.9333
419.949	50.33
421.468	52.3789
422.986	55.6345
424.504	53.8447
426.023	47.8975
427.541	54.6169
429.059	63.5098
430.578	46.3028
432.096	59.7133
433.615	64.0248
435.133	46.0753
436.651	51.4227
438.17	53.1304
439.688	44.8894
441.206	57.7213
442.725	45.6264
444.243	34.0185
445.761	48.0603
447.28	50.0234
448.798	53.2914
450.316	36.2048
451.835	41.4531
453.353	39.7695
454.871	37.1348
456.39	37.4366
457.908	42.0686
459.426	39.7526
460.945	27.8363
462.463	36.8598
463.981	25.2923
465.5	37.9293
467.018	43.9533
468.536	35.5528
470.055	31.6166
471.573	29.7956
473.092	27.9841
474.61	36.4581
476.128	0.618404
477.647	40.177
479.165	23.9344
480.683	19.6582
482.202	21.6652
483.72	37.2402
485.238	12.3649
486.757	27.1113
488.275	25.8038
489.793	14.6386
491.312	16.6758
492.83	27.9302
494.348	16.6439
495.867	27.0968
497.385	23.8977
498.903	14.8732
500.422	20.3276
501.94	23.6416
503.458	21.9374
504.977	18.981
506.495	15.1362
508.013	12.3342
509.532	10.3811
511.05	11.923
512.569	16.1782
514.087	7.1665
515.605	5.46111
517.124	21.1138
518.642	12.9489
520.16	12.1415
521.679	9.67591
523.197	13.1124
524.715	12.3815
526.234	7.59447
527.752	25.9163
529.27	17.3296
530.789	15.9414
532.307	15.635
533.825	7.87099
535.344	16.1389
536.862	18.2779
538.38	14.2763
539.899	9.84174
541.417	8.4205
542.935	12.9614
544.454	11.6034
545.972	16.8465
547.491	12.3849
549.009	2.77781
550.527	18.5148
552.046	30.8033
553.564	24.43
555.082	8.12036
556.601	24.7629
558.119	24.5729
559.637	11.2321
561.156	22.8538
562.674	24.4933
564.192	22.0796
565.711	27.7727
567.229	20.4833
568.747	19.6106
570.266	27.287
571.784	23.321
573.302	10.8623
574.821	9.89637
576.339	23.2643
577.857	18.8231
579.376	19.0078
580.894	20.2431
582.412	36.762
583.931	18.3796
585.449	28.5784
586.968	23.9802
588.486	21.7041
590.004	26.1059
591.523	24.8412
593.041	20.0917
594.559	17.7482
596.078	26.2904
597.596	10.414
599.114	18.1387
600.633	18.8655
602.151	19.8081
603.669	22.9725
605.188	21.2156
606.706	27.0527
608.224	12.5132
609.743	21.3595
611.261	9.36677
612.779	22.0062
614.298	19.0881
615.816	38.1547
617.334	17.7275
618.853	16.462
620.371	13.7064
621.89	13.1458
623.408	9.06692
624.926	12.4201
626.445	19.6126
627.963	19.6625
629.481	16.7175
631	17.8114
632.518	18.9886
634.036	27.1608
635.555	21.6452
637.073	24.0082
638.591	17.1887
640.11	19.3164
641.628	13.6339
643.146	23.0273
644.665	24.3959
646.183	21.2664
647.701	23.8587
649.22	13.7714
650.738	13.8139
652.256	25.7561
653.775	10.2484
655.293	28.5217
656.811	19.3592
658.33	21.5502
659.848	21.1876
661.367	23.7017
662.885	26.1998
664.403	24.4257
665.922	33.6601
667.44	28.4538
668.958	17.7908
670.477	27.1071
671.995	16.9465
673.513	10.5019
675.032	28.5528
676.55	15.7914
678.068	17.9959
679.587	21.9429
681.105	17.403
682.623	16.6325
684.142	11.8152
685.66	23.0721
687.178	18.4152
688.697	10.888
690.215	10.1314
691.733	13.1377
693.252	10.4078
694.77	13.05
696.289	21.2794
697.807	19.1449
699.325	10.6885
700.844	19.2734
702.362	16.0489
703.88	10.1063
705.399	17.5441
706.917	10.2789
708.435	12.2051
709.954	17.852
711.472	9.80966
712.99	8.13951
714.509	19.7269
716.027	18.0255
717.545	18.493
719.064	19.6459
720.582	8.76761
722.1	12.4977
723.619	12.7007
725.137	24.1092
726.655	18.6991
728.174	28.0863
729.692	30.9165
731.21	18.2046
732.729	5.59931
734.247	10.0008
735.766	25.2722
737.284	23.0489
738.802	26.7702
740.321	40.8732
741.839	30.3653
743.357	26.7411
744.876	42.2057
746.394	22.8525
747.912	22.5345
749.431	31.7268
750.949	31.4486
752.467	27.1032
753.986	20.4679
755.504	33.1415
757.022	29.2816
758.541	29.426
760.059	33.3212
761.577	27.0335
763.096	27.5291
764.614	33.8556
766.132	31.7982
767.651	46.3958
769.169	33.2605
770.6875	39.1186
772.206	42.7267
773.724	29.3577
775.242	33.5619
776.761	33.4931
778.279	32.1679
779.798	25.6548
781.316	38.8346
782.834	33.1833
784.353	37.8111
785.871	32.5256
787.389	35.5411
788.908	38.149
790.426	38.1076
791.944	27.3672
793.463	42.6879
794.981	27.8545
796.499	48.9102
798.018	39.7319
799.536	36.3878
801.054	30.7664
802.573	57.3386
804.091	41.4546
805.609	43.4575
807.128	46.5685
808.646	43.1942
810.164	37.8413
811.683	36.1689
813.201	27.2237
814.72	39.0837
816.238	48.6777
817.756	44.0134
819.275	46.6879
820.793	52.5036
822.311	45.2009
823.83	57.4341
825.348	35.7348
826.866	47.8292
828.385	47.6014
829.903	55.7835
831.421	45.2956
832.94	58.226
834.458	50.1896
835.976	51.5301
837.495	51.5091
839.013	47.564
840.531	48.7657
842.05	61.0704
843.568	53.3261
845.086	56.5484
846.605	55.4561
848.123	53.0252
849.641	63.9376
851.16	51.3848
852.678	47.2824
854.197	36.5685
855.715	50.4075
857.233	49.3993
858.752	56.5633
860.27	48.8675
861.788	51.106
863.307	45.1596
864.825	33.541
866.343	40.9762
867.862	35.7019
869.38	37.6679
870.898	26.3082
872.417	49.8584
873.935	47.742
875.453	33.6251
876.972	33.1876
878.49	24.8703
880.008	31.2855
881.527	31.2816
883.045	27.8021
884.563	32.5561
886.082	23.6008
887.6	19.9756
889.119	24.6361
890.637	30.6613
892.155	37.979
893.674	27.4033
895.192	21.1323
896.71	27.3288
898.229	22.6941
899.747	13.2191
901.265	19.9291
902.784	25.2115
904.302	23.2931
905.82	23.9966
907.339	11.4065
908.857	10.4597
910.375	23.6091
911.894	18.0086
913.412	8.85208
914.93	8.27542
916.449	15.1176
917.967	9.67342
919.485	6.44744
921.004	14.1908
922.522	15.6359
924.04	7.97077
925.559	14.163
927.077	2.76933
928.596	3.59089
930.114	3.31712
931.632	-0.431425
933.151	4.86585
934.669	15.5014
936.187	16.0191
937.706	17.7811
939.224	12.0314
940.742	1.69333
942.261	12.7191
943.779	9.60979
945.297	4.43685
946.816	8.41863
948.334	11.8022
949.852	13.2479
951.371	7.11345
952.889	2.40975
954.407	11.0375
955.926	4.72221
957.444	7.21909
958.962	15.9216
960.481	12.2414
961.999	5.25061
963.518	5.52936
965.036	7.3547
966.554	15.9812
968.073	-0.939481
969.591	0.0317009
971.109	15.7363
972.628	8.69976
974.146	3.11065
975.664	2.3973
977.183	5.09456
978.701	8.47374
980.219	9.01115
981.738	23.8655
983.256	5.78391
984.774	16.8336
986.293	10.2695
987.811	12.0174
989.329	20.3221
990.848	15.9392
992.366	23.7124
993.884	16.9055
995.403	20.5008
996.921	4.72674
998.439	14.6161
999.958	7.6987
1001.48	2.56963
1002.99	9.29562
1004.51	7.87651
1006.03	9.48886
1007.55	8.21526
1009.07	9.96809
1010.59	25.2711
1012.1	4.79252
1013.62	12.7654
1015.14	24.0845
1016.66	24.0924
1018.18	12.8804
1019.7	7.18393
1021.21	9.74865
1022.73	16.2485
1024.25	32.9346
1025.77	22.5701
1027.29	2.9729
1028.81	15.2669
1030.32	-7.48703
1031.84	15.1082
1033.36	18.6618
1034.88	12.6432
1036.4	6.91215
1037.92	15.1144
1039.43	8.31364
1040.95	22.7223
1042.47	8.36941
1043.99	33.3179
1045.51	6.47033
1047.03	21.8019
1048.54	6.65047
1050.06	18.1831
1051.58	-0.549587
1053.1	8.65976
1054.62	-0.607909
1056.14	9.05374
1057.66	10.0394
1059.17	0.0648085
1060.69	10.5924
1062.21	1.15165
1063.73	-3.87887
1065.25	1.37772
1066.77	-1.02072
1068.28	6.71756
1069.8	7.13842
1071.32	1.60983
1072.84	4.35094
1074.36	-9.34471
1075.88	-7.19661
1077.39	2.01865
1078.91	1.04572
1080.43	-2.9277
1081.95	-4.54611
1083.47	-3.23938
1084.99	-5.32283
1086.5	2.01634
1088.02	1.27973
1089.54	-2.45167
1091.06	-2.32631
1092.58	4.52903
1094.1	9.15606
1095.61	2.97655
1097.13	-4.1982
1098.65	-9.3584
1100.17	3.37221
1101.69	9.90821
1103.21	-8.83984
1104.72	5.6658
1106.24	7.13985
1107.76	12.2971
1109.28	4.0075
1110.8	23.8043
1112.32	10.77
1113.83	15.348
1115.35	26.1485
1116.87	14.3974
1118.39	33.7514
1119.91	29.0618
1121.43	37.9298
1122.94	17.0295
1124.46	26.9551
1125.98	40.3404
1127.5	31.1404
1129.02	49.0438
1130.54	51.9134
1132.05	47.0643
1133.57	47.7628
1135.09	59.4493
1136.61	74.0071
1138.13	71.9867
1139.65	88.4203
1141.16	69.3531
1142.68	85.1329
1144.2	87.8858
1145.72	100.378
1147.24	98.1428
1148.76	110.248
1150.27	132.046
1151.79	109.712
1153.31	122.699
1154.83	117.276
1156.35	143.692
1157.87	152.986
1159.38	143.934
1160.9	173.571
1162.42	140.605
1163.94	150.589
1165.46	155.151
1166.98	163.807
1168.49	150.565
1170.01	161.693
1171.53	165.52
1173.05	160.895
1174.57	159.95
1176.09	175.734
1177.6	189.499
1179.12	185.278
1180.64	186.108
1182.16	175.652
1183.68	198.977
1185.2	194.558
1186.71	197.305
1188.23	206.93
1189.75	217.661
1191.27	208.038
1192.79	205.781
1194.31	206.79
1195.82	194.843
1197.34	208.102
1198.86	242.632
1200.38	212.747
1201.9	205.757
1203.42	226.82
1204.93	234.75
1206.45	233.011
1207.97	241.166
1209.49	249.755
1211.01	262.32
1212.53	263.168
1214.04	256.17
1215.56	259.829
1217.08	258.577
1218.6	280.811
1220.12	278.242
1221.64	289.447
1223.15	290.333
1224.67	290.91
1226.19	299.296
1227.71	304.971
1229.23	296.191
1230.75	345.207
1232.26	313.616
1233.78	341.406
1235.3	352.178
1236.82	360.552
1238.34	362.945
1239.86	357.178
1241.375	353.806
1242.89	371.572
1244.41	359.124
1245.93	405.583
1247.45	429.269
1248.97	413.534
1250.48	430.434
1252	444.364
1253.52	449.842
1255.04	435.6
1256.56	501.656
1258.08	457.655
1259.6	470.919
1261.11	537.833
1262.63	519.454
1264.15	527.575
1265.67	534.394
1267.19	558.393
1268.71	574.887
1270.22	600.266
1271.74	597.861
1273.26	653.697
1274.78	665.614
1276.3	674.091
1277.82	694.623
1279.33	706.044
1280.85	713.674
1282.37	717.726
1283.89	782.028
1285.41	779.34
1286.93	791.226
1288.44	842.64
1289.96	872.659
1291.48	902.872
1293	907.545
1294.52	921.7
1296.04	959.858
1297.55	992.858
1299.07	992.765
1300.59	1024.82
1302.11	1070.26
1303.63	1091.65
1305.15	1107.46
1306.66	1140.8
1308.18	1149.13
1309.7	1152.51
1311.22	1209.68
1312.74	1240.3
1314.26	1272.99
1315.77	1266.49
1317.29	1277.5
1318.81	1291.67
1320.33	1322.94
1321.85	1357.33
1323.37	1394.71
1324.88	1394.63
1326.4	1391.51
1327.92	1368.14
1329.44	1437.77
1330.96	1386.99
1332.48	1411.45
1333.99	1376.93
1335.51	1418.04
1337.03	1415.11
1338.55	1386.19
1340.07	1438.09
1341.59	1370.63
1343.1	1367.13
1344.62	1347.52
1346.14	1337.11
1347.66	1291.34
1349.18	1298.21
1350.7	1282.29
1352.21	1279.12
1353.73	1270.37
1355.25	1234.4
1356.77	1180.25
1358.29	1175.06
1359.81	1150.99
1361.32	1128.24
1362.84	1125.6
1364.36	1074.94
1365.88	1051.97
1367.4	1015.16
1368.92	979.284
1370.43	939.78
1371.95	912.017
1373.47	893.038
1374.99	829.558
1376.51	867.642
1378.03	794.89
1379.54	783.394
1381.06	781.754
1382.58	737.911
1384.1	709.401
1385.62	685.393
1387.14	653.348
1388.65	604.322
1390.17	597.887
1391.69	574.859
1393.21	556.266
1394.73	499.598
1396.25	484.435
1397.76	449.48
1399.28	434.77
1400.8	436.49
1402.32	405.854
1403.84	407.819
1405.36	386.348
1406.87	332.44
1408.39	337.95
1409.91	310.51
1411.43	311.301
1412.95	292.522
1414.47	273.021
1415.98	258.093
1417.5	245.799
1419.02	224.816
1420.54	238.184
1422.06	183.515
1423.58	148.511
1425.09	157.523
1426.61	138.799
1428.13	162.415
1429.65	155.32
1431.17	145.076
1432.69	120.345
1434.2	106.05
1435.72	117.731
1437.24	86.1613
1438.76	82.1941
1440.28	70.7814
1441.8	100.297
1443.32	68.4799
1444.83	68.2013
1446.35	41.2218
1447.87	39.4809
1449.39	57.5446
1450.91	25.9412
1452.43	44.4962
1453.94	18.8515
1455.46	29.5973
1456.98	22.8765
1458.5	33.031
1460.02	14.8334
1461.54	10.6888
1463.05	9.3128
1464.57	4.35778
1466.09	-5.11965
1467.61	8.70926
1469.13	2.40463
1470.65	-3.08763
1472.16	-1.75182
1473.68	-5.24335
1475.2	-9.9283
1476.72	-5.94138
1478.24	-14.0448
1479.76	-11.2551
1481.27	27.0695
1482.79	1.75609
1484.31	11.0295
1485.83	-11.2754
1487.35	-10.48
1488.87	6.40826
1490.38	-4.20362
1491.9	16.4392
1493.42	23.4613
1494.94	1.71053
1496.46	7.98572
1497.98	22.2551
1499.49	29.6224
1501.01	6.31794
1502.53	38.1848
1504.05	23.4882
1505.57	20.2334
1507.09	30.5003
1508.6	49.6788
1510.12	57.3103
1511.64	70.8247
1513.16	85.9537
1514.68	97.8878
1516.2	85.9669
1517.71	125.568
1519.23	111.218
1520.75	119.534
1522.27	107.752
1523.79	128.896
1525.31	155.051
1526.82	167.624
1528.34	186.288
1529.86	188.05
1531.38	204.704
1532.9	226.282
1534.42	242.39
1535.93	251.397
1537.45	255.273
1538.97	272.773
1540.49	289.58
1542.01	325.372
1543.53	314.003
1545.04	356.67
1546.56	372.388
1548.08	398.553
1549.6	423.327
1551.12	448.104
1552.64	462.848
1554.15	472.334
1555.67	502.789
1557.19	578.322
1558.71	592.615
1560.23	606.726
1561.75	644.665
1563.26	681.131
1564.78	724.231
1566.3	767.071
1567.82	809.022
1569.34	857.465
1570.86	901.67
1572.37	934.839
1573.89	985.461
1575.41	1041.55
1576.93	1089.26
1578.45	1167.51
1579.97	1212.15
1581.48	1247.54
1583	1308.29
1584.52	1358.84
1586.04	1411.6
1587.56	1471.81
1589.08	1485.04
1590.59	1529.79
1592.11	1599.21
1593.63	1614.05
1595.15	1618.42
1596.67	1621.57
1598.19	1641.45
1599.7	1674.47
1601.22	1649.03
1602.74	1624.6
1604.26	1601.25
1605.78	1559.46
1607.3	1528.13
1608.81	1464.2
1610.33	1449.12
1611.85	1356.11
1613.37	1309.63
1614.89	1232
1616.41	1152.3
1617.92	1093.68
1619.44	993.921
1620.96	943.571
1622.48	886.839
1624	793.839
1625.52	748.53
1627.04	668.904
1628.55	604.12
1630.07	546.227
1631.59	505.197
1633.11	466.149
1634.63	421.061
1636.15	390.495
1637.66	377.699
1639.18	313.767
1640.7	313.11
1642.22	282.936
1643.74	267.956
1645.26	237.526
1646.77	231.291
1648.29	210.53
1649.81	176.006
1651.33	164.018
1652.85	159.638
1654.37	151.553
1655.88	120.415
1657.4	111.168
1658.92	107.291
1660.44	83.6768
1661.96	81.1562
1663.48	85.9178
1664.99	64.7009
1666.51	54.1594
1668.03	56.4075
1669.55	39.1069
1671.07	40.8889
1672.59	36.0203
1674.1	23.976
1675.62	16.5764
1677.14	7.16396
1678.66	12.2313
1680.18	1.69715
1681.7	3.2195
1683.21	3.40535
1684.73	-0.384771
1686.25	1.75638
1687.77	-1.4957
1689.29	6.3733
1690.81	-2.53996
1692.32	-2.76405
1693.84	7.84851
1695.36	-0.0283464
1696.88	12.8081
1698.4	11.7997
1699.92	1.13646
1701.43	2.16417
1702.95	5.82976
1704.47	0.259321
1705.99	-7.85897
1707.51	2.58042
1709.03	8.09471
1710.54	5.42842
1712.06	-5.39913
1713.58	2.88618
1715.1	-12.4123
1716.62	0.0327825
1718.14	-6.64959
1719.65	-6.25814
1721.17	-2.24478
1722.69	-1.44918
1724.21	-6.40374
1725.73	1.65357
1727.25	-4.34579
1728.76	-1.28726
1730.28	-4.8399
1731.8	0.549621
1733.32	-1.23834
1734.84	-10.5256
1736.36	-12.1226
1737.87	-5.1637
1739.39	-0.153842
1740.91	-2.8133
1742.43	-2.64655
1743.95	-1.29514
1745.47	0.190362
1746.98	4.71584
1748.5	-2.63658
1750.02	7.88477
1751.54	9.72749
1753.06	-0.255848
1754.58	-1.28399
1756.09	10.7758
1757.61	4.40058
1759.13	-6.14559
1760.65	6.0892
1762.17	1.5813
1763.69	1.76715
1765.2	-7.35067
1766.72	8.15963
1768.24	3.37179
1769.76	-6.03902
1771.28	-8.60847
1772.8	4.84975
1774.31	-11.7032
1775.83	-2.46183
1777.35	0.864115
1778.87	-5.8042
1780.39	-3.10414
1781.91	-2.51448
1783.42	-12.842
1784.94	-1.81347
1786.46	-4.11061
1787.98	-1.21443
1789.5	-1.2097
1791.02	-0.835856
1792.53	-0.42228
1794.05	-1.91218
1795.57	1.44585
1797.09	2.02409
1798.61	-2.53966
1800.13	2.99018
1801.64	-1.52882
1803.16	-1.06801
1804.68	-1.4798
1806.2	4.83934
1807.72	7.23743
1809.24	0.413334
1810.76	6.86178
1812.27	5.25808
1813.79	-3.54653
1815.31	-4.30013
1816.83	8.30749
1818.35	4.33356
1819.86	14.2111
1821.38	-3.03486
1822.9	-1.45343
1824.42	-2.50856
1825.94	-9.39365
1827.46	0.380396
1828.98	1.00236
1830.49	2.01297
1832.01	1.34415
1833.53	2.4209
1835.05	-1.91002
1836.57	-0.189426
1838.09	-3.33675
1839.6	-0.578104
1841.12	5.05858
1842.64	-10.2295
1844.16	2.58192
1845.68	-10.4202
1847.2	-1.24617
1848.71	-0.776298
1850.23	-7.73678
1851.75	14.6106
1853.27	-2.62556
1854.79	0.219984
1856.31	-2.68868
1857.82	-1.62246
1859.34	-3.06913
1860.86	-6.97918
1862.38	1.25675
1863.9	7.41966
1865.42	-5.35649
1866.93	1.76108
1868.45	-8.85224
1869.97	-11.9745
1871.49	-8.75749
1873.01	0.89278
1874.53	4.11476
1876.04	4.22625
1877.56	3.70587
1879.08	-7.65157
1880.6	-4.68084
1882.12	-5.18923
1883.64	1.52248
1885.15	-12.0605
1886.67	-0.0555763
1888.19	-10.7882
1889.71	-3.91776
1891.23	-3.41436
1892.75	-0.390147
1894.26	-5.74768
1895.78	-2.90729
1897.3	6.26742
1898.82	1.64006
1900.34	-5.20194
1901.86	-9.53132
1903.37	1.38228
1904.89	-12.4726
1906.41	0.313871
1907.93	-1.09055
1909.45	-3.32369
1910.97	3.29066
1912.48	-7.68734
1914	-1.0426
1915.52	-8.71759
1917.04	-5.77085
1918.56	-1.78337
1920.08	9.41351
1921.59	13.0896
1923.11	-8.57704
1924.63	2.51499
1926.15	8.39598
1927.67	-5.01363
1929.19	-4.41488
1930.7	-7.3688
1932.22	4.58761
1933.74	-1.52929
1935.26	-3.66691
1936.78	0.0173936
1938.3	-4.31841
1939.81	2.0209
1941.33	-1.95383
1942.85	0.513188
1944.37	-7.49476
1945.89	-0.00131134
1947.41	2.01669
1948.92	-8.1944
1950.44	-11.9012
1951.96	-4.56924
1953.48	4.4661
1955	-8.33487
1956.52	12.1872
1958.03	-2.76454
1959.55	1.32737
1961.07	4.18012
1962.59	-3.08094
1964.11	2.67205
1965.63	-3.22537
1967.14	-9.46567
1968.66	3.21035
1970.18	-3.1036
1971.7	6.82987
1973.22	4.41369
1974.74	7.46593
1976.25	2.1003
1977.77	-7.08399
1979.29	-0.587956
1980.81	0.692088
1982.33	3.60435
1983.85	3.97423
1985.36	-4.57766
1986.88	-0.608291
1988.4	8.07223
1989.92	-0.368105
1991.44	10.4029
1992.96	0.769065
1994.47	3.73343
1995.99	-0.122845
1997.51	0.871765
1999.03	12.4607
2000.55	1.05574
2002.07	12.8635
2003.58	9.09844
2005.1	10.5268
2006.62	11.9901
2008.14	9.03404
2009.66	13.7152
2011.18	11.3103
2012.7	3.13113
2014.21	10.8088
2015.73	5.77022
2017.25	10.4419
2018.77	7.30931
2020.29	9.11656
2021.81	9.06077
2023.32	9.73066
2024.84	11.4329
2026.36	6.17099
2027.88	10.9159
2029.4	6.33952
2030.92	9.69096
2032.43	5.80403
2033.95	11.485
2035.47	3.76368
2036.99	15.2807
2038.51	9.48224
2040.03	0.882917
2041.54	-2.01094
2043.06	16.3253
2044.58	15.7401
2046.1	-4.02936
2047.62	15.5242
2049.14	11.6138
2050.65	14.5271
2052.17	16.301
2053.69	7.39198
2055.21	6.50591
2056.73	11.7782
2058.25	9.54863
2059.76	15.5712
2061.28	5.74528
2062.8	10.4198
2064.32	19.5357
2065.84	12.4223
2067.36	23.768
2068.87	6.85515
2070.39	3.02084
2071.91	17.3302
2073.43	12.3061
2074.95	8.68842
2076.47	18.4802
2077.98	11.3652
2079.5	11.8424
2081.02	15.3462
2082.54	21.5627
2084.06	11.8748
2085.58	8.2985
2087.09	12.4848
2088.61	17.5034
2090.13	19.199
2091.65	7.64873
2093.17	20.515
2094.69	18.7882
2096.2	8.0351
2097.72	13.2286
2099.24	19.9508
2100	8.78387