File: Example Data/Raman/CNT - TIM/Raytheon/Al foil/2010/03-26-10/Al10_LPCVD_550_5min -A_2.txt
200	141.711
201.54	145.916
203.08	147.777
204.619	146.184
206.159	135.402
207.699	149.732
209.239	144.672
210.778	144.667
212.318	147.428
213.858	145.22
215.398	155.731
216.938	151.245
218.477	140.486
220.017	143.004
221.557	144.123
223.097	147.068
224.636	157.373
226.176	149.318
227.716	150.035
229.256	150.105
230.796	149.602
232.335	144.585
233.875	145.226
235.415	150.625
236.955	149.399
238.494	148.121
240.034	155.105
241.574	143.187
243.114	153.608
244.654	148.124
246.193	138.878
247.733	148.967
249.273	143.804
250.813	150.594
252.352	145
253.892	151.889
255.432	156.534
256.972	137.007
258.512	144.835
260.051	142.452
261.591	156.259
263.131	155.405
264.671	148.347
266.21	150.358
267.75	138.222
269.29	154.887
270.83	149.132
272.37	142.81
273.909	156.89
275.449	146.294
276.989	145.677
278.529	156.104
280.068	148.491
281.608	148.12
283.148	148.869
284.688	149.356
286.228	149.776
287.767	139.19
289.307	151.813
290.847	149.739
292.387	143.49
293.926	144.136
295.466	151.634
297.006	142.629
298.546	149.436
300.086	151.192
301.625	150.591
303.165	155.091
304.705	153.218
306.245	149.957
307.784	147.19
309.324	146.913
310.864	153.096
312.404	142.185
313.944	150.189
315.483	143.036
317.023	162.136
318.563	148.51
320.103	156.78
321.642	153.205
323.182	149.155
324.722	156.198
326.262	153.261
327.802	147.051
329.341	156.19
330.881	155.346
332.421	156.763
333.961	152.787
335.5	163.358
337.04	161.769
338.58	163.581
340.12	158.536
341.66	166.539
343.199	161.774
344.739	157.649
346.279	170.072
347.819	161.65
349.358	165.845
350.898	159.887
352.438	160.8
353.978	158.06
355.518	164.332
357.057	173.052
358.597	170.607
360.137	156.865
361.677	161.296
363.216	168.539
364.756	151.292
366.296	155.009
367.836	162.544
369.376	166.118
370.915	156.071
372.455	165.481
373.995	157.077
375.535	163.875
377.074	157.403
378.614	161.064
380.154	153.224
381.694	157.28
383.234	163.412
384.773	160.624
386.313	163.838
387.853	158.209
389.393	164.624
390.932	158.834
392.472	169.096
394.012	154.806
395.552	157.721
397.092	161.689
398.631	158.209
400.171	152.872
401.711	158.357
403.251	165.557
404.79	158.501
406.33	160.92
407.87	165.591
409.41	157.165
410.95	171.379
412.489	159.694
414.029	147.407
415.569	153.385
417.109	167.778
418.648	162.333
420.188	156.043
421.728	158.286
423.268	154.105
424.808	165.739
426.347	156.156
427.887	155.218
429.427	162.565
430.967	152.283
432.506	155.721
434.046	157.386
435.586	162.424
437.126	158.087
438.666	165.963
440.205	150.793
441.745	162.114
443.285	155.454
444.825	157.74
446.364	162.99
447.904	154.339
449.444	151.132
450.984	155.422
452.524	154.046
454.063	160.878
455.603	161.842
457.143	148.758
458.683	152.991
460.222	153.528
461.762	164.658
463.302	161.98
464.842	152.974
466.382	147.918
467.921	153.546
469.461	162.86
471.001	157.85
472.541	151.56
474.08	150.187
475.62	153.73
477.16	157.988
478.7	156.399
480.24	165.766
481.779	271.134
483.319	256.381
484.859	164.009
486.399	150.616
487.938	146.348
489.478	156.67
491.018	155.573
492.558	150.852
494.098	136.688
495.637	154.767
497.177	160.079
498.717	149.692
500.257	144.083
501.796	150.89
503.336	153.704
504.876	159.129
506.416	150.292
507.956	160.932
509.495	148.878
511.035	143.986
512.575	140.657
514.115	147.798
515.654	155.063
517.194	151.037
518.734	149.239
520.274	145.765
521.814	149.964
523.353	148.886
524.893	148.191
526.433	140.095
527.973	147.864
529.512	147.352
531.052	143.4
532.592	139.986
534.132	149.417
535.672	142.48
537.211	137.299
538.751	153.317
540.291	142.753
541.831	142.967
543.37	145.123
544.91	151.558
546.45	144.362
547.99	147.198
549.53	154.536
551.069	145.71
552.609	153.571
554.149	139.203
555.689	146.586
557.228	152.945
558.768	142.077
560.308	152.995
561.848	147.677
563.388	150.669
564.927	147.312
566.467	151.645
568.007	153.968
569.547	151
571.086	155.674
572.626	151.083
574.166	156.842
575.706	154.648
577.245	163.141
578.785	160.398
580.325	143.833
581.865	155.084
583.405	151.919
584.944	157.44
586.484	148.254
588.024	160.77
589.564	154.014
591.104	155.393
592.643	152.091
594.183	160.766
595.723	155.913
597.263	154.736
598.802	140.928
600.342	156.398
601.882	154.366
603.422	155.534
604.961	155.086
606.501	160.151
608.041	152.344
609.581	142.383
611.121	159.022
612.66	149.931
614.2	152.047
615.74	155.464
617.28	161.577
618.82	159.221
620.359	150.219
621.899	153.666
623.439	160.306
624.979	151.119
626.518	161.53
628.058	156.502
629.598	152.3
631.138	153.765
632.677	145.443
634.217	151.765
635.757	150.13
637.297	148.333
638.837	151.693
640.376	152.848
641.916	149.072
643.456	156.76
644.996	155.359
646.536	147.6
648.075	150.842
649.615	159.34
651.155	159.73
652.695	163.868
654.234	158.396
655.774	155.571
657.314	147.762
658.854	149.681
660.393	166.023
661.933	154.026
663.473	153.026
665.013	164.85
666.553	164.111
668.092	161.085
669.632	157.679
671.172	158.09
672.712	149.66
674.252	151.361
675.791	171.423
677.331	154.131
678.871	165.559
680.411	163.918
681.95	166.775
683.49	151.514
685.03	154.238
686.57	162.044
688.109	155.522
689.649	167.7
691.189	156.759
692.729	158.775
694.269	152.141
695.808	154.377
697.348	161.782
698.888	159.739
700.428	160.634
701.967	158.91
703.507	154.841
705.047	168.299
706.587	163.268
708.127	162.184
709.666	164.584
711.206	158.376
712.746	148.311
714.286	168.528
715.826	162.336
717.365	160.338
718.905	160.264
720.445	160.44
721.985	157.366
723.524	164.308
725.064	158.228
726.604	161.879
728.144	168.865
729.683	168.658
731.223	150.955
732.763	157.954
734.303	152.343
735.843	159.02
737.382	161.582
738.922	166.472
740.462	162.819
742.002	163.046
743.542	169.299
745.081	166.752
746.621	170.287
748.161	168.695
749.701	175
751.24	174.145
752.78	167.477
754.32	167.578
755.86	170.737
757.399	169.063
758.939	167.889
760.479	174.655
762.019	165.689
763.559	180.893
765.098	159.277
766.638	155.608
768.178	171.22
769.718	167.863
771.258	161.437
772.797	169.784
774.337	165.73
775.877	186.453
777.417	177.539
778.956	167.616
780.496	168.083
782.036	169.293
783.576	170.352
785.115	172.302
786.655	170.574
788.195	172.172
789.735	166.356
791.275	172.208
792.814	178.26
794.354	160.887
795.894	173.483
797.434	166.102
798.974	174.018
800.513	171.517
802.053	176.535
803.593	178.409
805.133	177.48
806.672	182.571
808.212	157.552
809.752	176.414
811.292	162.333
812.831	178.047
814.371	172.121
815.911	176.801
817.451	174.888
818.991	176.048
820.53	176.822
822.07	180.293
823.61	178.47
825.15	176.894
826.689	183.902
828.229	173.371
829.769	176.122
831.309	180.787
832.849	174.822
834.388	184.67
835.928	173.137
837.468	183.034
839.008	179.19
840.547	179.393
842.087	181.853
843.627	174.993
845.167	172.934
846.707	187.554
848.246	182.133
849.786	176.538
851.326	175.182
852.866	180.953
854.405	179.534
855.945	178.367
857.485	182.94
859.025	179.794
860.565	181.911
862.104	176.588
863.644	176.762
865.184	172.492
866.724	168.39
868.263	179.688
869.803	176.238
871.343	168.817
872.883	169.689
874.423	171.725
875.962	177.549
877.502	171.102
879.042	168.598
880.582	172.765
882.121	165.605
883.661	177.708
885.201	174.785
886.741	167.157
888.281	166.047
889.82	169.221
891.36	169.81
892.9	173.418
894.44	162.461
895.979	172.656
897.519	172.222
899.059	160.32
900.599	165.127
902.139	158.622
903.678	166.815
905.218	175.201
906.758	161.164
908.298	167.469
909.837	164.375
911.377	177.656
912.917	173.6
914.457	151.118
915.997	153.683
917.536	160.772
919.076	172.636
920.616	161.582
922.156	164.987
923.695	163.882
925.235	164.421
926.775	157.007
928.315	170.667
929.855	172.599
931.394	159.001
932.934	162.628
934.474	164.46
936.014	162.788
937.553	157.763
939.093	167.866
940.633	167.04
942.173	164.896
943.713	159.241
945.252	163.419
946.792	175.996
948.332	172.51
949.872	162.61
951.411	161.32
952.951	168.633
954.491	165.363
956.031	170.412
957.571	170.126
959.11	154.02
960.65	166.654
962.19	171.493
963.73	160.715
965.269	162.892
966.809	164.892
968.349	171.505
969.889	164.061
971.429	178.978
972.968	157.668
974.508	163.966
976.048	167.04
977.588	167.309
979.127	171.277
980.667	169.751
982.207	166.851
983.747	168.302
985.287	174.736
986.826	172.269
988.366	168.381
989.906	167.755
991.446	168.764
992.985	174.852
994.525	174.614
996.065	174.781
997.605	171.84
999.145	170.195
1000.68	172.703
1002.22	170.446
1003.76	173.575
1005.3	177.588
1006.84	172.432
1008.38	185.677
1009.92	175.887
1011.46	176.11
1013	192.241
1014.54	174.87
1016.08	182.186
1017.62	174.85
1019.16	166.56
1020.7	174.401
1022.24	182.778
1023.78	177.192
1025.32	176.722
1026.86	179.939
1028.4	184.056
1029.94	183.018
1031.48	175.574
1033.02	193.839
1034.56	177.35
1036.1	191.672
1037.64	191.063
1039.18	187.196
1040.72	188.121
1042.26	181.542
1043.8	182.236
1045.34	194.723
1046.88	186.2
1048.42	174.493
1049.96	184.011
1051.5	178.43
1053.04	177.642
1054.58	184.693
1056.12	183.365
1057.66	194.076
1059.2	190.246
1060.74	192.155
1062.28	181.925
1063.82	184.215
1065.35	198.726
1066.89	195.096
1068.43	189.511
1069.97	192.307
1071.51	194.536
1073.05	184.216
1074.59	183.116
1076.13	199.186
1077.67	193.498
1079.21	199.664
1080.75	200.551
1082.29	183.469
1083.83	190
1085.37	193.087
1086.91	203.014
1088.45	200.554
1089.99	191.101
1091.53	208.547
1093.07	194.814
1094.61	198.217
1096.15	188.185
1097.69	194.822
1099.23	191.288
1100.77	197.225
1102.31	200.48
1103.85	199.326
1105.39	200.913
1106.93	183.643
1108.47	208.333
1110.01	206.7
1111.55	209.709
1113.09	198.275
1114.63	213.96
1116.17	203.445
1117.71	205.862
1119.25	209.495
1120.79	218.147
1122.33	199.713
1123.87	204.138
1125.41	218.702
1126.95	217.056
1128.49	212.488
1130.03	208.811
1131.57	205.768
1133.11	221.787
1134.65	205.728
1136.18	223.883
1137.72	215.418
1139.26	219.944
1140.8	214.565
1142.34	223.188
1143.88	219.203
1145.42	237.443
1146.96	222.746
1148.5	225.395
1150.04	234.305
1151.58	223.153
1153.12	234.258
1154.66	230.588
1156.2	228.977
1157.74	243.107
1159.28	227.124
1160.82	237.248
1162.36	227.86
1163.9	230.996
1165.44	225.751
1166.98	240.6
1168.52	237.967
1170.06	245.221
1171.6	244.387
1173.14	229.439
1174.68	239.539
1176.22	236.196
1177.76	243.11
1179.3	241.326
1180.84	240.247
1182.38	232.479
1183.92	240.824
1185.46	247.929
1187	240.768
1188.54	246.189
1190.08	236.606
1191.62	246.505
1193.16	249.285
1194.7	239.009
1196.24	237.307
1197.78	247.508
1199.32	248.502
1200.86	249.435
1202.4	261.532
1203.93	250.755
1205.47	246.241
1207.01	246.841
1208.55	251.536
1210.09	266.337
1211.63	253.464
1213.17	256.301
1214.71	264.183
1216.25	263.185
1217.79	253.12
1219.33	260.886
1220.87	270.968
1222.41	267.469
1223.95	270.996
1225.49	268.368
1227.03	272.039
1228.57	287.64
1230.11	274.108
1231.65	281.65
1233.19	275.438
1234.73	284.702
1236.27	283.462
1237.81	278.249
1239.35	283.052
1240.89	288.869
1242.43	284.164
1243.97	289.594
1245.51	274.726
1247.05	299.416
1248.59	295.384
1250.13	289.23
1251.67	302.076
1253.21	306.882
1254.75	309.797
1256.29	301.797
1257.83	313.255
1259.37	292.833
1260.91	294.338
1262.45	317.497
1263.99	306.566
1265.53	318.853
1267.07	321.408
1268.61	322.397
1270.15	322.003
1271.69	319.695
1273.22	332.228
1274.76	343.974
1276.3	326.965
1277.84	333.87
1279.38	338.3
1280.92	347.248
1282.46	338.186
1284	357.437
1285.54	352.055
1287.08	358.263
1288.62	350.13
1290.16	374.054
1291.7	373.746
1293.24	371.42
1294.78	373.855
1296.32	375.732
1297.86	387.884
1299.4	386.145
1300.94	399.259
1302.48	388.352
1304.02	396.323
1305.56	391.76
1307.1	417.471
1308.64	393.185
1310.18	426.95
1311.72	441.103
1313.26	422.9
1314.8	437.128
1316.34	427.387
1317.88	449.173
1319.42	427.896
1320.96	434.305
1322.5	443.926
1324.04	463.72
1325.58	467.397
1327.12	455.691
1328.66	465.498
1330.2	464.722
1331.74	459.596
1333.28	475.014
1334.82	485.684
1336.36	469.975
1337.9	468.01
1339.44	493.568
1340.98	466.788
1342.52	485.998
1344.05	484.635
1345.59	490.404
1347.13	490.325
1348.67	476.202
1350.21	487.771
1351.75	459.53
1353.29	478.813
1354.83	459.166
1356.37	466.404
1357.91	456.877
1359.45	454.088
1360.99	449.77
1362.53	455.103
1364.07	447.02
1365.61	434.442
1367.15	455.532
1368.69	449.637
1370.23	422.075
1371.77	441.457
1373.31	463.739
1374.85	424.481
1376.39	419.545
1377.93	417.718
1379.47	403.068
1381.01	398.857
1382.55	409.804
1384.09	396.12
1385.63	402.52
1387.17	385.749
1388.71	401.314
1390.25	382.837
1391.79	394.991
1393.33	376.206
1394.87	392.514
1396.41	382.177
1397.95	381.757
1399.49	369.057
1401.03	352.364
1402.57	362.954
1404.11	358.605
1405.65	356.307
1407.19	335.895
1408.73	347.363
1410.27	356.337
1411.8	350.79
1413.34	340.944
1414.88	334.303
1416.42	348.131
1417.96	342.645
1419.5	345.699
1421.04	338.948
1422.58	352.184
1424.12	334.848
1425.66	315.457
1427.2	328.202
1428.74	327.261
1430.28	324.875
1431.82	317.452
1433.36	320.033
1434.9	317.86
1436.44	318.915
1437.98	324.61
1439.52	321.203
1441.06	327.51
1442.6	315.683
1444.14	328.519
1445.68	315.685
1447.22	326.73
1448.76	327.293
1450.3	312.843
1451.84	313.732
1453.38	311.338
1454.92	313.703
1456.46	323.642
1458	319.244
1459.54	302.134
1461.08	317.519
1462.62	317.078
1464.16	320.583
1465.7	328.958
1467.24	297.205
1468.78	329.568
1470.32	327.23
1471.86	309.896
1473.4	319.588
1474.94	315.822
1476.48	312.05
1478.02	315.188
1479.56	307.762
1481.09	324.902
1482.63	324.001
1484.17	311.994
1485.71	307.784
1487.25	312.688
1488.79	312.262
1490.33	306.873
1491.87	319.304
1493.41	305.719
1494.95	313.215
1496.49	320.423
1498.03	288.497
1499.57	320.499
1501.11	320.458
1502.65	327.108
1504.19	314.36
1505.73	310.576
1507.27	311.982
1508.81	322.522
1510.35	308.736
1511.89	313.706
1513.43	323.371
1514.97	313.609
1516.51	311.455
1518.05	311.921
1519.59	323.844
1521.13	320.942
1522.67	305.821
1524.21	330.956
1525.75	334.092
1527.29	329.807
1528.83	322.376
1530.37	323.508
1531.91	324.178
1533.45	325.397
1534.99	335.791
1536.53	345.231
1538.07	327.06
1539.61	333.031
1541.15	339.575
1542.69	333.653
1544.23	342.103
1545.77	356.588
1547.31	342.914
1548.85	347.408
1550.38	348.903
1551.92	362.183
1553.46	357.882
1555	380.041
1556.54	381.254
1558.08	365.951
1559.62	370.157
1561.16	381.751
1562.7	389.099
1564.24	386.212
1565.78	390.606
1567.32	399.494
1568.86	401.992
1570.4	411.572
1571.94	407.935
1573.48	424.71
1575.02	421.412
1576.56	437.024
1578.1	427.801
1579.64	445.261
1581.18	457.759
1582.72	458.534
1584.26	454.5
1585.8	460.041
1587.34	481.632
1588.88	485.705
1590.42	495.967
1591.96	498.2
1593.5	494.858
1595.04	500.18
1596.58	497.174
1598.12	500.813
1599.66	500.985
1601.2	505.039
1602.74	503.914
1604.28	492.979
1605.82	499.005
1607.36	482.597
1608.9	487.238
1610.44	472.795
1611.98	489.237
1613.52	466.738
1615.06	464.686
1616.6	438.839
1618.14	444.129
1619.67	438.873
1621.21	414.822
1622.75	400.622
1624.29	387.098
1625.83	380.914
1627.37	370.509
1628.91	354.318
1630.45	351.119
1631.99	328.549
1633.53	330.519
1635.07	325.237
1636.61	312.424
1638.15	292.287
1639.69	299.485
1641.23	292.676
1642.77	268.285
1644.31	287.238
1645.85	270.935
1647.39	272.248
1648.93	263.16
1650.47	262.923
1652.01	246.493
1653.55	254.327
1655.09	238.45
1656.63	249.008
1658.17	230.794
1659.71	239.71
1661.25	233.665
1662.79	229.036
1664.33	233.295
1665.87	221.314
1667.41	217.003
1668.95	206.403
1670.49	208.047
1672.03	202.844
1673.57	201.984
1675.11	203.54
1676.65	210.332
1678.19	198.794
1679.73	196.714
1681.27	194.134
1682.81	195.608
1684.35	184.948
1685.89	184.21
1687.43	201.175
1688.96	197.391
1690.5	176.146
1692.04	181.839
1693.58	180.294
1695.12	185.174
1696.66	177.008
1698.2	168.119
1699.74	184.929
1701.28	179.589
1702.82	184.003
1704.36	164.152
1705.9	180.083
1707.44	181.847
1708.98	183.753
1710.52	178.983
1712.06	178.429
1713.6	179.427
1715.14	165.908
1716.68	175.884
1718.22	166.351
1719.76	176.241
1721.3	169.006
1722.84	180.513
1724.38	173.898
1725.92	181.21
1727.46	169.744
1729	165.403
1730.54	176.747
1732.08	160.112
1733.62	166.809
1735.16	172.106
1736.7	177.599
1738.24	168.389
1739.78	159.778
1741.32	172.767
1742.86	170.96
1744.4	169.27
1745.94	164.108
1747.48	164.92
1749.02	162.372
1750.56	172.973
1752.1	167.925
1753.64	165.359
1755.18	165.046
1756.72	164.752
1758.25	168.906
1759.79	173.24
1761.33	164.916
1762.87	175.939
1764.41	161.258
1765.95	164
1767.49	164.923
1769.03	171.941
1770.57	158.269
1772.11	161.672
1773.65	169.573
1775.19	163.068
1776.73	160.958
1778.27	158.861
1779.81	168.464
1781.35	166.648
1782.89	169.6
1784.43	168.806
1785.97	164.674
1787.51	161.063
1789.05	163.218
1790.59	165.608
1792.13	161.849
1793.67	165.248
1795.21	169.804
1796.75	167.406
1798.29	177.971
1799.83	163.423
1801.37	164.333
1802.91	165.618
1804.45	154.792
1805.99	169.185
1807.53	164.812
1809.07	163.919
1810.61	167.44
1812.15	165.64
1813.69	172.249
1815.23	157.931
1816.77	168.601
1818.31	170.647
1819.85	169.137
1821.39	156.351
1822.93	168.647
1824.47	162.272
1826.01	166.667
1827.54	162.875
1829.08	154.852
1830.62	155.109
1832.16	162.908
1833.7	163.003
1835.24	160.39
1836.78	169.239
1838.32	162.967
1839.86	166.039
1841.4	169.963
1842.94	158.235
1844.48	157.313
1846.02	157
1847.56	169.407
1849.1	162.899
1850.64	161.414
1852.18	166.839
1853.72	170.303
1855.26	160.713
1856.8	152.465
1858.34	157.389
1859.88	168.631
1861.42	170.549
1862.96	163.562
1864.5	160.216
1866.04	171.431
1867.58	161.054
1869.12	166.021
1870.66	169.736
1872.2	166.616
1873.74	162.333
1875.28	168.063
1876.82	157.549
1878.36	166.881
1879.9	165.769
1881.44	154.353
1882.98	151.598
1884.52	161.069
1886.06	150.534
1887.6	156.333
1889.14	165.174
1890.68	158.983
1892.22	165.7
1893.76	166.053
1895.3	151.244
1896.83	159.754
1898.37	155.692
1899.91	167.178
1901.45	163.414
1902.99	160.045
1904.53	159.651
1906.07	175.291
1907.61	168.642
1909.15	157.198
1910.69	164.368
1912.23	154.658
1913.77	170.02
1915.31	157.742
1916.85	160.131
1918.39	158.214
1919.93	158.764
1921.47	152.488
1923.01	163.883
1924.55	157.77
1926.09	158.328
1927.63	165.986
1929.17	158.326
1930.71	159.431
1932.25	161.277
1933.79	163.856
1935.33	162.302
1936.87	158.746
1938.41	161
1939.95	165.532
1941.49	154.333
1943.03	164.076
1944.57	172.216
1946.11	156.317
1947.65	155.599
1949.19	158.733
1950.73	155.006
1952.27	147.781
1953.81	154.438
1955.35	157.35
1956.89	165.288
1958.43	162.54
1959.97	157.914
1961.51	156.302
1963.05	145.876
1964.59	162.691
1966.12	168.979
1967.66	156.549
1969.2	157.414
1970.74	160.333
1972.28	153.21
1973.82	155.978
1975.36	161.28
1976.9	163.822
1978.44	162.341
1979.98	154.329
1981.52	165.297
1983.06	156.157
1984.6	153.315
1986.14	160.967
1987.68	153.398
1989.22	164.192
1990.76	161.914
1992.3	157.75
1993.84	164.255
1995.38	161.95
1996.92	153
1998.46	159.764
2000	167.222