File: Example Data/Raman/CNT - TIM/Raytheon/Al foil/2010/03-26-10/Al10_LPCVD_550_5min -B_2.txt
200	238.973
201.54	254.63
203.08	257.57
204.619	265.764
206.159	253.088
207.699	255.205
209.239	253.58
210.778	259.645
212.318	264.493
213.858	255.767
215.398	258.852
216.938	257.029
218.477	257.776
220.017	261.813
221.557	259.687
223.097	268.296
224.636	263.907
226.176	264.764
227.716	258.101
229.256	256.007
230.796	256.141
232.335	254.663
233.875	259.706
235.415	261.375
236.955	259.12
238.494	264.326
240.034	247.579
241.574	239.365
243.114	252.794
244.654	243.451
246.193	263.713
247.733	246.138
249.273	264.49
250.813	256.677
252.352	254.831
253.892	259.667
255.432	250.494
256.972	252.002
258.512	254.936
260.051	260.065
261.591	261.853
263.131	249.615
264.671	258.24
266.21	252.957
267.75	249.983
269.29	254.044
270.83	251.043
272.37	240.728
273.909	243.7
275.449	246.961
276.989	243.17
278.529	262.686
280.068	251.707
281.608	253.967
283.148	258.704
284.688	240.045
286.228	244.353
287.767	251.186
289.307	243.002
290.847	241.899
292.387	235.585
293.926	246.343
295.466	241.964
297.006	238.024
298.546	233.011
300.086	239.864
301.625	236.833
303.165	240.407
304.705	235.923
306.245	239.567
307.784	237.613
309.324	237.681
310.864	229.073
312.404	225.421
313.944	227.945
315.483	231.379
317.023	225.25
318.563	232.049
320.103	234.741
321.642	231.115
323.182	234.92
324.722	223.637
326.262	224.256
327.802	226.614
329.341	230.868
330.881	228.801
332.421	216.468
333.961	233.538
335.5	221.92
337.04	239.018
338.58	225.727
340.12	227.918
341.66	229.8
343.199	225.116
344.739	223.211
346.279	217.365
347.819	222.963
349.358	221.485
350.898	218.163
352.438	221.731
353.978	216.879
355.518	217.233
357.057	218.221
358.597	215.015
360.137	221.229
361.677	223.621
363.216	223.031
364.756	209.429
366.296	199.017
367.836	225.717
369.376	214.684
370.915	214.027
372.455	202.816
373.995	200.276
375.535	204.438
377.074	212.371
378.614	204.077
380.154	212.577
381.694	200.409
383.234	206.873
384.773	201.614
386.313	203.057
387.853	194.87
389.393	194.5
390.932	195.318
392.472	202.046
394.012	195.328
395.552	197.25
397.092	197.62
398.631	208.959
400.171	200.153
401.711	190.659
403.251	207.258
404.79	193.534
406.33	193.249
407.87	193.88
409.41	193.923
410.95	202.82
412.489	191.1
414.029	191.407
415.569	190.362
417.109	204.975
418.648	192.622
420.188	199.753
421.728	194.321
423.268	195.164
424.808	194.573
426.347	196.677
427.887	198.215
429.427	187.132
430.967	190.504
432.506	189.915
434.046	193.552
435.586	180.847
437.126	191.768
438.666	186.972
440.205	185.588
441.745	194.745
443.285	182.091
444.825	190.33
446.364	180.364
447.904	176.918
449.444	183.719
450.984	188.119
452.524	183.264
454.063	180.661
455.603	179.224
457.143	176.984
458.683	185.646
460.222	179.765
461.762	182.55
463.302	181.795
464.842	179.246
466.382	181.024
467.921	173.62
469.461	182.483
471.001	178.926
472.541	184.113
474.08	180.781
475.62	182.586
477.16	182.182
478.7	170.34
480.24	187.575
481.779	181.092
483.319	169.126
484.859	167.627
486.399	168.817
487.938	173.015
489.478	173.67
491.018	174.415
492.558	180.733
494.098	168.157
495.637	165.876
497.177	175.288
498.717	162.666
500.257	169.531
501.796	169.907
503.336	171.144
504.876	160.518
506.416	160.77
507.956	171.232
509.495	174.518
511.035	168.596
512.575	167.616
514.115	168.982
515.654	164.935
517.194	161.181
518.734	170.34
520.274	158.827
521.814	160.47
523.353	169.533
524.893	166.487
526.433	162.991
527.973	170.062
529.512	157.581
531.052	164.169
532.592	162.251
534.132	169.916
535.672	168.764
537.211	162.882
538.751	166.613
540.291	166.213
541.831	166
543.37	165.952
544.91	161.608
546.45	165.663
547.99	161.683
549.53	164.603
551.069	170.865
552.609	171.842
554.149	166.477
555.689	166.81
557.228	171.209
558.768	164.639
560.308	171.24
561.848	174.154
563.388	165.911
564.927	169.7
566.467	174.25
568.007	168.176
569.547	172.033
571.086	160.992
572.626	171.992
574.166	165.996
575.706	178.396
577.245	173.878
578.785	171.733
580.325	176.33
581.865	176.4
583.405	166.989
584.944	174.802
586.484	177.785
588.024	165.185
589.564	176.99
591.104	175.01
592.643	172.795
594.183	179.206
595.723	181.968
597.263	176.129
598.802	174.228
600.342	169.066
601.882	162.336
603.422	175.302
604.961	167.873
606.501	169.761
608.041	171.901
609.581	189.344
611.121	181.592
612.66	172.774
614.2	176.355
615.74	177.733
617.28	176.657
618.82	176.426
620.359	176.11
621.899	182.279
623.439	173.396
624.979	178.226
626.518	173.918
628.058	174.369
629.598	189.12
631.138	172.488
632.677	191.834
634.217	168.946
635.757	181.5
637.297	175.679
638.837	187.656
640.376	180.307
641.916	186.723
643.456	185.561
644.996	177.395
646.536	194.542
648.075	185.198
649.615	182.274
651.155	195.463
652.695	178.266
654.234	176.326
655.774	185.832
657.314	192.156
658.854	189.395
660.393	200.872
661.933	184.871
663.473	198.526
665.013	182.135
666.553	203.726
668.092	191.656
669.632	185.531
671.172	191.852
672.712	186.225
674.252	182.803
675.791	197.105
677.331	188.93
678.871	193.076
680.411	188.352
681.95	191.2
683.49	204.696
685.03	188.347
686.57	199.833
688.109	193.432
689.649	181.84
691.189	198.5
692.729	194.74
694.269	196.72
695.808	187.749
697.348	192.589
698.888	194.028
700.428	189.707
701.967	199.678
703.507	196.103
705.047	198.66
706.587	200.864
708.127	210.267
709.666	203.861
711.206	204.85
712.746	196.827
714.286	208.325
715.826	202.987
717.365	189.962
718.905	211.769
720.445	207.835
721.985	203.126
723.524	205.034
725.064	213.397
726.604	210.278
728.144	210.293
729.683	210.446
731.223	210.44
732.763	212.042
734.303	210.289
735.843	221.639
737.382	215.484
738.922	224.942
740.462	217.964
742.002	224.358
743.542	220.214
745.081	215.985
746.621	218.974
748.161	228.363
749.701	218.494
751.24	222.856
752.78	226.142
754.32	222.206
755.86	227.439
757.399	237.116
758.939	210.657
760.479	221.533
762.019	228.549
763.559	234.453
765.098	225.532
766.638	231.012
768.178	229.427
769.718	236.118
771.258	231.686
772.797	223.134
774.337	237.986
775.877	236.271
777.417	232.297
778.956	234.673
780.496	231.616
782.036	228.611
783.576	232.719
785.115	234.188
786.655	231.521
788.195	237.773
789.735	234.159
791.275	241.904
792.814	240.917
794.354	243.638
795.894	240.395
797.434	254.598
798.974	248.323
800.513	242.884
802.053	236.747
803.593	251.597
805.133	254.232
806.672	245.418
808.212	248.552
809.752	244.104
811.292	247.019
812.831	251.01
814.371	257.079
815.911	249.096
817.451	251.406
818.991	251.834
820.53	259.17
822.07	246.951
823.61	258.577
825.15	251.413
826.689	247.915
828.229	246.66
829.769	270.471
831.309	262.496
832.849	261.143
834.388	256.267
835.928	263.834
837.468	261.932
839.008	263.627
840.547	252.769
842.087	273.38
843.627	268.902
845.167	264.355
846.707	264.877
848.246	260.889
849.786	259.497
851.326	257.209
852.866	259.781
854.405	264.824
855.945	252.192
857.485	260.486
859.025	260.098
860.565	257.775
862.104	264.279
863.644	260.088
865.184	248.288
866.724	251.959
868.263	245.017
869.803	247.22
871.343	240.726
872.883	241.94
874.423	231.579
875.962	234.594
877.502	230.05
879.042	235.981
880.582	235.41
882.121	230.927
883.661	229.061
885.201	232.217
886.741	210.393
888.281	222.036
889.82	221.708
891.36	225.2
892.9	228.132
894.44	210.952
895.979	215.253
897.519	206.652
899.059	208.787
900.599	213.222
902.139	202.314
903.678	208.269
905.218	217.063
906.758	203.716
908.298	210.968
909.837	200.85
911.377	205.062
912.917	196.9
914.457	199.651
915.997	199.25
917.536	197.677
919.076	186.934
920.616	192.124
922.156	195.586
923.695	192.317
925.235	194.342
926.775	194.597
928.315	183.126
929.855	179.339
931.394	197.784
932.934	191.685
934.474	189.431
936.014	196.594
937.553	190.841
939.093	187.281
940.633	197.29
942.173	193.032
943.713	195.727
945.252	190.928
946.792	188.356
948.332	192.666
949.872	191.515
951.411	191.913
952.951	184.726
954.491	190.993
956.031	197.982
957.571	206.213
959.11	184.082
960.65	194.85
962.19	191.271
963.73	196.753
965.269	188.407
966.809	195.447
968.349	191.352
969.889	194.632
971.429	178.742
972.968	193.893
974.508	191
976.048	186.611
977.588	191.658
979.127	198.019
980.667	202.559
982.207	191.901
983.747	189.896
985.287	197.339
986.826	196.458
988.366	200.17
989.906	195.993
991.446	202.234
992.985	193.061
994.525	201.931
996.065	204.976
997.605	206.7
999.145	206.777
1000.68	204.696
1002.22	207.417
1003.76	211.556
1005.3	207.655
1006.84	207.193
1008.38	209.612
1009.92	212.651
1011.46	210.599
1013	213.06
1014.54	214.087
1016.08	217.162
1017.62	221.59
1019.16	217.146
1020.7	219.138
1022.24	226.405
1023.78	222.94
1025.32	224.128
1026.86	226.512
1028.4	222.529
1029.94	228.536
1031.48	225.698
1033.02	233.773
1034.56	238.613
1036.1	237.323
1037.64	222.463
1039.18	231.941
1040.72	237.916
1042.26	235.293
1043.8	228.027
1045.34	242.969
1046.88	236.392
1048.42	241.195
1049.96	244.364
1051.5	241.813
1053.04	241.103
1054.58	246.059
1056.12	243.09
1057.66	246.103
1059.2	242.736
1060.74	250.359
1062.28	244.201
1063.82	247.903
1065.35	246.053
1066.89	250.894
1068.43	253.072
1069.97	238.122
1071.51	227.83
1073.05	243.476
1074.59	249.257
1076.13	245.4
1077.67	267.95
1079.21	242.092
1080.75	238.947
1082.29	255.396
1083.83	253.048
1085.37	245.654
1086.91	258.306
1088.45	256.893
1089.99	253.521
1091.53	259.084
1093.07	258.889
1094.61	252.151
1096.15	260.312
1097.69	261.854
1099.23	264.353
1100.77	265.725
1102.31	265.633
1103.85	266.149
1105.39	257.276
1106.93	273.213
1108.47	278.934
1110.01	279.443
1111.55	261.097
1113.09	278.867
1114.63	278.692
1116.17	272.624
1117.71	282.406
1119.25	286.7
1120.79	278.064
1122.33	290.908
1123.87	281.325
1125.41	286.465
1126.95	292.602
1128.49	281.895
1130.03	285.151
1131.57	296.155
1133.11	300.212
1134.65	299.316
1136.18	294.704
1137.72	299.385
1139.26	299.544
1140.8	299.301
1142.34	302.492
1143.88	296.422
1145.42	315.083
1146.96	316.691
1148.5	314.843
1150.04	314.16
1151.58	313.077
1153.12	305.75
1154.66	313.085
1156.2	329.548
1157.74	315.944
1159.28	331.756
1160.82	330.06
1162.36	325.866
1163.9	328.625
1165.44	324.527
1166.98	330.325
1168.52	340.432
1170.06	325.126
1171.6	337.193
1173.14	325.439
1174.68	333.027
1176.22	330.751
1177.76	338.447
1179.3	328.665
1180.84	345.059
1182.38	334.092
1183.92	340.845
1185.46	353.346
1187	346.727
1188.54	359.045
1190.08	356.174
1191.62	364.819
1193.16	356.866
1194.7	357.786
1196.24	358.887
1197.78	354.658
1199.32	348.833
1200.86	363.816
1202.4	376.21
1203.93	375.295
1205.47	379.305
1207.01	366.645
1208.55	383.195
1210.09	372.422
1211.63	381.224
1213.17	391.222
1214.71	388.701
1216.25	389.784
1217.79	404.545
1219.33	393.213
1220.87	408.492
1222.41	406.057
1223.95	403.618
1225.49	402.421
1227.03	408.514
1228.57	417.375
1230.11	412.507
1231.65	418.179
1233.19	429.169
1234.73	425.481
1236.27	435.378
1237.81	449.971
1239.35	445.41
1240.89	453.99
1242.43	457.731
1243.97	467.976
1245.51	461.046
1247.05	468.878
1248.59	464.98
1250.13	476.181
1251.67	469.259
1253.21	486.64
1254.75	481.749
1256.29	486.757
1257.83	497.773
1259.37	514.873
1260.91	491.036
1262.45	519.848
1263.99	519.646
1265.53	513.957
1267.07	540.544
1268.61	526.863
1270.15	545.004
1271.69	552.476
1273.22	553.749
1274.76	564.387
1276.3	565.384
1277.84	574.741
1279.38	598.14
1280.92	598.959
1282.46	606.738
1284	614.161
1285.54	609.449
1287.08	642.592
1288.62	629.614
1290.16	656.715
1291.7	667.294
1293.24	669.981
1294.78	681.537
1296.32	696.344
1297.86	683.689
1299.4	715.636
1300.94	717.791
1302.48	749.745
1304.02	755.643
1305.56	760.293
1307.1	764.523
1308.64	797.102
1310.18	804.512
1311.72	825.958
1313.26	841.68
1314.8	823.312
1316.34	853.455
1317.88	883.946
1319.42	854.799
1320.96	896.57
1322.5	916.758
1324.04	898.729
1325.58	927.292
1327.12	940.549
1328.66	929.871
1330.2	962.547
1331.74	962.702
1333.28	974.924
1334.82	955.796
1336.36	979.633
1337.9	978.352
1339.44	993.261
1340.98	989.698
1342.52	991.446
1344.05	978.397
1345.59	1007.02
1347.13	1002.68
1348.67	999.193
1350.21	992.499
1351.75	960.323
1353.29	941.443
1354.83	951.925
1356.37	960.745
1357.91	921.184
1359.45	915.342
1360.99	939.431
1362.53	902.947
1364.07	882.444
1365.61	875.248
1367.15	865.995
1368.69	862.574
1370.23	842.755
1371.77	840.594
1373.31	822.518
1374.85	861.876
1376.39	792.454
1377.93	793.123
1379.47	780.281
1381.01	763.357
1382.55	757.295
1384.09	752.578
1385.63	756.057
1387.17	746.753
1388.71	715.844
1390.25	701.788
1391.79	699.87
1393.33	699.331
1394.87	699.844
1396.41	663.037
1397.95	675.533
1399.49	656.736
1401.03	650.683
1402.57	645.301
1404.11	624.667
1405.65	624.655
1407.19	635.108
1408.73	601.452
1410.27	628.563
1411.8	616.954
1413.34	612.034
1414.88	595.869
1416.42	602.039
1417.96	595.893
1419.5	580.493
1421.04	594.222
1422.58	580.955
1424.12	582.726
1425.66	564.895
1427.2	566.955
1428.74	569.052
1430.28	574.485
1431.82	549.728
1433.36	564.316
1434.9	562.146
1436.44	545.833
1437.98	556.565
1439.52	544.083
1441.06	524.736
1442.6	522.775
1444.14	523.219
1445.68	539.494
1447.22	539.846
1448.76	546.046
1450.3	537.864
1451.84	544.323
1453.38	517.091
1454.92	538.273
1456.46	533.065
1458	535.073
1459.54	527.837
1461.08	524.313
1462.62	521.031
1464.16	523.068
1465.7	537.919
1467.24	515.581
1468.78	523.224
1470.32	508.298
1471.86	518.476
1473.4	530.234
1474.94	520.161
1476.48	523.217
1478.02	519.498
1479.56	532.952
1481.09	533.367
1482.63	517.771
1484.17	537.738
1485.71	514.044
1487.25	524.01
1488.79	524.554
1490.33	529.658
1491.87	522.857
1493.41	521.14
1494.95	523.369
1496.49	520.577
1498.03	538.803
1499.57	525.786
1501.11	521.384
1502.65	538.93
1504.19	534.518
1505.73	521.107
1507.27	530.131
1508.81	530.413
1510.35	528.336
1511.89	527.199
1513.43	542.094
1514.97	536.259
1516.51	536.65
1518.05	557.73
1519.59	548.503
1521.13	554.881
1522.67	537.024
1524.21	552.077
1525.75	565.308
1527.29	560.941
1528.83	561.116
1530.37	573.245
1531.91	568.263
1533.45	582.362
1534.99	596.768
1536.53	590.684
1538.07	620.58
1539.61	603.452
1541.15	618.32
1542.69	624.757
1544.23	620.283
1545.77	641.473
1547.31	643.726
1548.85	653.524
1550.38	668.933
1551.92	686.796
1553.46	698.343
1555	705.978
1556.54	719.066
1558.08	732.096
1559.62	737.958
1561.16	754.917
1562.7	757.762
1564.24	754.532
1565.78	784.994
1567.32	803.594
1568.86	811.101
1570.4	838.367
1571.94	836.459
1573.48	863.037
1575.02	871.29
1576.56	883.759
1578.1	883.019
1579.64	910.393
1581.18	912.111
1582.72	929.797
1584.26	927.227
1585.8	936.067
1587.34	959.977
1588.88	940.915
1590.42	948.276
1591.96	934.972
1593.5	954.951
1595.04	949.81
1596.58	943.888
1598.12	929.445
1599.66	932.909
1601.2	912.38
1602.74	906.082
1604.28	900.343
1605.82	877.32
1607.36	868.372
1608.9	861.004
1610.44	835.967
1611.98	772.366
1613.52	797.398
1615.06	762.648
1616.6	740.506
1618.14	733.423
1619.67	694.604
1621.21	670.938
1622.75	650.217
1624.29	626.504
1625.83	588.915
1627.37	579.397
1628.91	564.979
1630.45	553.697
1631.99	526.065
1633.53	504.753
1635.07	482.529
1636.61	457.509
1638.15	448.55
1639.69	441.922
1641.23	413.994
1642.77	400.681
1644.31	391.953
1645.85	381
1647.39	378.851
1648.93	358.777
1650.47	335.686
1652.01	329.946
1653.55	321.366
1655.09	315.777
1656.63	297.584
1658.17	297.953
1659.71	277.169
1661.25	274.189
1662.79	264.349
1664.33	262.449
1665.87	255.342
1667.41	242.282
1668.95	233.822
1670.49	221.112
1672.03	220.782
1673.57	215.445
1675.11	219.214
1676.65	204.25
1678.19	199.735
1679.73	200.025
1681.27	193.877
1682.81	184.758
1684.35	182.87
1685.89	183.258
1687.43	183.777
1688.96	180.512
1690.5	181.591
1692.04	172.303
1693.58	160.933
1695.12	164.398
1696.66	158.95
1698.2	160.574
1699.74	151.043
1701.28	160.581
1702.82	144.969
1704.36	149.923
1705.9	149.715
1707.44	155.321
1708.98	141.951
1710.52	138.513
1712.06	144.645
1713.6	144.249
1715.14	151.076
1716.68	140.155
1718.22	143.571
1719.76	143.718
1721.3	140.894
1722.84	141.601
1724.38	137.005
1725.92	139
1727.46	127.135
1729	137.478
1730.54	128.53
1732.08	133.361
1733.62	130.555
1735.16	127.168
1736.7	133.489
1738.24	115.546
1739.78	136.639
1741.32	126.196
1742.86	135.08
1744.4	120.162
1745.94	126.124
1747.48	122.817
1749.02	121.666
1750.56	128.644
1752.1	125.763
1753.64	125.53
1755.18	116.367
1756.72	119.958
1758.25	123.962
1759.79	126.95
1761.33	126.561
1762.87	115.016
1764.41	122.523
1765.95	117.069
1767.49	117.955
1769.03	118.822
1770.57	117.14
1772.11	120.739
1773.65	120.277
1775.19	121.682
1776.73	118.54
1778.27	119.171
1779.81	120.608
1781.35	125.492
1782.89	120.065
1784.43	112.822
1785.97	117.168
1787.51	120.167
1789.05	115.061
1790.59	119.447
1792.13	120.648
1793.67	113.951
1795.21	123.249
1796.75	111.744
1798.29	103.772
1799.83	110.013
1801.37	110.92
1802.91	118.628
1804.45	116.618
1805.99	124.011
1807.53	116.989
1809.07	106.219
1810.61	121.303
1812.15	115.277
1813.69	117.696
1815.23	116.077
1816.77	111.985
1818.31	109.917
1819.85	120.004
1821.39	113.765
1822.93	109.388
1824.47	109.444
1826.01	114.738
1827.54	115.214
1829.08	114.22
1830.62	113.25
1832.16	114.077
1833.7	114.674
1835.24	114.05
1836.78	110.607
1838.32	112.408
1839.86	110.518
1841.4	109.827
1842.94	113.984
1844.48	116.25
1846.02	109.566
1847.56	117.758
1849.1	105.542
1850.64	99.5474
1852.18	108.754
1853.72	115.897
1855.26	110.609
1856.8	120.751
1858.34	107.734
1859.88	114.883
1861.42	112.412
1862.96	111.337
1864.5	110.139
1866.04	103.339
1867.58	106.452
1869.12	118.752
1870.66	105.475
1872.2	107.779
1873.74	108.39
1875.28	118.749
1876.82	111.791
1878.36	112.174
1879.9	105.157
1881.44	115.359
1882.98	107.877
1884.52	114.709
1886.06	105.105
1887.6	100.5
1889.14	113.576
1890.68	108.44
1892.22	107.475
1893.76	103.921
1895.3	105
1896.83	112.129
1898.37	117.302
1899.91	106.583
1901.45	111.93
1902.99	107.145
1904.53	118.06
1906.07	110.536
1907.61	103.164
1909.15	107.88
1910.69	114.899
1912.23	103.776
1913.77	108.191
1915.31	104.574
1916.85	108.664
1918.39	107.849
1919.93	111.099
1921.47	102.837
1923.01	109.537
1924.55	97.9098
1926.09	107.045
1927.63	107.705
1929.17	110.159
1930.71	104.263
1932.25	107.292
1933.79	106.882
1935.33	107.663
1936.87	108.303
1938.41	108.633
1939.95	109.166
1941.49	107.917
1943.03	111.963
1944.57	104.595
1946.11	107.865
1947.65	105.079
1949.19	107.709
1950.73	103.141
1952.27	102.086
1953.81	106.005
1955.35	111.382
1956.89	111.775
1958.43	114.772
1959.97	108.017
1961.51	109.245
1963.05	111.883
1964.59	100.818
1966.12	114.449
1967.66	117.148
1969.2	104.107
1970.74	110.314
1972.28	107.84
1973.82	117.044
1975.36	107.558
1976.9	106.255
1978.44	115.261
1979.98	108.729
1981.52	101.734
1983.06	109.848
1984.6	108.183
1986.14	102.714
1987.68	115.705
1989.22	106.837
1990.76	102.683
1992.3	102.712
1993.84	110.283
1995.38	101.495
1996.92	106.18
1998.46	104.917
2000	112.528