File: Example Data/Raman/CNT - TIM/Raytheon/Al foil/2010/03-26-10/Al10_LPCVD_600_10min -B_3.txt
200	377.349
201.54	372.053
203.08	372.191
204.619	383.388
206.159	377.226
207.699	364.662
209.239	377.752
210.778	373.43
212.318	375.4
213.858	371.467
215.398	364.1
216.938	368.352
218.477	379.064
220.017	392.661
221.557	386.777
223.097	387.016
224.636	371.824
226.176	372.638
227.716	373.192
229.256	363.372
230.796	383.063
232.335	369.257
233.875	377.649
235.415	379.013
236.955	388.486
238.494	367.398
240.034	369.71
241.574	349.994
243.114	382.343
244.654	359.388
246.193	383.162
247.733	388.325
249.273	363.511
250.813	368.508
252.352	367.973
253.892	360.089
255.432	376.873
256.972	376.284
258.512	360.852
260.051	372.762
261.591	371.439
263.131	349.759
264.671	367.37
266.21	367.7
267.75	359.229
269.29	353.377
270.83	368.14
272.37	369.679
273.909	351.269
275.449	356.593
276.989	378.869
278.529	363.725
280.068	369.463
281.608	368.923
283.148	369.122
284.688	363.46
286.228	372.877
287.767	362.866
289.307	357.158
290.847	357.955
292.387	347.791
293.926	353.686
295.466	345.195
297.006	334.773
298.546	366.031
300.086	344.985
301.625	344.642
303.165	346.055
304.705	342.804
306.245	349.98
307.784	338.275
309.324	337.649
310.864	341.508
312.404	332.938
313.944	344.956
315.483	348.817
317.023	334.851
318.563	332.425
320.103	341.571
321.642	341.906
323.182	329.83
324.722	334.217
326.262	338.138
327.802	325.744
329.341	338.263
330.881	326.759
332.421	338.887
333.961	328.419
335.5	322.179
337.04	323.503
338.58	338.207
340.12	328.738
341.66	321.066
343.199	339.679
344.739	318
346.279	322.149
347.819	321.95
349.358	321.554
350.898	326.699
352.438	308.837
353.978	321.199
355.518	327.41
357.057	330.468
358.597	309.124
360.137	301.715
361.677	313.205
363.216	310.225
364.756	308.774
366.296	309.502
367.836	312.838
369.376	312.925
370.915	316.609
372.455	324.611
373.995	315.564
375.535	305.934
377.074	308.553
378.614	301.951
380.154	307.538
381.694	292.18
383.234	299.281
384.773	303.182
386.313	312.991
387.853	303.327
389.393	306.414
390.932	295.949
392.472	305.593
394.012	304.092
395.552	306.758
397.092	294.857
398.631	299.307
400.171	299.46
401.711	292.934
403.251	301.302
404.79	293.113
406.33	285
407.87	299.097
409.41	291.367
410.95	296.037
412.489	298.241
414.029	293.616
415.569	288.921
417.109	279.515
418.648	291.836
420.188	291.452
421.728	286.503
423.268	275.591
424.808	292.518
426.347	281.604
427.887	290.318
429.427	288.353
430.967	283.711
432.506	275.132
434.046	287.575
435.586	287.962
437.126	289.398
438.666	294.704
440.205	286.037
441.745	288.291
443.285	283.273
444.825	275.124
446.364	269.324
447.904	294.5
449.444	279.786
450.984	285.806
452.524	282.042
454.063	285.706
455.603	274.237
457.143	276.778
458.683	275.362
460.222	272.154
461.762	271.016
463.302	261.636
464.842	283.488
466.382	270.483
467.921	272.079
469.461	278.939
471.001	267.478
472.541	273.674
474.08	264.184
475.62	274.921
477.16	267.894
478.7	251.142
480.24	251.48
481.779	258.822
483.319	266.542
484.859	260.915
486.399	262.863
487.938	251.342
489.478	255.066
491.018	254.592
492.558	253.95
494.098	249.427
495.637	257.893
497.177	251.791
498.717	250.356
500.257	250.127
501.796	246.315
503.336	255.195
504.876	248.916
506.416	246.363
507.956	247.397
509.495	255.597
511.035	250.616
512.575	256.571
514.115	261.337
515.654	254.462
517.194	230.639
518.734	247.015
520.274	252.511
521.814	242.554
523.353	243.191
524.893	241.085
526.433	241.092
527.973	239.693
529.512	249.1
531.052	249.339
532.592	255.953
534.132	243.163
535.672	251.629
537.211	249.54
538.751	235.308
540.291	240.103
541.831	235.197
543.37	239.406
544.91	236.661
546.45	241.598
547.99	248.971
549.53	250.578
551.069	240.343
552.609	250.315
554.149	253.674
555.689	240.086
557.228	249.466
558.768	249.917
560.308	234.017
561.848	254.056
563.388	254.559
564.927	248.429
566.467	256.056
568.007	252.735
569.547	247.56
571.086	255.646
572.626	258.75
574.166	247.034
575.706	250.504
577.245	254.953
578.785	253.666
580.325	261.262
581.865	250.204
583.405	244.261
584.944	251.286
586.484	249.525
588.024	256.228
589.564	252.752
591.104	252.978
592.643	249.425
594.183	254.013
595.723	251.653
597.263	254.699
598.802	248.259
600.342	259.462
601.882	265.624
603.422	246.241
604.961	246.864
606.501	250.248
608.041	247.423
609.581	253.092
611.121	250.506
612.66	269.902
614.2	243.241
615.74	261.227
617.28	253.052
618.82	257.921
620.359	256.015
621.899	256.102
623.439	262.756
624.979	252.839
626.518	251.93
628.058	251.787
629.598	269.659
631.138	257.926
632.677	266.834
634.217	265.064
635.757	265.772
637.297	265.279
638.837	261.483
640.376	264.18
641.916	265.081
643.456	264.434
644.996	269.626
646.536	263.911
648.075	266.168
649.615	257.971
651.155	263.012
652.695	265.219
654.234	290.597
655.774	256.505
657.314	265.324
658.854	266.906
660.393	274.625
661.933	277.039
663.473	276.846
665.013	274.135
666.553	269.22
668.092	275.329
669.632	268.384
671.172	271.895
672.712	271.823
674.252	274.281
675.791	283.357
677.331	281.193
678.871	276.098
680.411	267.201
681.95	270.88
683.49	281.098
685.03	263.475
686.57	270.651
688.109	265.921
689.649	272.01
691.189	271.602
692.729	268.975
694.269	278.188
695.808	275.448
697.348	275.782
698.888	286.634
700.428	263.962
701.967	271.519
703.507	277.185
705.047	267.216
706.587	281.315
708.127	282.374
709.666	283.114
711.206	276.979
712.746	281.961
714.286	284.332
715.826	280.995
717.365	281.081
718.905	298.104
720.445	285.151
721.985	290.153
723.524	289.859
725.064	284.055
726.604	289.959
728.144	286.757
729.683	299.203
731.223	292.106
732.763	286.708
734.303	293.288
735.843	286.536
737.382	296.979
738.922	293.208
740.462	296.718
742.002	295.813
743.542	304.882
745.081	289.876
746.621	297.235
748.161	293.754
749.701	303.247
751.24	307.626
752.78	305.692
754.32	305.565
755.86	303.995
757.399	303.085
758.939	298.423
760.479	302.381
762.019	297.767
763.559	304.012
765.098	311.414
766.638	317.127
768.178	317.11
769.718	312.735
771.258	306.619
772.797	311.673
774.337	316.484
775.877	309.252
777.417	311.002
778.956	317.797
780.496	315.627
782.036	320.496
783.576	313.513
785.115	334.945
786.655	315.56
788.195	318.903
789.735	304.323
791.275	329.239
792.814	315.806
794.354	327.135
795.894	326.046
797.434	333.112
798.974	327.642
800.513	322.052
802.053	323.497
803.593	335.851
805.133	332.898
806.672	334.756
808.212	334.055
809.752	320.948
811.292	334.249
812.831	331.357
814.371	333.671
815.911	333.569
817.451	324.725
818.991	334.507
820.53	342.689
822.07	346.666
823.61	338.776
825.15	346.461
826.689	342.939
828.229	330.303
829.769	346.562
831.309	337.837
832.849	355.611
834.388	334.356
835.928	335.655
837.468	347.792
839.008	346.04
840.547	352.488
842.087	362.782
843.627	347.68
845.167	352.176
846.707	345.534
848.246	345.659
849.786	345.5
851.326	356.853
852.866	355.281
854.405	347.291
855.945	346.134
857.485	348.864
859.025	356.509
860.565	338.686
862.104	349.382
863.644	330.778
865.184	350.589
866.724	334.279
868.263	327.405
869.803	332.131
871.343	311.128
872.883	317.922
874.423	325.82
875.962	322.521
877.502	327.293
879.042	314.699
880.582	316.292
882.121	318.031
883.661	316.127
885.201	327.856
886.741	321.267
888.281	308.178
889.82	312.282
891.36	306.407
892.9	318.116
894.44	307.199
895.979	302.243
897.519	286.847
899.059	307.413
900.599	307.402
902.139	295.578
903.678	299.61
905.218	283.149
906.758	302.104
908.298	283.928
909.837	288.084
911.377	282.719
912.917	292.752
914.457	278.081
915.997	290.981
917.536	292.635
919.076	285.474
920.616	278.357
922.156	302.107
923.695	279.473
925.235	286.912
926.775	276.337
928.315	299.221
929.855	288.363
931.394	283.464
932.934	275.875
934.474	279.511
936.014	285.638
937.553	285.413
939.093	277.333
940.633	280.76
942.173	281.626
943.713	293.427
945.252	286.628
946.792	295.795
948.332	273.798
949.872	278.756
951.411	280.254
952.951	280.861
954.491	281.812
956.031	284.138
957.571	280.953
959.11	276.675
960.65	276.359
962.19	283.924
963.73	272.873
965.269	295.519
966.809	291.231
968.349	289.706
969.889	289.473
971.429	275.086
972.968	286.187
974.508	285.7
976.048	289.908
977.588	289.936
979.127	290.08
980.667	290.078
982.207	293.808
983.747	287.277
985.287	296.369
986.826	296.528
988.366	290.876
989.906	305.933
991.446	302.311
992.985	303.173
994.525	301.579
996.065	297.301
997.605	310.854
999.145	310.748
1000.68	312.368
1002.22	310.601
1003.76	306.295
1005.3	313.836
1006.84	315.736
1008.38	325.259
1009.92	321.117
1011.46	316.368
1013	311.523
1014.54	319.868
1016.08	321.879
1017.62	337.536
1019.16	326.775
1020.7	333.328
1022.24	333.787
1023.78	334.115
1025.32	341.599
1026.86	330.482
1028.4	343.152
1029.94	342.71
1031.48	359.716
1033.02	341.473
1034.56	354.443
1036.1	349.744
1037.64	364.024
1039.18	369.754
1040.72	346.554
1042.26	374.214
1043.8	360.927
1045.34	353.183
1046.88	351.528
1048.42	372.578
1049.96	361.226
1051.5	371.448
1053.04	366.582
1054.58	375.023
1056.12	370.795
1057.66	374.427
1059.2	364.915
1060.74	377.32
1062.28	386.549
1063.82	379.787
1065.35	361.317
1066.89	381.925
1068.43	370.594
1069.97	395.099
1071.51	396.83
1073.05	397.69
1074.59	379.974
1076.13	396.439
1077.67	385.159
1079.21	398.334
1080.75	400.414
1082.29	382.124
1083.83	396.782
1085.37	397.443
1086.91	402.304
1088.45	391.107
1089.99	397.856
1091.53	399.055
1093.07	399.5
1094.61	398.145
1096.15	411.944
1097.69	407.843
1099.23	403.728
1100.77	413.056
1102.31	416.028
1103.85	429.84
1105.39	416.121
1106.93	423.06
1108.47	432.209
1110.01	424.131
1111.55	424.896
1113.09	427.395
1114.63	431.269
1116.17	431.6
1117.71	423.69
1119.25	453.081
1120.79	437.466
1122.33	456.227
1123.87	454.406
1125.41	476.568
1126.95	456.677
1128.49	444.891
1130.03	456.924
1131.57	461.925
1133.11	476.692
1134.65	463.876
1136.18	475.349
1137.72	468.072
1139.26	488.885
1140.8	487.221
1142.34	483.656
1143.88	499.602
1145.42	496.144
1146.96	497.835
1148.5	502.406
1150.04	517.542
1151.58	507.283
1153.12	522.285
1154.66	517.094
1156.2	530.938
1157.74	506.879
1159.28	511.965
1160.82	530.214
1162.36	526.994
1163.9	532.253
1165.44	536.137
1166.98	544.629
1168.52	540.047
1170.06	540.616
1171.6	537.242
1173.14	544.736
1174.68	550.886
1176.22	541.889
1177.76	557.88
1179.3	555.051
1180.84	559.89
1182.38	551.663
1183.92	566.877
1185.46	561.75
1187	563.636
1188.54	577.074
1190.08	574.904
1191.62	579.635
1193.16	581.842
1194.7	582.946
1196.24	591.366
1197.78	592.655
1199.32	589.8
1200.86	598.888
1202.4	605.046
1203.93	606.685
1205.47	610.878
1207.01	616.6
1208.55	620.705
1210.09	600.193
1211.63	625.627
1213.17	618.433
1214.71	626.289
1216.25	638.64
1217.79	645.718
1219.33	641.359
1220.87	651.878
1222.41	655.352
1223.95	650.723
1225.49	668.344
1227.03	675.398
1228.57	676.123
1230.11	687.5
1231.65	696.38
1233.19	707.272
1234.73	717.782
1236.27	718.43
1237.81	709.207
1239.35	728.846
1240.89	730.514
1242.43	739.763
1243.97	731.639
1245.51	757.844
1247.05	758.622
1248.59	772.137
1250.13	783.875
1251.67	769.858
1253.21	797.316
1254.75	787.02
1256.29	804.963
1257.83	829.368
1259.37	809.755
1260.91	832.984
1262.45	834.049
1263.99	858.371
1265.53	867.665
1267.07	887.203
1268.61	872.114
1270.15	911.982
1271.69	924.307
1273.22	946.921
1274.76	946.76
1276.3	951.25
1277.84	972.271
1279.38	979.482
1280.92	996.197
1282.46	998.895
1284	1025.5
1285.54	1042.55
1287.08	1049.47
1288.62	1054.81
1290.16	1080.18
1291.7	1103.16
1293.24	1123.06
1294.78	1123.45
1296.32	1146.37
1297.86	1179.05
1299.4	1181.17
1300.94	1229.59
1302.48	1238.96
1304.02	1268.58
1305.56	1285.69
1307.1	1307.98
1308.64	1305.79
1310.18	1341.76
1311.72	1376.94
1313.26	1388.03
1314.8	1432.4
1316.34	1425.88
1317.88	1450.48
1319.42	1496.92
1320.96	1513.79
1322.5	1548.04
1324.04	1540.66
1325.58	1577.84
1327.12	1591.38
1328.66	1634.06
1330.2	1628.38
1331.74	1665.71
1333.28	1637.87
1334.82	1698.96
1336.36	1709.71
1337.9	1708.25
1339.44	1687.32
1340.98	1708.22
1342.52	1713.43
1344.05	1717.88
1345.59	1688.83
1347.13	1697.9
1348.67	1660.39
1350.21	1678.18
1351.75	1667.78
1353.29	1643.44
1354.83	1639.96
1356.37	1633.01
1357.91	1597.39
1359.45	1576.62
1360.99	1547.19
1362.53	1529.01
1364.07	1512.52
1365.61	1497.2
1367.15	1483.9
1368.69	1472.12
1370.23	1433.89
1371.77	1395.59
1373.31	1387.07
1374.85	1332.41
1376.39	1364.23
1377.93	1325.51
1379.47	1298.37
1381.01	1301.68
1382.55	1295.39
1384.09	1238.97
1385.63	1233.81
1387.17	1216.89
1388.71	1188.34
1390.25	1159.3
1391.79	1172.2
1393.33	1156.08
1394.87	1136.3
1396.41	1123.26
1397.95	1106.73
1399.49	1092.94
1401.03	1076.52
1402.57	1074.8
1404.11	1043.65
1405.65	1024.96
1407.19	1032.96
1408.73	1018.94
1410.27	995.854
1411.8	1005.08
1413.34	999.595
1414.88	987.874
1416.42	972.931
1417.96	963.255
1419.5	948.289
1421.04	970.751
1422.58	932.047
1424.12	924.174
1425.66	923.027
1427.2	910.835
1428.74	917.39
1430.28	911.532
1431.82	904.774
1433.36	894.425
1434.9	912.37
1436.44	886.568
1437.98	892.887
1439.52	871.902
1441.06	866.569
1442.6	869.155
1444.14	864.151
1445.68	881.245
1447.22	875.813
1448.76	872.888
1450.3	868.264
1451.84	874.883
1453.38	871.586
1454.92	871.95
1456.46	858.122
1458	876.966
1459.54	868.32
1461.08	853.814
1462.62	846.476
1464.16	869.962
1465.7	855.781
1467.24	868.098
1468.78	837.747
1470.32	847.428
1471.86	869.25
1473.4	869.296
1474.94	859.206
1476.48	847.89
1478.02	864.574
1479.56	872.533
1481.09	864.544
1482.63	861.655
1484.17	861.696
1485.71	852.98
1487.25	854.295
1488.79	868.809
1490.33	855.519
1491.87	857.471
1493.41	864.577
1494.95	856.875
1496.49	848.298
1498.03	853.645
1499.57	877.622
1501.11	855.492
1502.65	863.209
1504.19	869.338
1505.73	878.396
1507.27	857.417
1508.81	867.661
1510.35	882.438
1511.89	867.551
1513.43	883.393
1514.97	888.346
1516.51	900.833
1518.05	896.307
1519.59	894.01
1521.13	894.801
1522.67	909.844
1524.21	905.076
1525.75	922.388
1527.29	930.275
1528.83	929.789
1530.37	934.428
1531.91	948.162
1533.45	946.843
1534.99	981.97
1536.53	993.191
1538.07	988.508
1539.61	988.405
1541.15	1008.34
1542.69	1014.61
1544.23	1041.49
1545.77	1041.27
1547.31	1048.9
1548.85	1079.11
1550.38	1097.18
1551.92	1112.47
1553.46	1154.75
1555	1187.24
1556.54	1205.53
1558.08	1207.06
1559.62	1222.84
1561.16	1227.88
1562.7	1283.28
1564.24	1306.07
1565.78	1328.33
1567.32	1340.24
1568.86	1372.52
1570.4	1395.99
1571.94	1414.68
1573.48	1440.41
1575.02	1469.73
1576.56	1477.67
1578.1	1505.06
1579.64	1519.79
1581.18	1523.09
1582.72	1570.46
1584.26	1560.82
1585.8	1583.09
1587.34	1585.75
1588.88	1585.66
1590.42	1601.65
1591.96	1603.87
1593.5	1587.18
1595.04	1595.73
1596.58	1575.36
1598.12	1582.9
1599.66	1554.73
1601.2	1574.83
1602.74	1531.57
1604.28	1497.15
1605.82	1485.28
1607.36	1457.95
1608.9	1444.86
1610.44	1408.54
1611.98	1349.78
1613.52	1321.06
1615.06	1284.99
1616.6	1247.1
1618.14	1194.25
1619.67	1147.74
1621.21	1112.35
1622.75	1070.29
1624.29	1041.73
1625.83	975.672
1627.37	948.39
1628.91	917.93
1630.45	882.227
1631.99	832.91
1633.53	814.686
1635.07	789.881
1636.61	743.433
1638.15	726.925
1639.69	700.636
1641.23	684.611
1642.77	653.127
1644.31	615
1645.85	604.575
1647.39	581.222
1648.93	567.023
1650.47	545.442
1652.01	529.689
1653.55	509.754
1655.09	490.881
1656.63	480.154
1658.17	469.792
1659.71	452.88
1661.25	441.852
1662.79	426.179
1664.33	415.133
1665.87	404.383
1667.41	392.87
1668.95	372.496
1670.49	369.513
1672.03	361.816
1673.57	360.446
1675.11	345.722
1676.65	343.219
1678.19	327.108
1679.73	316.127
1681.27	312.683
1682.81	306.774
1684.35	303.945
1685.89	306.729
1687.43	289.274
1688.96	289.429
1690.5	277.193
1692.04	284.934
1693.58	271.704
1695.12	264.355
1696.66	271.678
1698.2	267.47
1699.74	257.375
1701.28	270.875
1702.82	256.504
1704.36	251.183
1705.9	248.482
1707.44	246.665
1708.98	239.571
1710.52	250.873
1712.06	241.136
1713.6	230.163
1715.14	231.335
1716.68	233.424
1718.22	234.874
1719.76	233.68
1721.3	221.784
1722.84	229.187
1724.38	227.182
1725.92	219.875
1727.46	223.148
1729	223.153
1730.54	234.121
1732.08	224.694
1733.62	213.943
1735.16	212.519
1736.7	225.676
1738.24	215.377
1739.78	213.028
1741.32	213.759
1742.86	207.78
1744.4	204.081
1745.94	214.293
1747.48	213.067
1749.02	208.218
1750.56	207.09
1752.1	204.567
1753.64	200.03
1755.18	198.014
1756.72	198.841
1758.25	204.071
1759.79	203.43
1761.33	207.775
1762.87	200.031
1764.41	207.672
1765.95	196.907
1767.49	191.641
1769.03	191.666
1770.57	193.718
1772.11	211.936
1773.65	195.418
1775.19	194.629
1776.73	196.302
1778.27	200.646
1779.81	208.766
1781.35	188.096
1782.89	195.927
1784.43	202.501
1785.97	192.766
1787.51	199.048
1789.05	190.852
1790.59	188.918
1792.13	189.331
1793.67	208.038
1795.21	188.482
1796.75	185.371
1798.29	184.979
1799.83	195.577
1801.37	193.065
1802.91	193.262
1804.45	188.618
1805.99	197.66
1807.53	194.032
1809.07	188.281
1810.61	191.035
1812.15	183.384
1813.69	185.23
1815.23	188.408
1816.77	186.595
1818.31	187.075
1819.85	181.395
1821.39	197.715
1822.93	182.569
1824.47	185.935
1826.01	198.452
1827.54	193.227
1829.08	183.621
1830.62	176.942
1832.16	181.842
1833.7	179.674
1835.24	186.627
1836.78	178.691
1838.32	183.156
1839.86	192.821
1841.4	182.495
1842.94	177.75
1844.48	184.996
1846.02	183.095
1847.56	179.155
1849.1	175.962
1850.64	182.851
1852.18	179.387
1853.72	178.737
1855.26	192.625
1856.8	182.149
1858.34	178.629
1859.88	183.906
1861.42	185.613
1862.96	188.905
1864.5	181.028
1866.04	186.415
1867.58	177.444
1869.12	177.176
1870.66	174.751
1872.2	176.748
1873.74	171.245
1875.28	174.531
1876.82	183.207
1878.36	185.559
1879.9	184.037
1881.44	180.553
1882.98	182.745
1884.52	183.133
1886.06	177.067
1887.6	178.625
1889.14	175.207
1890.68	178.244
1892.22	185.975
1893.76	174.276
1895.3	179.867
1896.83	174.755
1898.37	182.184
1899.91	176.791
1901.45	179.21
1902.99	178.139
1904.53	176.194
1906.07	177.255
1907.61	178.519
1909.15	181.778
1910.69	177.71
1912.23	168.076
1913.77	177.272
1915.31	170.926
1916.85	183.167
1918.39	174.671
1919.93	170.805
1921.47	175.527
1923.01	181.153
1924.55	177.648
1926.09	168.421
1927.63	181.387
1929.17	167.432
1930.71	164.278
1932.25	180.165
1933.79	170.176
1935.33	185.058
1936.87	174.562
1938.41	175.854
1939.95	167.439
1941.49	170.084
1943.03	176.925
1944.57	168.768
1946.11	175.156
1947.65	171.649
1949.19	169.709
1950.73	177.864
1952.27	173.957
1953.81	169.723
1955.35	170.434
1956.89	175.218
1958.43	175.636
1959.97	172.828
1961.51	173.247
1963.05	177.526
1964.59	174.093
1966.12	179.967
1967.66	177.387
1969.2	174.912
1970.74	170.804
1972.28	170.222
1973.82	181.705
1975.36	175.732
1976.9	170.461
1978.44	172.115
1979.98	165.012
1981.52	175.759
1983.06	178.041
1984.6	177.475
1986.14	172.847
1987.68	175.321
1989.22	178.375
1990.76	172.965
1992.3	174.745
1993.84	178.565
1995.38	169.821
1996.92	168.886
1998.46	172.927
2000	175.674