File: Example Data/Raman/CNT - TIM/Raytheon/Al foil/2010/03-26-10/Al10_LPCVD_550_5min -A_3.txt
200	154.588
201.54	142.123
203.08	141
204.619	147.598
206.159	133.476
207.699	136.117
209.239	147.816
210.778	152.091
212.318	148.462
213.858	145.994
215.398	140.502
216.938	140.929
218.477	145.798
220.017	140.936
221.557	147.449
223.097	140.109
224.636	137.882
226.176	150.003
227.716	145.288
229.256	149.95
230.796	143.847
232.335	144.967
233.875	149.487
235.415	139.71
236.955	148.981
238.494	140.97
240.034	144.17
241.574	141.5
243.114	147.529
244.654	147.291
246.193	147.704
247.733	145.75
249.273	151.408
250.813	143.427
252.352	155.957
253.892	160.481
255.432	144.647
256.972	150.111
258.512	148.836
260.051	143.955
261.591	146.096
263.131	151.786
264.671	144.9
266.21	139.693
267.75	147.628
269.29	154.71
270.83	154.397
272.37	138.236
273.909	147.515
275.449	149.823
276.989	152.406
278.529	150.1
280.068	155.135
281.608	150.072
283.148	158.204
284.688	156.109
286.228	154.894
287.767	149.969
289.307	148.837
290.847	151.452
292.387	151.608
293.926	150.373
295.466	149.047
297.006	146.537
298.546	142.989
300.086	146.202
301.625	150.953
303.165	150.103
304.705	157.437
306.245	146.616
307.784	149.557
309.324	150.054
310.864	154.565
312.404	155
313.944	145.442
315.483	154.264
317.023	158.901
318.563	147.909
320.103	146.038
321.642	149.201
323.182	161.844
324.722	151.977
326.262	148.44
327.802	154.674
329.341	151.296
330.881	149.472
332.421	154.419
333.961	155.906
335.5	144.366
337.04	152.391
338.58	173.17
340.12	158.336
341.66	161.069
343.199	158.375
344.739	158.635
346.279	163.112
347.819	166.2
349.358	165.899
350.898	164.362
352.438	165.033
353.978	163.127
355.518	166.328
357.057	160.076
358.597	163.467
360.137	169.01
361.677	164.26
363.216	161.642
364.756	164.454
366.296	158.003
367.836	160.312
369.376	162.337
370.915	168.105
372.455	164.01
373.995	158.218
375.535	172.28
377.074	157.393
378.614	162.404
380.154	160.67
381.694	157.025
383.234	159.537
384.773	161.057
386.313	150.483
387.853	161.25
389.393	163.026
390.932	169.198
392.472	163.289
394.012	161.434
395.552	155.771
397.092	155.617
398.631	165.046
400.171	160.557
401.711	144.695
403.251	166.753
404.79	160.909
406.33	162.826
407.87	164.75
409.41	169.241
410.95	158.929
412.489	154.261
414.029	154.839
415.569	153.454
417.109	153.892
418.648	166.418
420.188	152.232
421.728	163.892
423.268	171.978
424.808	167.353
426.347	161.911
427.887	157.466
429.427	160.983
430.967	160.682
432.506	159.898
434.046	161.364
435.586	164.035
437.126	161.065
438.666	172.099
440.205	159.375
441.745	154.756
443.285	156.296
444.825	157.369
446.364	150.032
447.904	150.902
449.444	156.454
450.984	164.091
452.524	163.59
454.063	153.729
455.603	149.704
457.143	160.325
458.683	166.313
460.222	157.231
461.762	155.607
463.302	148.795
464.842	160.647
466.382	148.791
467.921	162.07
469.461	160.148
471.001	159.707
472.541	147.678
474.08	159.426
475.62	159.402
477.16	153.094
478.7	153.185
480.24	175.119
481.779	263.97
483.319	260.952
484.859	182.347
486.399	156.595
487.938	147.648
489.478	144.541
491.018	146.637
492.558	154.55
494.098	152.938
495.637	153.322
497.177	152.474
498.717	153.886
500.257	141.403
501.796	150.298
503.336	154.369
504.876	148.614
506.416	150.386
507.956	154.49
509.495	146.475
511.035	143.048
512.575	146.821
514.115	145.841
515.654	145.429
517.194	137.278
518.734	148.462
520.274	149.059
521.814	140.691
523.353	145.987
524.893	137.401
526.433	148.73
527.973	146.245
529.512	143.693
531.052	143.913
532.592	143.76
534.132	158.854
535.672	150.353
537.211	139.316
538.751	144.275
540.291	142.595
541.831	152.975
543.37	153.891
544.91	143.82
546.45	140.522
547.99	143.997
549.53	146.086
551.069	145.93
552.609	143.933
554.149	149.229
555.689	151.076
557.228	146.117
558.768	151.163
560.308	153.495
561.848	150.363
563.388	154.12
564.927	149.871
566.467	148.024
568.007	150.976
569.547	155.039
571.086	143.031
572.626	153.813
574.166	153.28
575.706	153.252
577.245	152.652
578.785	153.557
580.325	159.08
581.865	145.307
583.405	153.33
584.944	145.892
586.484	149.721
588.024	153.121
589.564	153.509
591.104	160.25
592.643	155.763
594.183	156.255
595.723	150.261
597.263	141.947
598.802	158.924
600.342	150.97
601.882	149.751
603.422	158.861
604.961	152.887
606.501	157.69
608.041	153.015
609.581	146.276
611.121	144.585
612.66	151.2
614.2	147.633
615.74	155.257
617.28	160.999
618.82	158.689
620.359	136.689
621.899	159.663
623.439	145.811
624.979	154.024
626.518	158.88
628.058	161.366
629.598	158.606
631.138	148.831
632.677	151.722
634.217	147.452
635.757	156.228
637.297	167.186
638.837	152.306
640.376	156.605
641.916	142.826
643.456	160.894
644.996	161.252
646.536	161.301
648.075	151.543
649.615	156.262
651.155	157.334
652.695	157.885
654.234	159.116
655.774	163.882
657.314	159.186
658.854	153.172
660.393	159.965
661.933	153.52
663.473	153.656
665.013	169.012
666.553	156.231
668.092	149.62
669.632	161.542
671.172	161.122
672.712	158.281
674.252	163.648
675.791	162.357
677.331	160.365
678.871	161.911
680.411	159.028
681.95	163.33
683.49	153.843
685.03	161.379
686.57	162.899
688.109	156.674
689.649	174.54
691.189	156.715
692.729	161.835
694.269	154.884
695.808	163.207
697.348	157.074
698.888	162.83
700.428	161.235
701.967	157.957
703.507	161.327
705.047	151.218
706.587	166.871
708.127	155.179
709.666	165.483
711.206	157.523
712.746	155.688
714.286	160.927
715.826	157.816
717.365	166.406
718.905	164.17
720.445	165.769
721.985	165.67
723.524	162.172
725.064	162.175
726.604	163.35
728.144	166.038
729.683	156.738
731.223	163.217
732.763	162.168
734.303	166.945
735.843	167.422
737.382	159.298
738.922	169.615
740.462	163.843
742.002	163.073
743.542	160.091
745.081	167.818
746.621	164.562
748.161	170.113
749.701	162.607
751.24	163.404
752.78	175.144
754.32	167.988
755.86	164.458
757.399	161.368
758.939	170.118
760.479	160.981
762.019	165.52
763.559	164.27
765.098	166.757
766.638	164.756
768.178	175.395
769.718	171.897
771.258	170.994
772.797	167.651
774.337	166.989
775.877	166.248
777.417	173.109
778.956	167.063
780.496	167.718
782.036	161.827
783.576	157.986
785.115	167.765
786.655	171.539
788.195	177.72
789.735	173.024
791.275	173.912
792.814	174.779
794.354	162.662
795.894	166.804
797.434	172.62
798.974	156.197
800.513	181.585
802.053	175.556
803.593	170.253
805.133	173.323
806.672	167.616
808.212	171.341
809.752	174.492
811.292	179.346
812.831	179.58
814.371	170.85
815.911	173.682
817.451	172.691
818.991	176.86
820.53	173.265
822.07	172.339
823.61	182.43
825.15	183.046
826.689	173.152
828.229	180.502
829.769	178.125
831.309	173.007
832.849	178.983
834.388	179.315
835.928	185.545
837.468	178.574
839.008	183.487
840.547	174.645
842.087	181.317
843.627	174.348
845.167	178.75
846.707	178.949
848.246	181.18
849.786	181.842
851.326	179.652
852.866	187.637
854.405	177.104
855.945	184.53
857.485	176.921
859.025	184.303
860.565	178.804
862.104	169.456
863.644	179.825
865.184	180.433
866.724	177.344
868.263	167.644
869.803	168.269
871.343	171.099
872.883	176.474
874.423	178.772
875.962	172.843
877.502	174.146
879.042	166.019
880.582	166.77
882.121	175.327
883.661	177.432
885.201	171.525
886.741	177.25
888.281	170.178
889.82	172.201
891.36	170
892.9	165.289
894.44	173.837
895.979	170.749
897.519	170.486
899.059	169.939
900.599	162.247
902.139	165.173
903.678	165.711
905.218	164.694
906.758	173.15
908.298	162.786
909.837	166.823
911.377	173.742
912.917	158.943
914.457	175.169
915.997	171.248
917.536	158.703
919.076	164.786
920.616	161.566
922.156	162.022
923.695	169.122
925.235	171.982
926.775	176.55
928.315	153.908
929.855	169.668
931.394	171.358
932.934	162.343
934.474	162.599
936.014	165.113
937.553	164.593
939.093	158.606
940.633	168.043
942.173	162.719
943.713	170.1
945.252	164.033
946.792	166.609
948.332	161.501
949.872	166.165
951.411	171.581
952.951	165.065
954.491	165.315
956.031	161.215
957.571	162.069
959.11	170.892
960.65	166.22
962.19	155.869
963.73	150.398
965.269	157.871
966.809	171.526
968.349	162.819
969.889	150.777
971.429	167.833
972.968	166.658
974.508	165.045
976.048	167.138
977.588	168.016
979.127	165.422
980.667	165.541
982.207	171.27
983.747	172.162
985.287	169.832
986.826	164.421
988.366	164.722
989.906	167.219
991.446	164.723
992.985	169.64
994.525	173.681
996.065	173.463
997.605	167.454
999.145	166.512
1000.68	172.595
1002.22	174.872
1003.76	168.852
1005.3	174.495
1006.84	172.099
1008.38	176.997
1009.92	176.17
1011.46	174.63
1013	170.013
1014.54	178.012
1016.08	175.132
1017.62	175.2
1019.16	176.191
1020.7	178.656
1022.24	179.234
1023.78	179.149
1025.32	180.702
1026.86	181.111
1028.4	185.888
1029.94	179.597
1031.48	186.543
1033.02	182.645
1034.56	190.638
1036.1	187.015
1037.64	182.597
1039.18	190.493
1040.72	186.676
1042.26	190.811
1043.8	179.423
1045.34	182.905
1046.88	184.057
1048.42	185.854
1049.96	181.792
1051.5	187.91
1053.04	189.71
1054.58	195.583
1056.12	188.758
1057.66	183.989
1059.2	184.17
1060.74	192.549
1062.28	190.224
1063.82	193.738
1065.35	185.438
1066.89	176.236
1068.43	186.456
1069.97	194.385
1071.51	189.118
1073.05	192.25
1074.59	189.262
1076.13	195.826
1077.67	190.685
1079.21	197.438
1080.75	190.122
1082.29	192.601
1083.83	192.621
1085.37	189.088
1086.91	201.282
1088.45	189.574
1089.99	199.445
1091.53	196.871
1093.07	193.888
1094.61	197.759
1096.15	192.422
1097.69	184.15
1099.23	198.189
1100.77	200.429
1102.31	192.712
1103.85	198.784
1105.39	197.604
1106.93	210.267
1108.47	199.458
1110.01	189.519
1111.55	194.768
1113.09	207.35
1114.63	214.213
1116.17	204.234
1117.71	213.95
1119.25	196.478
1120.79	212.481
1122.33	209.764
1123.87	195.236
1125.41	209.475
1126.95	208.894
1128.49	225.995
1130.03	211.882
1131.57	216.076
1133.11	213.53
1134.65	220.313
1136.18	213.866
1137.72	217.58
1139.26	232.086
1140.8	223.073
1142.34	220.147
1143.88	228.397
1145.42	227.02
1146.96	225.257
1148.5	224.358
1150.04	227.034
1151.58	224.409
1153.12	222.125
1154.66	232.459
1156.2	221.298
1157.74	234.758
1159.28	232.953
1160.82	228.977
1162.36	238.634
1163.9	240.625
1165.44	240.905
1166.98	249.718
1168.52	229.423
1170.06	239.76
1171.6	244.105
1173.14	233.323
1174.68	245.942
1176.22	241.93
1177.76	237.774
1179.3	247.238
1180.84	241.929
1182.38	235.572
1183.92	246.954
1185.46	246.348
1187	239.765
1188.54	239.153
1190.08	248.997
1191.62	244.147
1193.16	240.864
1194.7	242.906
1196.24	248.344
1197.78	244.942
1199.32	250.041
1200.86	244.829
1202.4	261.733
1203.93	255.902
1205.47	264.071
1207.01	250.287
1208.55	256.05
1210.09	251.788
1211.63	255.5
1213.17	258.866
1214.71	250.113
1216.25	264.098
1217.79	261.109
1219.33	269.163
1220.87	274.475
1222.41	262.201
1223.95	276.476
1225.49	268.278
1227.03	283.329
1228.57	267.905
1230.11	270.716
1231.65	280.788
1233.19	275.507
1234.73	281.629
1236.27	274.603
1237.81	284.215
1239.35	290.743
1240.89	281.01
1242.43	284.342
1243.97	283.379
1245.51	305.336
1247.05	293.608
1248.59	294.057
1250.13	290.921
1251.67	296.218
1253.21	298.188
1254.75	319.407
1256.29	298.654
1257.83	318.44
1259.37	308.669
1260.91	306.22
1262.45	308.362
1263.99	316.522
1265.53	323.465
1267.07	328.212
1268.61	318.662
1270.15	342.741
1271.69	317.43
1273.22	342.402
1274.76	336.682
1276.3	350.821
1277.84	340.407
1279.38	336.642
1280.92	341.974
1282.46	358.429
1284	358.773
1285.54	355.309
1287.08	358.776
1288.62	356.628
1290.16	361.313
1291.7	366.788
1293.24	390.172
1294.78	375.406
1296.32	390.652
1297.86	378.784
1299.4	388.557
1300.94	397.515
1302.48	398.698
1304.02	399.427
1305.56	416.525
1307.1	399.328
1308.64	411.926
1310.18	444.346
1311.72	424.408
1313.26	421.001
1314.8	452.35
1316.34	421.131
1317.88	457.469
1319.42	457.529
1320.96	440.138
1322.5	443.867
1324.04	455.406
1325.58	459.92
1327.12	468.981
1328.66	481.97
1330.2	466.097
1331.74	489.383
1333.28	471.06
1334.82	480.062
1336.36	485.306
1337.9	469.328
1339.44	496.028
1340.98	475.2
1342.52	492.34
1344.05	483.449
1345.59	500.962
1347.13	501.775
1348.67	475.529
1350.21	488.58
1351.75	472.976
1353.29	497.518
1354.83	470.493
1356.37	482.322
1357.91	458.456
1359.45	465.75
1360.99	471.288
1362.53	461.476
1364.07	455.672
1365.61	448.058
1367.15	442.203
1368.69	438.512
1370.23	447.958
1371.77	439.514
1373.31	443.309
1374.85	438.079
1376.39	432.864
1377.93	421.471
1379.47	500.516
1381.01	421.858
1382.55	412.219
1384.09	410.022
1385.63	404.516
1387.17	404.102
1388.71	394.156
1390.25	393.771
1391.79	385.88
1393.33	367.609
1394.87	375.97
1396.41	358.038
1397.95	384.487
1399.49	374.867
1401.03	358.165
1402.57	374.32
1404.11	363.297
1405.65	362.814
1407.19	352.196
1408.73	348.012
1410.27	348.072
1411.8	339.397
1413.34	335.961
1414.88	346.198
1416.42	366.207
1417.96	341
1419.5	339.226
1421.04	342.473
1422.58	342.296
1424.12	341.012
1425.66	342.696
1427.2	329.586
1428.74	331.172
1430.28	334.234
1431.82	331.22
1433.36	332.461
1434.9	307.291
1436.44	324.133
1437.98	327.15
1439.52	326.334
1441.06	324.509
1442.6	323.166
1444.14	327.148
1445.68	324.409
1447.22	326.069
1448.76	316.877
1450.3	315.42
1451.84	314.14
1453.38	303.036
1454.92	320.609
1456.46	311.679
1458	323.427
1459.54	317.949
1461.08	330.506
1462.62	323.946
1464.16	329.12
1465.7	314.827
1467.24	318.709
1468.78	333.275
1470.32	315.219
1471.86	315.552
1473.4	309.858
1474.94	309.63
1476.48	314.705
1478.02	315.522
1479.56	321.103
1481.09	309.515
1482.63	330.765
1484.17	324.007
1485.71	327.856
1487.25	316.952
1488.79	308.105
1490.33	315.929
1491.87	324.521
1493.41	323.695
1494.95	313.987
1496.49	331.389
1498.03	301.932
1499.57	322.65
1501.11	320.231
1502.65	320.294
1504.19	328.333
1505.73	314.22
1507.27	315.216
1508.81	310.147
1510.35	327.012
1511.89	308.107
1513.43	312.477
1514.97	328.241
1516.51	320.487
1518.05	327.468
1519.59	321.977
1521.13	326.743
1522.67	328.569
1524.21	330.244
1525.75	341.536
1527.29	330.775
1528.83	331.594
1530.37	327.201
1531.91	332.223
1533.45	328.714
1534.99	325.559
1536.53	328.72
1538.07	342.913
1539.61	335.2
1541.15	345.152
1542.69	340.545
1544.23	339.41
1545.77	356.511
1547.31	340.24
1548.85	357.516
1550.38	345.355
1551.92	347.537
1553.46	366.101
1555	370.655
1556.54	370.479
1558.08	367.11
1559.62	388.435
1561.16	376.174
1562.7	386.927
1564.24	387.527
1565.78	402.249
1567.32	411.008
1568.86	410.93
1570.4	405.907
1571.94	415.327
1573.48	423.43
1575.02	429.539
1576.56	440.341
1578.1	446.002
1579.64	458.26
1581.18	458.268
1582.72	465.582
1584.26	476.056
1585.8	476.962
1587.34	474.485
1588.88	487.292
1590.42	493.296
1591.96	494.242
1593.5	515.554
1595.04	516.185
1596.58	512.784
1598.12	519.407
1599.66	510.715
1601.2	520.792
1602.74	521.727
1604.28	509.789
1605.82	508.528
1607.36	496.405
1608.9	493.213
1610.44	485.432
1611.98	483.019
1613.52	473.45
1615.06	461.898
1616.6	456.092
1618.14	438.987
1619.67	433.884
1621.21	433.294
1622.75	408.993
1624.29	394.554
1625.83	383.456
1627.37	373.147
1628.91	367.346
1630.45	353.979
1631.99	342.242
1633.53	331.706
1635.07	325.201
1636.61	323.649
1638.15	304.229
1639.69	300.362
1641.23	297.693
1642.77	287.954
1644.31	288.978
1645.85	284.736
1647.39	267.774
1648.93	260.971
1650.47	269.233
1652.01	253.607
1653.55	246.116
1655.09	233.345
1656.63	238.278
1658.17	242.705
1659.71	231.713
1661.25	228.292
1662.79	222.725
1664.33	219.673
1665.87	216.891
1667.41	220.887
1668.95	218.903
1670.49	206.046
1672.03	211.602
1673.57	201.595
1675.11	203.369
1676.65	210.08
1678.19	211.5
1679.73	188.392
1681.27	202.541
1682.81	195.13
1684.35	196.313
1685.89	193.088
1687.43	195.803
1688.96	181.932
1690.5	182.706
1692.04	187.653
1693.58	185.536
1695.12	180.077
1696.66	181.939
1698.2	184.998
1699.74	187.618
1701.28	181.676
1702.82	185.292
1704.36	182.516
1705.9	169.987
1707.44	179.082
1708.98	175.604
1710.52	170.476
1712.06	178.956
1713.6	181.23
1715.14	171.09
1716.68	174.915
1718.22	163.353
1719.76	182.448
1721.3	172.995
1722.84	174.083
1724.38	170.313
1725.92	175.298
1727.46	172.915
1729	182.149
1730.54	164.266
1732.08	171.945
1733.62	161.807
1735.16	171.256
1736.7	167.414
1738.24	168.944
1739.78	164.111
1741.32	165
1742.86	155.98
1744.4	166.61
1745.94	174.525
1747.48	164.884
1749.02	166.439
1750.56	171.288
1752.1	163.313
1753.64	170.95
1755.18	161.984
1756.72	165.495
1758.25	164.746
1759.79	171.52
1761.33	170.068
1762.87	170.813
1764.41	172.535
1765.95	172.373
1767.49	175.382
1769.03	170.3
1770.57	163.062
1772.11	162.381
1773.65	164.443
1775.19	175.687
1776.73	170.271
1778.27	167.542
1779.81	168.556
1781.35	163.772
1782.89	173.362
1784.43	165.16
1785.97	166.848
1787.51	164.778
1789.05	160.331
1790.59	173.063
1792.13	157.198
1793.67	172.63
1795.21	164.135
1796.75	158.709
1798.29	155.722
1799.83	167.436
1801.37	162.878
1802.91	160.659
1804.45	156.911
1805.99	164.011
1807.53	165.282
1809.07	166.397
1810.61	161.138
1812.15	168.515
1813.69	159.545
1815.23	170.327
1816.77	156.995
1818.31	168.523
1819.85	153.842
1821.39	164.009
1822.93	160.396
1824.47	160.826
1826.01	170.432
1827.54	169.14
1829.08	166.431
1830.62	161.727
1832.16	161.549
1833.7	168.16
1835.24	168.3
1836.78	165.775
1838.32	170.853
1839.86	166.965
1841.4	159.032
1842.94	162.81
1844.48	159.958
1846.02	159.763
1847.56	170.647
1849.1	163.859
1850.64	174.587
1852.18	164.396
1853.72	165.497
1855.26	170.133
1856.8	161.799
1858.34	158.375
1859.88	151.704
1861.42	163.554
1862.96	161.572
1864.5	169.361
1866.04	158.742
1867.58	166.206
1869.12	161.447
1870.66	166.12
1872.2	163.12
1873.74	162.425
1875.28	163.296
1876.82	165.488
1878.36	173.021
1879.9	170.972
1881.44	161.021
1882.98	163.292
1884.52	169.04
1886.06	162.5
1887.6	160.5
1889.14	163.478
1890.68	161.548
1892.22	166.24
1893.76	167.451
1895.3	162.62
1896.83	167.47
1898.37	156.297
1899.91	180.916
1901.45	162.556
1902.99	164.069
1904.53	158.348
1906.07	171.12
1907.61	163.18
1909.15	158.898
1910.69	164.502
1912.23	161.245
1913.77	155.792
1915.31	162.403
1916.85	163.947
1918.39	165.562
1919.93	159.667
1921.47	153.887
1923.01	157.869
1924.55	167.385
1926.09	167.915
1927.63	161.031
1929.17	159.233
1930.71	154.21
1932.25	167.708
1933.79	158.664
1935.33	163.413
1936.87	161.435
1938.41	165.778
1939.95	164.964
1941.49	159.416
1943.03	152.796
1944.57	157.45
1946.11	160.221
1947.65	160.779
1949.19	164.892
1950.73	156.109
1952.27	159.742
1953.81	163.074
1955.35	158.085
1956.89	162.899
1958.43	164.411
1959.97	155.646
1961.51	148.314
1963.05	156.041
1964.59	157.119
1966.12	158.144
1967.66	161.95
1969.2	162.718
1970.74	160.434
1972.28	155.779
1973.82	161.513
1975.36	150.757
1976.9	156.917
1978.44	164.343
1979.98	168.887
1981.52	155.275
1983.06	157.991
1984.6	159.538
1986.14	169.077
1987.68	162.616
1989.22	156.115
1990.76	172.982
1992.3	155.109
1993.84	152.005
1995.38	171.014
1996.92	174.911
1998.46	155.489
2000	157.17