File: Example Data/Raman/CNT - TIM/Raytheon/Al foil/2010/03-26-10/Al10_LPCVD_600_10min -A_1.txt
200	328.704
201.54	347.874
203.08	353.561
204.619	352.193
206.159	363.207
207.699	363.398
209.239	349.356
210.778	351.546
212.318	368.523
213.858	354.525
215.398	377.997
216.938	356.58
218.477	379.698
220.017	358.442
221.557	368.773
223.097	354.604
224.636	354.969
226.176	351.416
227.716	344.707
229.256	354.643
230.796	356.818
232.335	347.829
233.875	348.977
235.415	349.013
236.955	347.915
238.494	352.446
240.034	353.903
241.574	342.666
243.114	333.211
244.654	344.474
246.193	344.959
247.733	349.05
249.273	340.7
250.813	355.055
252.352	352.242
253.892	333.141
255.432	348.778
256.972	344.176
258.512	350.319
260.051	333.7
261.591	345.157
263.131	338.054
264.671	345.601
266.21	326.373
267.75	338.383
269.29	332.171
270.83	358.014
272.37	354.808
273.909	342.071
275.449	347.534
276.989	343.852
278.529	344.933
280.068	335.892
281.608	349.673
283.148	349.51
284.688	339.908
286.228	344.876
287.767	337.168
289.307	333.185
290.847	341.702
292.387	339.419
293.926	324.315
295.466	333.385
297.006	339.794
298.546	309.039
300.086	329.111
301.625	328.502
303.165	319.14
304.705	323.948
306.245	305.639
307.784	323.057
309.324	319.978
310.864	313.574
312.404	327.457
313.944	306.036
315.483	320.172
317.023	322.85
318.563	324.15
320.103	317.74
321.642	314.879
323.182	307.471
324.722	315.487
326.262	311.224
327.802	309.016
329.341	317.925
330.881	295.797
332.421	310.388
333.961	305.081
335.5	303.276
337.04	294.469
338.58	299.2
340.12	310.172
341.66	303.343
343.199	302
344.739	317.953
346.279	304.448
347.819	295.962
349.358	302.113
350.898	304.689
352.438	287.536
353.978	288.545
355.518	295.214
357.057	299.465
358.597	288.292
360.137	297.161
361.677	295.907
363.216	287.715
364.756	280.156
366.296	273.752
367.836	292.863
369.376	287.226
370.915	288.663
372.455	275.154
373.995	285.691
375.535	297.883
377.074	287.039
378.614	276.663
380.154	282.224
381.694	281.584
383.234	276.92
384.773	278.851
386.313	281.377
387.853	288.582
389.393	278.561
390.932	271.104
392.472	277.471
394.012	283.054
395.552	267.208
397.092	282.715
398.631	261.45
400.171	263.938
401.711	276.264
403.251	275.684
404.79	275.739
406.33	261.478
407.87	260.809
409.41	271.102
410.95	276.394
412.489	267.6
414.029	277.126
415.569	260.132
417.109	272.853
418.648	275.711
420.188	272.804
421.728	265.284
423.268	282.827
424.808	261.555
426.347	261.567
427.887	264.499
429.427	262.106
430.967	251.844
432.506	260.373
434.046	281.931
435.586	256.091
437.126	256.417
438.666	258.31
440.205	258.985
441.745	254.336
443.285	261.044
444.825	247.062
446.364	256.54
447.904	255.676
449.444	258.947
450.984	260.335
452.524	249.006
454.063	258.157
455.603	250.448
457.143	252.528
458.683	253.271
460.222	246.77
461.762	259.101
463.302	256.288
464.842	243.784
466.382	248.332
467.921	246.61
469.461	244.229
471.001	233.831
472.541	239.317
474.08	248.312
475.62	253.873
477.16	246.535
478.7	243.456
480.24	238.082
481.779	244.341
483.319	232.856
484.859	245.723
486.399	236.418
487.938	238.235
489.478	236.635
491.018	239.014
492.558	242.628
494.098	237.276
495.637	229.393
497.177	240.123
498.717	228.98
500.257	230.001
501.796	237.654
503.336	227.174
504.876	228.525
506.416	229.574
507.956	222.558
509.495	221.38
511.035	234.373
512.575	228.133
514.115	228.664
515.654	223.569
517.194	237.264
518.734	230.246
520.274	225.353
521.814	228.319
523.353	219.539
524.893	217.377
526.433	221.013
527.973	234.008
529.512	226.945
531.052	231.13
532.592	229.991
534.132	239.179
535.672	236.136
537.211	228.651
538.751	233.917
540.291	234.079
541.831	228.553
543.37	225.3
544.91	233.484
546.45	232.641
547.99	223.209
549.53	223.992
551.069	239.919
552.609	229.98
554.149	239.306
555.689	225.131
557.228	226.599
558.768	235.528
560.308	235.486
561.848	229.67
563.388	234.99
564.927	230.432
566.467	233.331
568.007	233.299
569.547	243.828
571.086	235.525
572.626	231.539
574.166	232.86
575.706	230.053
577.245	229.22
578.785	222.105
580.325	234.262
581.865	248.633
583.405	238.062
584.944	237.642
586.484	249.341
588.024	224.108
589.564	228.256
591.104	241.227
592.643	228.621
594.183	233.737
595.723	235.294
597.263	239.302
598.802	239.612
600.342	243.804
601.882	236.731
603.422	237.75
604.961	234.137
606.501	228.28
608.041	229.37
609.581	238.988
611.121	242.121
612.66	246.156
614.2	237.49
615.74	240.625
617.28	239.789
618.82	235.421
620.359	222.224
621.899	230.352
623.439	241.789
624.979	242.952
626.518	244.652
628.058	251.188
629.598	242.058
631.138	244.771
632.677	243.028
634.217	242.127
635.757	241.131
637.297	244.553
638.837	242.404
640.376	234.193
641.916	242.967
643.456	250.422
644.996	242.992
646.536	246.542
648.075	245.748
649.615	250.731
651.155	248.846
652.695	242.578
654.234	251.089
655.774	259.726
657.314	260.768
658.854	252.414
660.393	249.911
661.933	258.415
663.473	258.243
665.013	249.316
666.553	258.046
668.092	255.648
669.632	251.406
671.172	249.389
672.712	252.284
674.252	254.006
675.791	253.287
677.331	261.336
678.871	248.163
680.411	253.247
681.95	249.89
683.49	246.587
685.03	248.607
686.57	260.384
688.109	252.185
689.649	258.68
691.189	258.743
692.729	259.194
694.269	258.529
695.808	257.915
697.348	262.573
698.888	257.177
700.428	246.645
701.967	252.758
703.507	259.248
705.047	252.972
706.587	257.946
708.127	266.219
709.666	260.898
711.206	258.846
712.746	269.733
714.286	262.585
715.826	252.574
717.365	267.62
718.905	255.406
720.445	269.527
721.985	254.403
723.524	264.298
725.064	275.195
726.604	280.145
728.144	282.691
729.683	280.009
731.223	266.444
732.763	266.675
734.303	285.699
735.843	281.967
737.382	275.968
738.922	282.258
740.462	276.624
742.002	281.089
743.542	278.474
745.081	283.652
746.621	281.772
748.161	283.507
749.701	278.637
751.24	280.402
752.78	284.385
754.32	281.561
755.86	280.631
757.399	293.124
758.939	296.734
760.479	279.938
762.019	295.098
763.559	302.943
765.098	286.085
766.638	299.138
768.178	286.224
769.718	288.824
771.258	300.965
772.797	295.711
774.337	299.469
775.877	301.607
777.417	304.453
778.956	293.346
780.496	300.725
782.036	304.182
783.576	303.546
785.115	293.531
786.655	304.711
788.195	288.688
789.735	305.445
791.275	305.823
792.814	300.638
794.354	312.89
795.894	311.405
797.434	307.535
798.974	303.218
800.513	307.899
802.053	300.747
803.593	304.901
805.133	323.629
806.672	325.383
808.212	316.122
809.752	313.578
811.292	312.75
812.831	320.415
814.371	309.33
815.911	315.49
817.451	319.75
818.991	325.06
820.53	318.973
822.07	321.166
823.61	311.754
825.15	322.831
826.689	326.445
828.229	311.985
829.769	321.934
831.309	323.312
832.849	324.4
834.388	323.301
835.928	318.379
837.468	320.531
839.008	332.754
840.547	334.556
842.087	316.702
843.627	335.184
845.167	332.281
846.707	325.912
848.246	336.671
849.786	318.914
851.326	332.136
852.866	332.82
854.405	327.592
855.945	329.937
857.485	328.921
859.025	321.056
860.565	324.504
862.104	320.25
863.644	307.731
865.184	324.251
866.724	308.016
868.263	308.796
869.803	296.525
871.343	299.3
872.883	316.018
874.423	302.011
875.962	303.677
877.502	302.022
879.042	282.694
880.582	299.432
882.121	294.65
883.661	295.355
885.201	286.705
886.741	298.651
888.281	283.715
889.82	280.032
891.36	295.536
892.9	285.101
894.44	268.127
895.979	288.243
897.519	287
899.059	270.887
900.599	273.683
902.139	271.033
903.678	274.932
905.218	277.419
906.758	265.443
908.298	269.708
909.837	265.52
911.377	265.875
912.917	265.362
914.457	263.758
915.997	265.388
917.536	261.047
919.076	270.343
920.616	272.174
922.156	263.936
923.695	254.797
925.235	255.821
926.775	267.789
928.315	276.258
929.855	255.826
931.394	259.216
932.934	264.921
934.474	270.062
936.014	270.339
937.553	263.516
939.093	246.56
940.633	263.708
942.173	254.827
943.713	254.042
945.252	261.226
946.792	267.311
948.332	265.233
949.872	266.098
951.411	261.991
952.951	265.902
954.491	265.221
956.031	264.438
957.571	268.152
959.11	270.958
960.65	258.901
962.19	264.468
963.73	266.348
965.269	249.224
966.809	258.477
968.349	282.059
969.889	256.605
971.429	263.008
972.968	274.701
974.508	273.789
976.048	261.181
977.588	266.284
979.127	262.428
980.667	269.131
982.207	266.58
983.747	278.648
985.287	273.196
986.826	281.36
988.366	266.359
989.906	281.403
991.446	284.007
992.985	271.379
994.525	276.649
996.065	277.786
997.605	280.566
999.145	280.648
1000.68	284.434
1002.22	287.907
1003.76	286.587
1005.3	288.317
1006.84	287.75
1008.38	295.634
1009.92	290.984
1011.46	292.143
1013	292.766
1014.54	296.579
1016.08	294.225
1017.62	299.667
1019.16	305.878
1020.7	304.316
1022.24	304.98
1023.78	302.744
1025.32	308.665
1026.86	314.833
1028.4	321.676
1029.94	315.977
1031.48	323.13
1033.02	312.803
1034.56	322.054
1036.1	326.566
1037.64	326.137
1039.18	322.875
1040.72	326.33
1042.26	314.651
1043.8	335.4
1045.34	326.477
1046.88	328.952
1048.42	330.593
1049.96	329.696
1051.5	344.428
1053.04	341.309
1054.58	335.319
1056.12	335.247
1057.66	345.015
1059.2	348.838
1060.74	340.711
1062.28	346.63
1063.82	336.79
1065.35	338.695
1066.89	341.901
1068.43	338.167
1069.97	350.58
1071.51	344.072
1073.05	333.896
1074.59	333.957
1076.13	349.416
1077.67	355.361
1079.21	349.5
1080.75	342.788
1082.29	359.327
1083.83	359.315
1085.37	357.214
1086.91	350.584
1088.45	358.415
1089.99	360.741
1091.53	364.022
1093.07	356.64
1094.61	370.305
1096.15	372.738
1097.69	366.707
1099.23	369.277
1100.77	373.699
1102.31	361.584
1103.85	372.295
1105.39	376.681
1106.93	367.733
1108.47	389.018
1110.01	394.393
1111.55	370.421
1113.09	389.061
1114.63	403.455
1116.17	370.83
1117.71	397.837
1119.25	382.377
1120.79	398.409
1122.33	397.158
1123.87	402.066
1125.41	403.879
1126.95	420.99
1128.49	416.055
1130.03	413.797
1131.57	426.423
1133.11	409.52
1134.65	403.917
1136.18	418.838
1137.72	441.059
1139.26	427
1140.8	426.421
1142.34	438.382
1143.88	443.907
1145.42	456.341
1146.96	436.434
1148.5	460.746
1150.04	447.279
1151.58	447.371
1153.12	449.977
1154.66	457.035
1156.2	459.526
1157.74	468.314
1159.28	466.023
1160.82	465.259
1162.36	477.233
1163.9	477.372
1165.44	482.818
1166.98	477.258
1168.52	483.298
1170.06	489.71
1171.6	490
1173.14	492.137
1174.68	486.633
1176.22	493.321
1177.76	491.896
1179.3	493.069
1180.84	495.285
1182.38	507.444
1183.92	500.412
1185.46	492.32
1187	510.288
1188.54	510.216
1190.08	512.677
1191.62	514.843
1193.16	526.281
1194.7	521.925
1196.24	520.037
1197.78	518.305
1199.32	538.655
1200.86	535.077
1202.4	539.705
1203.93	546.621
1205.47	555.324
1207.01	544.534
1208.55	558.449
1210.09	541.175
1211.63	563.186
1213.17	554.874
1214.71	555.061
1216.25	577.291
1217.79	555.986
1219.33	579.099
1220.87	583.523
1222.41	576.461
1223.95	586.989
1225.49	614.275
1227.03	604.696
1228.57	609.756
1230.11	612.561
1231.65	623.547
1233.19	603.086
1234.73	634.496
1236.27	635.86
1237.81	649.051
1239.35	654.31
1240.89	666.087
1242.43	662.956
1243.97	677.262
1245.51	669.125
1247.05	667.06
1248.59	694.711
1250.13	681.464
1251.67	728.132
1253.21	716.646
1254.75	714.174
1256.29	721.371
1257.83	725.405
1259.37	726.833
1260.91	773.125
1262.45	781.71
1263.99	746.689
1265.53	762.567
1267.07	811.065
1268.61	798.426
1270.15	814.994
1271.69	792.825
1273.22	807.877
1274.76	853.328
1276.3	868.035
1277.84	904.428
1279.38	871.183
1280.92	901.088
1282.46	899.18
1284	919.319
1285.54	928.57
1287.08	957.026
1288.62	961.465
1290.16	985.294
1291.7	985.924
1293.24	996.514
1294.78	1028.36
1296.32	1028.73
1297.86	1042.17
1299.4	1067.64
1300.94	1092.45
1302.48	1108.12
1304.02	1125.48
1305.56	1145.6
1307.1	1167.97
1308.64	1203.16
1310.18	1210.36
1311.72	1196.87
1313.26	1261.99
1314.8	1280.88
1316.34	1318.53
1317.88	1304.53
1319.42	1311.55
1320.96	1362.71
1322.5	1387.24
1324.04	1431.97
1325.58	1422.5
1327.12	1430.68
1328.66	1439
1330.2	1470.71
1331.74	1465.79
1333.28	1481.96
1334.82	1521.54
1336.36	1537.77
1337.9	1496.93
1339.44	1531.79
1340.98	1536.15
1342.52	1547.21
1344.05	1510.06
1345.59	1525.55
1347.13	1480.31
1348.67	1513.4
1350.21	1480.57
1351.75	1433.61
1353.29	1473.72
1354.83	1447.44
1356.37	1428.32
1357.91	1402.99
1359.45	1385
1360.99	1370.58
1362.53	1358.28
1364.07	1333.58
1365.61	1315.2
1367.15	1315.05
1368.69	1276.33
1370.23	1263.66
1371.77	1245.35
1373.31	1228.4
1374.85	1221.94
1376.39	1187.02
1377.93	1173.48
1379.47	1167.46
1381.01	1150.11
1382.55	1098.93
1384.09	1101.35
1385.63	1087.14
1387.17	1090.03
1388.71	1061.52
1390.25	1024.52
1391.79	1003.18
1393.33	1006.69
1394.87	1011.44
1396.41	999.176
1397.95	950.431
1399.49	944.031
1401.03	961.93
1402.57	947.836
1404.11	918.32
1405.65	907.468
1407.19	908.621
1408.73	896.732
1410.27	891.869
1411.8	870.743
1413.34	889.606
1414.88	864.188
1416.42	865.16
1417.96	857.158
1419.5	843.603
1421.04	838.692
1422.58	835.457
1424.12	820.622
1425.66	823.387
1427.2	815.382
1428.74	796.572
1430.28	816.812
1431.82	807.529
1433.36	781.281
1434.9	792.672
1436.44	765.156
1437.98	779.291
1439.52	789.963
1441.06	796.114
1442.6	760.971
1444.14	795.877
1445.68	770.215
1447.22	784.871
1448.76	763.151
1450.3	770.863
1451.84	795.794
1453.38	769.576
1454.92	770.486
1456.46	755.356
1458	751.957
1459.54	749.833
1461.08	754.006
1462.62	752.697
1464.16	759.717
1465.7	751.227
1467.24	762.049
1468.78	767.642
1470.32	761.073
1471.86	762.872
1473.4	755.84
1474.94	750.197
1476.48	760.958
1478.02	752.603
1479.56	744.41
1481.09	767.952
1482.63	758.606
1484.17	764.326
1485.71	755.822
1487.25	755.933
1488.79	782.812
1490.33	736.77
1491.87	754.759
1493.41	743.951
1494.95	761.74
1496.49	751.756
1498.03	773.612
1499.57	769.462
1501.11	762.473
1502.65	752.323
1504.19	765.307
1505.73	783.953
1507.27	773.435
1508.81	773.594
1510.35	776.164
1511.89	757.738
1513.43	769.288
1514.97	771.537
1516.51	778.389
1518.05	784.414
1519.59	768.319
1521.13	793.932
1522.67	790.563
1524.21	803.983
1525.75	806.678
1527.29	817.65
1528.83	807.171
1530.37	832.972
1531.91	847.18
1533.45	830.535
1534.99	865.679
1536.53	864.284
1538.07	856.821
1539.61	879.358
1541.15	897.92
1542.69	902.492
1544.23	922.678
1545.77	934.271
1547.31	932.849
1548.85	969.259
1550.38	977.42
1551.92	1014.13
1553.46	1035.94
1555	1041.85
1556.54	1065.59
1558.08	1096.5
1559.62	1101.93
1561.16	1112.16
1562.7	1150.23
1564.24	1149.17
1565.78	1174.74
1567.32	1203.23
1568.86	1219.13
1570.4	1250.62
1571.94	1259.46
1573.48	1276.54
1575.02	1313.16
1576.56	1311.74
1578.1	1347.02
1579.64	1347.87
1581.18	1375.48
1582.72	1372.79
1584.26	1372.03
1585.8	1380.12
1587.34	1396.69
1588.88	1410.44
1590.42	1419.76
1591.96	1406.65
1593.5	1383.6
1595.04	1383.32
1596.58	1385.54
1598.12	1382.96
1599.66	1353.63
1601.2	1345.96
1602.74	1323.01
1604.28	1287.43
1605.82	1292.97
1607.36	1280.89
1608.9	1218.2
1610.44	1205.68
1611.98	1171.78
1613.52	1140.27
1615.06	1108.35
1616.6	1072.09
1618.14	1022.05
1619.67	1014.01
1621.21	949.194
1622.75	915.554
1624.29	880.866
1625.83	840.565
1627.37	827.002
1628.91	781.187
1630.45	752.401
1631.99	714.6
1633.53	682.631
1635.07	664.102
1636.61	641.44
1638.15	611.943
1639.69	600.573
1641.23	580.699
1642.77	571.879
1644.31	530.104
1645.85	523.406
1647.39	504.744
1648.93	492.086
1650.47	471.747
1652.01	464.752
1653.55	443.551
1655.09	429.47
1656.63	423.969
1658.17	416
1659.71	393.479
1661.25	383.534
1662.79	382.745
1664.33	370.016
1665.87	347.886
1667.41	344.57
1668.95	329.003
1670.49	324.211
1672.03	314.413
1673.57	311.52
1675.11	299.425
1676.65	295.561
1678.19	294.314
1679.73	278.362
1681.27	282.79
1682.81	277.055
1684.35	263.172
1685.89	266.997
1687.43	259.398
1688.96	248.543
1690.5	253.394
1692.04	238.632
1693.58	242.389
1695.12	233.905
1696.66	238.284
1698.2	235.015
1699.74	222.254
1701.28	229.608
1702.82	225.688
1704.36	219.529
1705.9	212.873
1707.44	218.67
1708.98	219.395
1710.52	214.927
1712.06	210.218
1713.6	210.174
1715.14	211.285
1716.68	212.374
1718.22	212.163
1719.76	207.168
1721.3	195.754
1722.84	194.496
1724.38	191.649
1725.92	198.192
1727.46	201.873
1729	207.19
1730.54	199.781
1732.08	186.876
1733.62	187.414
1735.16	181.449
1736.7	179.515
1738.24	185.475
1739.78	184.945
1741.32	184.271
1742.86	185.05
1744.4	183.81
1745.94	177.355
1747.48	191.951
1749.02	177.634
1750.56	194.975
1752.1	188.577
1753.64	178.44
1755.18	167.591
1756.72	189.289
1758.25	175.637
1759.79	172.475
1761.33	181.225
1762.87	180.344
1764.41	181.691
1765.95	175.647
1767.49	175.187
1769.03	182.591
1770.57	176.878
1772.11	187.51
1773.65	175.76
1775.19	175.935
1776.73	180.549
1778.27	168.808
1779.81	181.18
1781.35	181.483
1782.89	181.799
1784.43	173.021
1785.97	176.484
1787.51	172.56
1789.05	180.545
1790.59	177.869
1792.13	173.095
1793.67	171.806
1795.21	170.462
1796.75	177.635
1798.29	174.3
1799.83	177.392
1801.37	168.899
1802.91	171.787
1804.45	171.761
1805.99	169.178
1807.53	164.098
1809.07	162.866
1810.61	165.645
1812.15	169.649
1813.69	161.566
1815.23	164.255
1816.77	165.982
1818.31	169.478
1819.85	149.09
1821.39	167.238
1822.93	164.155
1824.47	165.509
1826.01	163.769
1827.54	169.71
1829.08	173.104
1830.62	165.747
1832.16	164.508
1833.7	162.714
1835.24	166.674
1836.78	173.263
1838.32	160.322
1839.86	161.965
1841.4	164.394
1842.94	159.853
1844.48	169.931
1846.02	155.021
1847.56	158.623
1849.1	161.021
1850.64	165.561
1852.18	162.612
1853.72	162.555
1855.26	158.019
1856.8	164.5
1858.34	152.859
1859.88	161.967
1861.42	155.755
1862.96	160.706
1864.5	158.138
1866.04	155.489
1867.58	160.773
1869.12	162.828
1870.66	158.87
1872.2	149.596
1873.74	162.179
1875.28	159.656
1876.82	156.234
1878.36	160.336
1879.9	165.803
1881.44	151.024
1882.98	158.391
1884.52	166.826
1886.06	162.484
1887.6	160.626
1889.14	156.63
1890.68	150.836
1892.22	163.27
1893.76	153.473
1895.3	155.546
1896.83	161.974
1898.37	161.412
1899.91	159.031
1901.45	157.528
1902.99	159.65
1904.53	161.202
1906.07	159.552
1907.61	153.348
1909.15	160.38
1910.69	162.966
1912.23	154.537
1913.77	163.164
1915.31	158.312
1916.85	152.441
1918.39	152.661
1919.93	151.169
1921.47	150.19
1923.01	155.888
1924.55	151.591
1926.09	151.171
1927.63	151.712
1929.17	159.653
1930.71	152.331
1932.25	150.498
1933.79	156.382
1935.33	152.25
1936.87	160.231
1938.41	153.5
1939.95	158.936
1941.49	151.917
1943.03	149.971
1944.57	154.11
1946.11	161.016
1947.65	154.02
1949.19	157.638
1950.73	160.394
1952.27	150.914
1953.81	155.848
1955.35	156.473
1956.89	157.328
1958.43	150.668
1959.97	155.116
1961.51	153.744
1963.05	150.409
1964.59	154.635
1966.12	150.334
1967.66	154.813
1969.2	148.042
1970.74	154.541
1972.28	154.474
1973.82	150.493
1975.36	150.431
1976.9	153.372
1978.44	152.359
1979.98	150.759
1981.52	155.277
1983.06	154.263
1984.6	155.719
1986.14	161.772
1987.68	154.622
1989.22	158.548
1990.76	151.352
1992.3	158.258
1993.84	154.754
1995.38	159.835
1996.92	163.458
1998.46	165.927
2000	152.532