File: Example Data/Raman/CNT - TIM/Raytheon/Al foil/2010/03-26-10/Al10_LPCVD_550_5min -A _1.txt
300	219.667
301.307	219
302.613	219.56
303.92	225.877
305.227	235.746
306.533	236.539
307.84	223.145
309.147	231.131
310.453	237.381
311.76	235.59
313.067	241.964
314.374	244.411
315.68	240.629
316.987	232.499
318.294	223.121
319.6	225.088
320.907	261.725
322.214	257.262
323.52	230.064
324.827	230.152
326.134	243.961
327.44	248.906
328.747	241.981
330.054	237.504
331.361	244.453
332.667	251.116
333.974	260.963
335.281	249.405
336.587	243.276
337.894	239.954
339.201	240.732
340.507	248.621
341.814	253.418
343.121	254.034
344.427	261.555
345.734	228.689
347.041	239.446
348.347	251.906
349.654	254
350.961	273.961
352.267	273.101
353.574	266.941
354.881	264.963
356.188	251.697
357.494	253.481
358.801	250.027
360.108	250.925
361.414	274.043
362.721	291.256
364.028	294.762
365.334	275.871
366.641	261.502
367.948	262.476
369.254	258.926
370.561	265.549
371.868	262.128
373.174	272.031
374.481	246.234
375.788	269.834
377.095	269.178
378.401	246.192
379.708	241.025
381.015	256.794
382.321	259.197
383.628	250.006
384.935	289.488
386.241	248.919
387.548	263.709
388.855	237.257
390.161	243.48
391.468	247.755
392.775	249.8
394.081	267.449
395.388	273.434
396.695	255.737
398.002	267.412
399.308	247.578
400.615	246
401.922	231.316
403.228	238.093
404.535	247.696
405.842	247.347
407.148	249.863
408.455	259.011
409.762	257.421
411.068	281.549
412.375	274.327
413.682	260.187
414.988	240.343
416.295	253.148
417.602	253.937
418.909	252.321
420.215	262.774
421.522	270.26
422.829	266
424.135	264.295
425.442	248.903
426.749	233.509
428.055	242.619
429.362	242.109
430.669	244.771
431.975	236.309
433.282	235.374
434.589	246.694
435.895	250.788
437.202	259.8
438.509	263.733
439.816	260.106
441.122	256.479
442.429	248.913
443.736	243.527
445.042	241.398
446.349	243.551
447.656	248.092
448.962	261.761
450.269	277.684
451.576	256.858
452.882	255.949
454.189	255.04
455.496	247.188
456.802	242.894
458.109	248.174
459.416	235.524
460.723	225
462.029	248.167
463.336	267.082
464.643	240.566
465.949	246.269
467.256	230.853
468.563	245.428
469.869	243.378
471.176	255.544
472.483	242.319
473.789	249.556
475.096	254.344
476.403	243.146
477.709	234.68
479.016	245.029
480.323	282.737
481.63	344.119
482.936	419.847
484.243	385.056
485.55	309.712
486.856	288.664
488.163	252.684
489.47	248.358
490.776	259.156
492.083	262.229
493.39	265.261
494.696	253.406
496.003	261.972
497.31	253.497
498.616	237.07
499.923	249.673
501.23	255.075
502.536	230.726
503.843	247.682
505.15	269.561
506.457	251.51
507.763	233.568
509.07	243.785
510.377	225.67
511.683	252.565
512.99	247.985
514.297	242.492
515.603	234.498
516.91	234.499
518.217	242.983
519.523	244.094
520.83	230.559
522.137	219
523.443	229.942
524.75	245.796
526.057	227.165
527.364	228.327
528.67	231.994
529.977	228.332
531.284	230.503
532.59	248.288
533.897	242.609
535.204	233.471
536.51	235.553
537.817	251.458
539.124	257.734
540.43	238.171
541.737	233.539
543.044	236.298
544.351	238.624
545.657	219.305
546.964	247.13
548.271	258.214
549.577	242.596
550.884	236.232
552.191	227.35
553.497	234.054
554.804	247.858
556.111	243.077
557.417	250.178
558.724	254.111
560.031	230.886
561.337	244.709
562.644	259.437
563.951	263.469
565.258	238.682
566.564	240.667
567.871	238.344
569.178	247.296
570.484	257.109
571.791	241.707
573.098	225.777
574.404	233.602
575.711	237.235
577.018	244.181
578.324	208.173
579.631	264.091
580.938	257.138
582.244	251.044
583.551	239.393
584.858	231.653
586.164	237.664
587.471	265.014
588.778	267.638
590.085	226.568
591.391	231.549
592.698	248.231
594.005	267.513
595.311	244.388
596.618	245.819
597.925	232.642
599.231	233.041
600.538	249.087
601.845	240.692
603.151	240.157
604.458	246.606
605.765	241.094
607.071	243.567
608.378	262.978
609.685	263.777
610.992	254.466
612.298	267.871
613.605	263.237
614.912	243.649
616.218	260.389
617.525	259.852
618.832	251.363
620.138	261.018
621.445	254.916
622.752	243.243
624.058	239.967
625.365	232.142
626.672	237.704
627.978	241.311
629.285	246.335
630.592	230.202
631.899	238.572
633.205	262.798
634.512	253.827
635.819	238.386
637.125	231.314
638.432	224.583
639.739	228.991
641.045	242.492
642.352	250.394
643.659	251.974
644.965	260.656
646.272	277.187
647.579	267.027
648.885	281.133
650.192	265.291
651.499	265.914
652.806	274.457
654.112	251.88
655.419	260.631
656.726	285.007
658.032	273.118
659.339	254.456
660.646	257.301
661.952	259.877
663.259	250.535
664.566	251.037
665.872	268.425
667.179	259.585
668.486	249.495
669.792	281.248
671.099	250.081
672.406	237.692
673.713	262.538
675.019	273.58
676.326	267.839
677.633	266.929
678.939	260.669
680.246	255.282
681.553	258.392
682.859	264.241
684.166	269.206
685.473	251.8
686.779	248.764
688.086	259.069
689.393	247.116
690.699	259.285
692.006	257.353
693.313	257.819
694.62	273.132
695.926	273.145
697.233	245.118
698.54	237.393
699.846	253.636
701.153	256.001
702.46	252.88
703.766	265.605
705.073	271.077
706.38	275.617
707.686	267.265
708.993	248.48
710.3	230.621
711.606	271.964
712.913	247.196
714.22	263.167
715.526	276.267
716.833	270.455
718.14	275.481
719.447	276.443
720.753	256.932
722.06	252.904
723.367	268.319
724.673	266.594
725.98	255.89
727.287	257.053
728.593	256.494
729.9	268.239
731.207	272.329
732.513	307.914
733.82	281.541
735.127	286.218
736.434	265.402
737.74	263.319
739.047	256.845
740.354	281.639
741.66	279.778
742.967	264.107
744.274	267.798
745.58	279.45
746.887	276.509
748.194	268.134
749.5	278.31
750.807	280.967
752.114	279.106
753.42	289.109
754.727	271.559
756.034	284.779
757.341	265.5
758.647	274.492
759.954	276
761.261	291.301
762.567	263.326
763.874	262.452
765.181	253.363
766.487	239.163
767.794	249.345
769.101	255.952
770.407	261.707
771.714	277.665
773.021	259.355
774.327	259.754
775.634	291.604
776.941	280.238
778.247	248.682
779.554	284.866
780.861	277.28
782.168	270.606
783.474	290.654
784.781	271.347
786.088	253.118
787.394	245.467
788.701	268.261
790.008	304.556
791.314	295.68
792.621	273.489
793.928	273.259
795.234	276
796.541	281.621
797.848	294.109
799.154	291.457
800.461	269.403
801.768	275.106
803.075	297.692
804.381	293.881
805.688	274.103
806.995	297.877
808.301	261.846
809.608	284.618
810.915	294.672
812.221	274.672
813.528	266.573
814.835	280.634
816.141	278.73
817.448	290.689
818.755	296.158
820.061	277.121
821.368	272.565
822.675	291.633
823.982	292.964
825.288	272.151
826.595	272.34
827.902	266.148
829.208	275.599
830.515	282.202
831.822	309.767
833.128	305.964
834.435	303.099
835.742	276.286
837.048	271.37
838.355	274.324
839.662	286.799
840.969	277.395
842.275	275.789
843.582	278.96
844.889	286.088
846.195	280.399
847.502	288.12
848.809	294.361
850.115	286.434
851.422	288.953
852.729	294.783
854.035	296.643
855.342	284.804
856.649	280.439
857.955	307.353
859.262	305.64
860.569	283.261
861.875	276.505
863.182	285.973
864.489	283.098
865.796	260.779
867.102	269.615
868.409	274.374
869.716	289.444
871.022	289.954
872.329	291.884
873.636	277.353
874.942	275.758
876.249	286.194
877.556	269.184
878.862	274.884
880.169	282.054
881.476	264.353
882.782	261.803
884.089	265.901
885.396	273.918
886.703	288.266
888.009	304.819
889.316	291.585
890.623	285.417
891.929	265.101
893.236	280.223
894.543	290.83
895.849	272
897.156	326.909
898.463	297.826
899.769	259.741
901.076	278.594
902.383	284.498
903.689	281.818
904.996	264.292
906.303	287.951
907.61	292.128
908.916	270.111
910.223	271.073
911.53	280.897
912.836	261.219
914.143	282.698
915.45	301.112
916.756	273.732
918.063	275.091
919.37	288.851
920.676	289.986
921.983	287.203
923.29	284.93
924.596	271.233
925.903	275.192
927.21	283.848
928.517	261.938
929.823	259.284
931.13	296.135
932.437	269.392
933.743	252.038
935.05	288.801
936.357	304.04
937.663	266.141
938.97	279.43
940.277	296.272
941.583	299
942.89	279.602
944.197	276.977
945.503	269.433
946.81	278.977
948.117	277.179
949.424	277.345
950.73	278.228
952.037	282.045
953.344	272.22
954.65	267.493
955.957	282.988
957.264	275.263
958.57	263.453
959.877	275.472
961.184	280.748
962.49	295.323
963.797	289.519
965.104	271.875
966.41	270.988
967.717	283.242
969.024	272.444
970.331	285.387
971.637	276.261
972.944	311.039
974.251	292.232
975.557	283.118
976.864	307.673
978.171	288.231
979.477	295.697
980.784	290.385
982.091	286.361
983.397	297.474
984.704	292.147
986.011	284.352
987.317	293.472
988.624	285.078
989.931	285.02
991.237	289.644
992.544	288.889
993.851	307.004
995.158	296.378
996.464	282.223
997.771	298.157
999.078	286.76
1000.38	276.126
1001.69	293.792
1003	294.801
1004.3	300.098
1005.61	299.312
1006.92	283.081
1008.22	287
1009.53	291.727
1010.84	298.628
1012.14	302.196
1013.45	301.17
1014.76	292.136
1016.06	309.044
1017.37	296.386
1018.68	293.069
1019.98	299.685
1021.29	283.702
1022.6	313.106
1023.9	322.692
1025.21	322.341
1026.52	333.262
1027.82	346.71
1029.13	303.913
1030.44	289.151
1031.74	274.878
1033.05	301.591
1034.36	344.693
1035.66	304.079
1036.97	276.243
1038.28	303.074
1039.58	320.595
1040.89	316.605
1042.2	336.237
1043.51	326.073
1044.81	310.496
1046.12	297.257
1047.43	338.62
1048.73	337.148
1050.04	313.129
1051.35	309.268
1052.65	318.129
1053.96	300.776
1055.27	304.291
1056.57	316.582
1057.88	320
1059.19	316.721
1060.49	302.854
1061.8	295.376
1063.11	300.482
1064.41	320.025
1065.72	324.063
1067.03	319
1068.33	317.905
1069.64	319.13
1070.95	320.482
1072.25	326.045
1073.56	329.551
1074.87	326.525
1076.17	321.85
1077.48	324.162
1078.79	326.918
1080.09	312.691
1081.4	307.662
1082.71	318.908
1084.01	331.814
1085.32	327.678
1086.63	311.069
1087.93	322.63
1089.24	330.374
1090.55	317.316
1091.85	333.15
1093.16	322.185
1094.47	308.566
1095.77	324.022
1097.08	344.85
1098.39	336.251
1099.69	340.13
1101	357.603
1102.31	374.885
1103.61	341.6
1104.92	324.601
1106.23	325.645
1107.53	338.796
1108.84	346.659
1110.15	343.71
1111.45	336.239
1112.76	329.442
1114.07	318.807
1115.37	347.624
1116.68	334.852
1117.99	358.683
1119.29	318.516
1120.6	350.185
1121.91	352.085
1123.21	352.305
1124.52	343.372
1125.83	335.687
1127.13	346.489
1128.44	353.397
1129.75	368.027
1131.05	372.048
1132.36	362.69
1133.67	368.464
1134.97	361.085
1136.28	371.85
1137.59	363.652
1138.89	368.396
1140.2	356.161
1141.51	365.295
1142.81	372.879
1144.12	370.424
1145.43	334.186
1146.73	363.986
1148.04	375.551
1149.35	343.674
1150.65	377.657
1151.96	377.195
1153.27	369.32
1154.57	386.214
1155.88	375.789
1157.19	394.905
1158.49	361.592
1159.8	419.465
1161.11	376.672
1162.41	392.66
1163.72	407.282
1165.03	360.838
1166.33	391.662
1167.64	396.932
1168.95	393.504
1170.25	416.579
1171.56	351.264
1172.87	390.966
1174.17	405.662
1175.48	381.299
1176.79	405.688
1178.09	413.594
1179.4	407.063
1180.71	398.686
1182.01	398.032
1183.32	403.088
1184.63	379.288
1185.93	415.216
1187.24	411.838
1188.55	407.999
1189.85	405.184
1191.16	425.539
1192.47	379.304
1193.77	413.344
1195.08	383.754
1196.39	412.637
1197.69	411.925
1199	402.432
1200.31	424.328
1201.61	425.226
1202.92	400.986
1204.23	410.983
1205.53	373.332
1206.84	399.588
1208.15	423.57
1209.45	436.596
1210.76	407.849
1212.07	393.9
1213.37	415.98
1214.68	431.905
1215.99	439.955
1217.29	384.624
1218.6	441.998
1219.91	424.961
1221.21	440.342
1222.52	432.731
1223.83	442.889
1225.13	434.002
1226.44	426.243
1227.75	449.249
1229.05	457.399
1230.36	454.858
1231.67	466.745
1232.97	452.523
1234.28	454.449
1235.59	432.225
1236.89	462.603
1238.2	449.83
1239.51	488.662
1240.81	480.856
1242.12	462.17
1243.43	480.027
1244.73	462.775
1246.04	461.04
1247.35	474.094
1248.65	447.199
1249.96	465.932
1251.27	462.844
1252.57	492.409
1253.88	499.836
1255.19	518.325
1256.49	484.695
1257.8	489.27
1259.11	489.956
1260.42	480.205
1261.72	494.787
1263.03	493.497
1264.34	504.687
1265.64	505.719
1266.95	513.252
1268.26	522.581
1269.56	508.528
1270.87	524.954
1272.18	519.658
1273.48	524.339
1274.79	529.96
1276.1	525.856
1277.4	527.963
1278.71	523.418
1280.02	534.602
1281.32	543.248
1282.63	538.529
1283.94	548.655
1285.24	555.554
1286.55	549.094
1287.86	568.196
1289.16	579.844
1290.47	578.591
1291.78	583.087
1293.08	580.611
1294.39	581.576
1295.7	588.699
1297	602.329
1298.31	601.889
1299.62	614.407
1300.92	623.691
1302.23	630.109
1303.54	637.676
1304.84	636.241
1306.15	639.956
1307.46	631.643
1308.76	627.364
1310.07	634.655
1311.38	641.491
1312.68	656.573
1313.99	668.602
1315.3	628.695
1316.6	676.817
1317.91	687.603
1319.22	704.497
1320.52	696.909
1321.83	703.188
1323.14	686.505
1324.44	705.274
1325.75	676.968
1327.06	695.523
1328.36	690.689
1329.67	696.088
1330.98	717.672
1332.28	727.693
1333.59	727.138
1334.9	703.829
1336.2	728.412
1337.51	752.361
1338.82	740.399
1340.12	739.759
1341.43	727.288
1342.74	728.911
1344.04	721.48
1345.35	740.983
1346.66	764.404
1347.96	744.052
1349.27	742.853
1350.58	744.693
1351.88	756.759
1353.19	771.58
1354.5	738.917
1355.8	724.709
1357.11	744.825
1358.42	759.216
1359.72	736.036
1361.03	730.638
1362.34	681.184
1363.64	709.863
1364.95	712.234
1366.26	682.737
1367.56	739.615
1368.87	704.33
1370.18	728.959
1371.48	708.226
1372.79	689.769
1374.1	677.039
1375.4	652.998
1376.71	670.549
1378.02	670.702
1379.32	638.555
1380.63	632.362
1381.94	662.304
1383.24	655.378
1384.55	657.712
1385.86	641.908
1387.16	636.198
1388.47	627.211
1389.78	616.411
1391.08	606.972
1392.39	626.36
1393.7	611.847
1395	599.066
1396.31	601.444
1397.62	602.518
1398.92	610.441
1400.23	603.05
1401.54	595.457
1402.84	591.516
1404.15	583.247
1405.46	586.845
1406.76	577.685
1408.07	572.412
1409.38	556.36
1410.68	566.328
1411.99	577.981
1413.3	569.851
1414.6	579.41
1415.91	589.856
1417.22	588.482
1418.52	574.082
1419.83	564.628
1421.14	559.528
1422.44	555.987
1423.75	544.286
1425.06	536.902
1426.36	535.426
1427.67	540.636
1428.98	535.663
1430.28	548.531
1431.59	555.571
1432.9	569.555
1434.2	545.585
1435.51	528.948
1436.82	534.902
1438.12	531.35
1439.43	527.289
1440.74	537.148
1442.04	530.416
1443.35	536.063
1444.66	535.714
1445.96	539.185
1447.27	540.901
1448.58	512.746
1449.88	522.139
1451.19	537.4
1452.5	535.594
1453.8	555.627
1455.11	549.6
1456.42	546.994
1457.72	531.262
1459.03	548.759
1460.34	516.548
1461.64	519.087
1462.95	540.798
1464.26	559.935
1465.56	558.084
1466.87	551.69
1468.18	524.015
1469.48	516.548
1470.79	506.223
1472.1	548.746
1473.41	547.533
1474.71	539.678
1476.02	515.951
1477.33	558.956
1478.63	543.512
1479.94	534.727
1481.25	509.635
1482.55	520.018
1483.86	547.719
1485.17	528.2
1486.47	546.251
1487.78	535.423
1489.09	527.892
1490.39	542.47
1491.7	548.31
1493.01	533.125
1494.31	540.22
1495.62	530.854
1496.93	531.781
1498.23	546.743
1499.54	540.273
1500.85	528.66
1502.15	537.869
1503.46	518.409
1504.77	525.617
1506.07	507.788
1507.38	539.063
1508.69	514.032
1509.99	511.853
1511.3	515.719
1512.61	528.174
1513.91	529.092
1515.22	530.519
1516.53	548.366
1517.83	530.017
1519.14	513.405
1520.45	524.965
1521.75	542.346
1523.06	534.996
1524.37	541.905
1525.67	549.728
1526.98	574.718
1528.29	564.93
1529.59	554.867
1530.9	555.601
1532.21	558.806
1533.51	549.768
1534.82	545.243
1536.13	546.513
1537.43	538.128
1538.74	541.615
1540.05	537.514
1541.35	552.359
1542.66	594.802
1543.97	555.328
1545.27	558.07
1546.58	599.927
1547.89	567.553
1549.19	593.997
1550.5	601.782
1551.81	602.457
1553.11	590.276
1554.42	604.694
1555.73	602.072
1557.03	639.044
1558.34	638.413
1559.65	636.904
1560.95	617.318
1562.26	635.057
1563.57	654.629
1564.87	651.211
1566.18	655.322
1567.49	632.482
1568.79	651.528
1570.1	632.638
1571.41	688.031
1572.71	685.58
1574.02	709.166
1575.33	732.55
1576.63	694.465
1577.94	731.155
1579.25	747.719
1580.55	737.551
1581.86	751.828
1583.17	732.14
1584.47	739.327
1585.78	774.561
1587.09	783.261
1588.39	768.1
1589.7	795.64
1591.01	799.375
1592.31	795.843
1593.62	801.47
1594.93	813.782
1596.23	809.133
1597.54	768.284
1598.85	823.692
1600.15	826.18
1601.46	822.81
1602.77	822.052
1604.07	832.889
1605.38	840.837
1606.69	807.084
1607.99	815.368
1609.3	795.87
1610.61	799.574
1611.91	774.407
1613.22	801.174
1614.53	800.469
1615.83	783.875
1617.14	739.844
1618.45	729.529
1619.75	721.854
1621.06	714.649
1622.37	682.397
1623.67	690.292
1624.98	712.667
1626.29	639.529
1627.59	631.407
1628.9	601.51
1630.21	588.78
1631.51	577.84
1632.82	595.232
1634.13	595.157
1635.43	582.762
1636.74	564.128
1638.05	573.131
1639.35	545.564
1640.66	522.654
1641.97	510.846
1643.27	538.555
1644.58	497.8
1645.89	526.144
1647.19	496.304
1648.5	509.268
1649.81	493.61
1651.11	500.09
1652.42	471.006
1653.73	461.312
1655.03	467.929
1656.34	438.828
1657.65	450.235
1658.95	471.443
1660.26	464.004
1661.57	442.882
1662.87	417.74
1664.18	436.951
1665.49	413.42
1666.79	416.331
1668.1	396.681
1669.41	404.493
1670.71	372.319
1672.02	395
1673.33	393.507
1674.63	380.641
1675.94	363.37
1677.25	363.255
1678.55	376.971
1679.86	374.212
1681.17	392.067
1682.47	386.194
1683.78	378.631
1685.09	378.306
1686.4	382.547
1687.7	348.685
1689.01	367.511
1690.32	353
1691.62	325.284
1692.93	352.342
1694.24	381
1695.54	374.255
1696.85	348.269
1698.16	348.666
1699.46	349.596
1700.77	349.68
1702.08	350.706
1703.38	349.241
1704.69	336.093
1706	332.453
1707.3	323.493
1708.61	393.963
1709.92	343.122
1711.22	342.963
1712.53	326.546
1713.84	362.717
1715.14	339.183
1716.45	358.985
1717.76	335.423
1719.06	325.572
1720.37	338.445
1721.68	323.012
1722.98	344.129
1724.29	343.837
1725.6	342.578
1726.9	352.661
1728.21	340.822
1729.52	342.79
1730.82	339.591
1732.13	317.174
1733.44	321.994
1734.74	332.546
1736.05	328.622
1737.36	345.65
1738.66	311.603
1739.97	329.007
1741.28	342.849
1742.58	331.771
1743.89	318.116
1745.2	346.716
1746.5	340.204
1747.81	352.123
1749.12	312.471
1750.42	344.39
1751.73	338
1753.04	342.436
1754.34	346.565
1755.65	322.239
1756.96	321.454
1758.26	329.395
1759.57	331.784
1760.88	320.205
1762.18	328.015
1763.49	321.269
1764.8	356.863
1766.1	327.795
1767.41	350.4
1768.72	321
1770.02	323.228
1771.33	335.351
1772.64	340.805
1773.94	340.171
1775.25	341.415
1776.56	319.044
1777.86	326.861
1779.17	336.261
1780.48	344.158
1781.78	329.909
1783.09	328
1784.4	320.747
1785.7	336.146
1787.01	341.732
1788.32	333.284
1789.62	322.36
1790.93	314.839
1792.24	318.479
1793.54	305.195
1794.85	300.596
1796.16	311.929
1797.46	321.887
1798.77	323.92
1800.08	338.993
1801.38	331.164
1802.69	329.741
1804	313.733
1805.3	319.577
1806.61	327
1807.92	320.174
1809.22	313
1810.53	317.561
1811.84	324.403
1813.14	317.837
1814.45	350.158
1815.76	332.402
1817.06	329.295
1818.37	343.075
1819.68	315.232
1820.98	318.527
1822.29	314.012
1823.6	307.699
1824.9	324.953
1826.21	340.792
1827.52	329.048
1828.82	332.05
1830.13	294.069
1831.44	327.708
1832.74	343.236
1834.05	346
1835.36	345.751
1836.66	341.64
1837.97	336.689
1839.28	335.947
1840.58	343.126
1841.89	338.401
1843.2	348.394
1844.5	337.56
1845.81	323.666
1847.12	351.101
1848.42	296.559
1849.73	314.05
1851.04	334.025
1852.34	325.842
1853.65	321.154
1854.96	342.238
1856.26	322.462
1857.57	325.029
1858.88	325.516
1860.18	310.18
1861.49	341.678
1862.8	313.286
1864.1	301.419
1865.41	303.768
1866.72	339.073
1868.02	306.21
1869.33	327.669
1870.64	345.194
1871.94	346.607
1873.25	319.034
1874.56	307.529
1875.86	316.377
1877.17	338.022
1878.48	325.973
1879.78	308.229
1881.09	323.393
1882.4	350.635
1883.7	336.081
1885.01	344.044
1886.32	348.19
1887.62	349.57
1888.93	342.394
1890.24	328.217
1891.54	313.966
1892.85	326.944
1894.16	319.415
1895.47	312.07
1896.77	333.088
1898.08	338.088
1899.39	325.013
1900.69	303.599
1902	328.094
1903.31	343.037
1904.61	351.077
1905.92	321.832
1907.23	306.938
1908.53	308.671
1909.84	324.396
1911.15	332.355
1912.45	325.766
1913.76	324.353
1915.07	301.158
1916.37	326.475
1917.68	331.514
1918.99	328.524
1920.29	321.264
1921.6	293.86
1922.91	326.563
1924.21	322.105
1925.52	327.48
1926.83	333.342
1928.13	321.662
1929.44	324.909
1930.75	324.586
1932.05	324.071
1933.36	343.145
1934.67	339.413
1935.97	328.021
1937.28	352.458
1938.59	331.144
1939.89	347.474
1941.2	292.143
1942.51	333.943
1943.81	316.212
1945.12	318.42
1946.43	324.697
1947.73	324.155
1949.04	329.322
1950.35	337.998
1951.65	319.595
1952.96	333.37
1954.27	326.67
1955.57	310.939
1956.88	331.451
1958.19	331.195
1959.49	316.86
1960.8	313.948
1962.11	319.556
1963.41	334.673
1964.72	305.269
1966.03	312.861
1967.33	300.011
1968.64	337.892
1969.95	336.57
1971.25	324.345
1972.56	328.707
1973.87	335.443
1975.17	333
1976.48	341.978
1977.79	341.864
1979.09	315.697
1980.4	324.499
1981.71	327.309
1983.01	325.044
1984.32	341.474
1985.63	327.171
1986.93	309.26
1988.24	320.085
1989.55	321.733
1990.85	319.073
1992.16	326.283
1993.47	337.713
1994.77	322.283
1996.08	334.1
1997.39	336.868
1998.69	333.366
2000	299.416