File: Example Data/Raman/Kara/12-20-10/Si-Graphene/8bulk/SGbulk_3.txt
100	139.789
102.559	139.001
105.117	139.865
107.676	161.174
110.235	169.804
112.793	181.756
115.352	193.301
117.91	201.955
120.469	206.4
123.028	217.923
125.586	225.025
128.145	234.526
130.704	245.253
133.262	249.848
135.821	252.092
138.38	258.184
140.938	253.236
143.497	241.8
146.055	242.012
148.614	248.432
151.173	245.629
153.731	239.371
156.29	233.352
158.849	230.382
161.407	237.779
163.966	234.005
166.525	234.555
169.083	237.466
171.642	233.9
174.2	230.038
176.759	225.365
179.318	222.731
181.876	221.151
184.435	217.955
186.994	208.441
189.552	195.005
192.111	191.931
194.67	195.194
197.228	194.67
199.787	173.854
202.345	167.586
204.904	149.271
207.463	131.06
210.021	122.7
212.58	119.143
215.139	115.897
217.697	113.597
220.256	112.994
222.814	114.006
225.373	115.691
227.932	121.518
230.49	122.926
233.049	123.796
235.608	129.851
238.166	143.978
240.725	133.436
243.284	130.566
245.842	132.086
248.401	132.228
250.959	130.357
253.518	147.734
256.077	144.737
258.635	146.872
261.194	152.531
263.753	158.001
266.311	161.578
268.87	156.749
271.429	158.713
273.987	164.093
276.546	168.5
279.104	167.979
281.663	165.21
284.222	163.967
286.78	166.655
289.339	171.092
291.898	174.564
294.456	176.686
297.015	182.667
299.574	180.401
302.132	181.483
304.691	185.608
307.249	180.038
309.808	180.855
312.367	184.094
314.925	182.854
317.484	182.776
320.043	187.66
322.601	178.982
325.16	181.607
327.719	182.833
330.277	184.044
332.836	184.85
335.394	182.038
337.953	178.76
340.512	176.432
343.07	174.299
345.629	173.064
348.188	175.691
350.746	190.133
353.305	182.652
355.864	180.158
358.422	179.232
360.981	179.194
363.539	181.436
366.098	172.553
368.657	169.395
371.215	172.694
373.774	178.225
376.333	182.096
378.891	183.494
381.45	192.392
384.009	193.806
386.567	181.379
389.126	172.355
391.684	180.787
394.243	174.352
396.802	174.468
399.36	170.481
401.919	174.617
404.478	179.275
407.036	166.081
409.595	158.973
412.154	170.725
414.712	166.295
417.271	165.578
419.829	178.569
422.388	190.646
424.947	191.474
427.505	198.06
430.064	204.195
432.623	209.569
435.181	218.684
437.74	239.935
440.298	246.403
442.857	245.166
445.416	252.394
447.974	264.36
450.533	271.933
453.092	272.597
455.65	285.679
458.209	312.51
460.768	323.335
463.326	319.929
465.885	319.25
468.444	334.72
471.002	348.734
473.561	344.782
476.119	341.869
478.678	346.777
481.237	354.092
483.795	346.756
486.354	337.464
488.913	334.62
491.471	322.291
494.03	307.689
496.589	298.279
499.147	269.218
501.706	249.699
504.264	239.411
506.823	226.122
509.382	206.295
511.94	185.104
514.499	175.579
517.058	169.22
519.616	149.612
522.175	134.849
524.733	126.957
527.292	119.151
529.851	103.239
532.409	98.0424
534.968	93.1254
537.527	81.1187
540.085	72.8559
542.644	72.8115
545.203	69.6269
547.761	64.2538
550.32	63.0099
552.878	62.4534
555.437	63.5373
557.996	66.1235
560.554	67.6645
563.113	63.1204
565.672	63.5819
568.23	64.4234
570.789	62.1028
573.348	60.2891
575.906	63.0509
578.465	62.2079
581.023	66.0396
583.582	62.5991
586.141	58.3076
588.699	58.242
591.258	60.884
593.817	57.5664
596.375	60.269
598.934	70.2321
601.493	67.2729
604.051	61.6798
606.61	59.7032
609.168	58.4487
611.727	58.7869
614.286	56.1972
616.844	57.3146
619.403	59.8191
621.962	61.6824
624.52	60.28
627.079	53.0408
629.638	61.0092
632.196	62
634.755	57.5136
637.313	54.4877
639.872	54.1407
642.431	52.5106
644.989	49.4538
647.548	55.2371
650.107	56.81
652.665	52.3077
655.224	50.8065
657.783	56.1213
660.341	58.8408
662.9	49.1418
665.458	51.8583
668.017	53.5647
670.576	50.5784
673.134	48.5665
675.693	52.3702
678.252	55.1972
680.81	47.5249
683.369	51.0999
685.927	50.9117
688.486	45.8771
691.045	45.7819
693.603	54.8246
696.162	48.7622
698.721	46.8818
701.279	49.0698
703.838	50.3487
706.397	51.036
708.955	48.3957
711.514	42.042
714.073	50.4022
716.631	51.0869
719.19	52.0582
721.748	51.7139
724.307	50.8573
726.866	50.3429
729.424	49.7143
731.983	46.8004
734.542	49.0316
737.1	55.5593
739.659	53.8626
742.217	52.5328
744.776	54.8
747.335	54.6488
749.893	53.8432
752.452	57.2803
755.011	56.4859
757.569	55.2915
760.128	54.4395
762.687	56.3643
765.245	60.0508
767.804	52.7403
770.362	56.3589
772.921	51.5062
775.48	54.9922
778.038	56.5666
780.597	58.1606
783.156	62.8313
785.714	56.2746
788.273	59.7276
790.832	57.1365
793.39	65.2329
795.949	68.3352
798.507	61.499
801.066	55.1172
803.625	61.8368
806.183	60.6259
808.742	61.1081
811.301	60.7727
813.859	59.7909
816.418	58.2234
818.977	56.0697
821.535	54.9886
824.094	59.8681
826.652	65.2468
829.211	61.7542
831.77	59.4382
834.328	59.5189
836.887	62.1851
839.446	64.5503
842.004	63.4681
844.563	74.2465
847.122	63.2646
849.68	62.9967
852.239	69.3175
854.797	68.0796
857.356	62.8712
859.915	64.1588
862.473	64.4599
865.032	69.6873
867.591	65.5782
870.149	69.4333
872.708	66.538
875.267	62.1656
877.825	62.5807
880.384	65.9469
882.942	70.4911
885.501	58.6233
888.06	55.3651
890.618	60.8474
893.177	62.9265
895.736	60.4366
898.294	59.8224
900.853	63.6266
903.411	61.0005
905.97	65.0265
908.529	60.4753
911.087	57.5919
913.646	60.0761
916.205	61.2799
918.763	58.6026
921.322	57.3403
923.881	57.8219
926.439	54.8393
928.998	55.4071
931.557	53.2715
934.115	54.3388
936.674	53.2654
939.232	52.358
941.791	57.3624
944.35	55.1637
946.908	50.24
949.467	47.992
952.026	47.3132
954.584	47.3194
957.143	45.2043
959.701	44.2322
962.26	44.8862
964.819	39.1126
967.377	41.4055
969.936	44.7576
972.495	42.5975
975.053	42.3183
977.612	42.3878
980.171	43.4396
982.729	43.659
985.288	38.7794
987.846	33.6558
990.405	40.0172
992.964	39.4026
995.522	33.6164
998.081	31.6401
1000.64	33.0616
1003.2	35.7342
1005.76	36.6675
1008.32	33.2262
1010.87	35.7005
1013.43	32.5094
1015.99	27.876
1018.55	28.3129
1021.11	30.2647
1023.67	30.5528
1026.23	31.3399
1028.78	32.7724
1031.34	27.9982
1033.9	26.6029
1036.46	26.7807
1039.02	27.7507
1041.58	26.3644
1044.14	24.3438
1046.7	20.7278
1049.25	18.3015
1051.81	21.3832
1054.37	26.1586
1056.93	20.6577
1059.49	22.9744
1062.05	23.683
1064.61	21.1523
1067.16	19.4115
1069.72	17.4611
1072.28	15.0528
1074.84	15.8227
1077.4	20.4457
1079.96	15.3262
1082.52	14.0756
1085.07	14
1087.63	10.9174
1090.19	9.67435
1092.75	9.07699
1095.31	10.6898
1097.87	12.5357
1100.43	10.1165
1102.99	10.1559
1105.54	13.1979
1108.1	7.45986
1110.66	13.6257
1113.22	11.8107
1115.78	9.26026
1118.34	9.37586
1120.9	10.2
1123.45	9.47038
1126.01	7.42152
1128.57	6.52294
1131.13	5.6241
1133.69	8.40007
1136.25	6.94137
1138.81	8.1526
1141.36	9.57397
1143.92	9.2414
1146.48	7.35126
1149.04	5.7101
1151.6	6.73993
1154.16	9.59665
1156.72	2.56529
1159.28	7.33102
1161.83	6.90444
1164.39	5.23036
1166.95	4.83493
1169.51	7.05978
1172.07	7.23095
1174.63	4.85364
1177.19	6.07895
1179.74	5.09265
1182.3	7.58711
1184.86	6.32104
1187.42	3.74548
1189.98	5.94948
1192.54	8.13199
1195.1	5.37836
1197.65	5.66044
1200.21	8.55167
1202.77	5.64258
1205.33	3.68012
1207.89	2.25534
1210.45	5.70183
1213.01	5.6236
1215.57	5.44208
1218.12	7.63312
1220.68	3.99064
1223.24	5.42944
1225.8	7.48052
1228.36	5.93335
1230.92	8.6
1233.48	8.41642
1236.03	7.27369
1238.59	5.45392
1241.15	5.57676
1243.71	6.39483
1246.27	3.2105
1248.83	3.40607
1251.39	7.68317
1253.94	8.65688
1256.5	3.72228
1259.06	1.01273
1261.62	6.03589
1264.18	6.10739
1266.74	5.20599
1269.3	6.11972
1271.85	6.53347
1274.41	7.04903
1276.97	5.47608
1279.53	8.76028
1282.09	10.4201
1284.65	8.2649
1287.21	7.26487
1289.77	7.88031
1292.32	9.86898
1294.88	11.8432
1297.44	4.87695
1300	5.88812
1302.56	9.29795
1305.12	7.62546
1307.68	11.1573
1310.23	10.9708
1312.79	10.989
1315.35	14.2137
1317.91	12.1826
1320.47	7.20251
1323.03	14.4666
1325.59	7.76315
1328.15	13.2373
1330.7	15.6311
1333.26	9.29809
1335.82	11.6175
1338.38	10.3656
1340.94	13.9883
1343.5	17.7758
1346.06	18.1355
1348.61	16.5168
1351.17	14.1194
1353.73	13.2975
1356.29	16.1301
1358.85	18.4746
1361.41	12.4064
1363.97	14.0701
1366.52	14.0295
1369.08	12.7557
1371.64	10.5724
1374.2	13.3181
1376.76	16.3969
1379.32	14.8015
1381.88	12.6059
1384.43	11.205
1386.99	7.30385
1389.55	8.53296
1392.11	12.4405
1394.67	11.0824
1397.23	8.48465
1399.79	7.86131
1402.35	6.14655
1404.9	4.74239
1407.46	4.94782
1410.02	7.04242
1412.58	6.89457
1415.14	5.23129
1417.7	6.13579
1420.26	7.93129
1422.81	6.62831
1425.37	5.71813
1427.93	5.96871
1430.49	4.4718
1433.05	5.59048
1435.61	4.30557
1438.17	4.54273
1440.72	7.75912
1443.28	0.0672768
1445.84	1.65991
1448.4	6.79879
1450.96	5.87115
1453.52	4.31843
1456.08	6.34542
1458.64	5.76082
1461.19	2.07551
1463.75	3.51983
1466.31	4.27106
1468.87	5.89979
1471.43	4.60318
1473.99	4.97784
1476.55	2.35542
1479.1	1.50876
1481.66	5.0298
1484.22	1.06124
1486.78	0.31838
1489.34	0.62904
1491.9	4.07508
1494.46	4.65644
1497.01	3.05174
1499.57	6.46886
1502.13	5.82482
1504.69	4.63353
1507.25	3.43435
1509.81	0.253678
1512.37	0.929623
1514.93	4.88215
1517.48	0.97879
1520.04	-4.02028
1522.6	-2.2462
1525.16	1.51175
1527.72	4.10386
1530.28	3.79718
1532.84	4.45495
1535.39	5.4
1537.95	5.4
1540.51	4.43419
1543.07	3.69437
1545.63	3.77252
1548.19	0.324782
1550.75	0.485757
1553.3	7.66431
1555.86	5.44519
1558.42	6.07845
1560.98	9.48667
1563.54	8.13514
1566.1	6.79197
1568.66	7.57257
1571.22	7.64833
1573.77	7.4587
1576.33	9.75777
1578.89	4.60124
1581.45	4.71371
1584.01	9.50685
1586.57	10.7096
1589.13	9.71493
1591.68	10.5876
1594.24	12.9019
1596.8	8.03448
1599.36	6.22778
1601.92	9.60372
1604.48	6.33458
1607.04	5.70257
1609.59	4.30339
1612.15	11.5417
1614.71	8.12277
1617.27	5.70645
1619.83	6.06089
1622.39	4.63941
1624.95	3.9063
1627.51	4.21328
1630.06	2.46847
1632.62	0.20169
1635.18	1.06309
1637.74	3.31788
1640.3	2.4288
1642.86	0.822547
1645.42	-1.02724
1647.97	-3.52046
1650.53	-0.071606
1653.09	0.74795
1655.65	-1.18525
1658.21	-2.36346
1660.77	3.12658
1663.33	5.0627
1665.88	1.39133
1668.44	1.19049
1671	-2.26399
1673.56	-3.32271
1676.12	-4.28292
1678.68	-2.54458
1681.24	-0.913401
1683.8	-4.12205
1686.35	-2.87321
1688.91	2.82102
1691.47	-0.208467
1694.03	-1.89577
1696.59	-0.162661
1699.15	-2.95959
1701.71	-3.38599
1704.26	-1.7327
1706.82	-2.88605
1709.38	-3.868
1711.94	-3.40517
1714.5	-0.264815
1717.06	-0.28428
1719.62	-1.42543
1722.17	-4.36515
1724.73	0.709751
1727.29	2.88056
1729.85	-1.65019
1732.41	1.98387
1734.97	-2.23763
1737.53	0.538805
1740.09	-2.17159
1742.64	-2.77489
1745.2	-0.946479
1747.76	0.991343
1750.32	-1.0486
1752.88	2.10414
1755.44	-0.41639
1758	-5.84486
1760.55	-4.51985
1763.11	0.121113
1765.67	-0.597557
1768.23	1.29505
1770.79	1.16334
1773.35	-1.48469
1775.91	1.07374
1778.46	2.4886
1781.02	-0.677828
1783.58	-1.12173
1786.14	1.61246
1788.7	1.67928
1791.26	-1.07732
1793.82	-1.27778
1796.38	-0.654342
1798.93	-3.26775
1801.49	-2.96047
1804.05	-1.82616
1806.61	-1.93102
1809.17	-3.4
1811.73	-2.69944
1814.29	-0.866166
1816.84	-2.77035
1819.4	0.68811
1821.96	-1.63425
1824.52	1.30193
1827.08	-5.704
1829.64	-0.70929
1832.2	-4.96421
1834.75	0.181469
1837.31	-0.615241
1839.87	-5.71199
1842.43	-1.17557
1844.99	1.83242
1847.55	-5.58607
1850.11	-2.75572
1852.67	-7.01741
1855.22	0.22867
1857.78	-0.816701
1860.34	-1.2
1862.9	0.435809
1865.46	-2.56628
1868.02	0.211035
1870.58	-2.48945
1873.13	-1.79258
1875.69	-1.79001
1878.25	-1.71098
1880.81	-1.88303
1883.37	-5.18867
1885.93	-3.61313
1888.49	-2.59899
1891.04	-3.06068
1893.6	-3.9659
1896.16	-2.77419
1898.72	-2.78067
1901.28	-3.52008
1903.84	-3.48233
1906.4	-1.66956
1908.96	-0.739359
1911.51	-0.556255
1914.07	-1.94102
1916.63	-0.73124
1919.19	1.07661
1921.75	-1.35079
1924.31	-0.781135
1926.87	-1.0738
1929.42	-0.879937
1931.98	0.191776
1934.54	-2.28197
1937.1	-1.39868
1939.66	0.454429
1942.22	-0.0730685
1944.78	-1.31192
1947.33	-1.2
1949.89	-0.94338
1952.45	0.0750069
1955.01	2.4993
1957.57	3.86027
1960.13	0.607489
1962.69	-4.20606
1965.25	-3.89916
1967.8	0.299837
1970.36	-0.118818
1972.92	-1.26428
1975.48	-1.99654
1978.04	-2.88405
1980.6	-3.28037
1983.16	-2.48874
1985.71	-2.85591
1988.27	-3.15888
1990.83	-0.794231
1993.39	0.362356
1995.95	-0.67968
1998.51	-4.25346
2001.07	-3.7173
2003.62	-1.6062
2006.18	0.477916
2008.74	0.663904
2011.3	0.0871791
2013.86	-1.02788
2016.42	-3.49898
2018.98	-2.82835
2021.54	-2.43518
2024.09	-3.50161
2026.65	-2.82221
2029.21	0.740678
2031.77	1.02683
2034.33	-1.27098
2036.89	-1.74464
2039.45	-1.32681
2042	-1.00201
2044.56	-0.671971
2047.12	1.04979
2049.68	0.618376
2052.24	2.42272
2054.8	0.314485
2057.36	-1.06699
2059.91	-0.22539
2062.47	-2.50553
2065.03	-2.62635
2067.59	-3.64477
2070.15	-4.74502
2072.71	-4.31318
2075.27	-2.29524
2077.83	-0.25311
2080.38	-0.66144
2082.94	-2.13035
2085.5	-2.12192
2088.06	-2.94141
2090.62	-3.93893
2093.18	-3.98693
2095.74	-0.6428
2098.29	-0.483162
2100.85	-1.99425
2103.41	-3.28008
2105.97	-2.41341
2108.53	-3.32911
2111.09	-0.083433
2113.65	0.0773497
2116.2	-0.58428
2118.76	-0.279163
2121.32	2.01119
2123.88	-1.07379
2126.44	-0.667785
2129	-2.61997
2131.56	-1.08633
2134.12	-3.44645
2136.67	-1.87963
2139.23	0.672781
2141.79	-2.28692
2144.35	-4.02619
2146.91	-1.46907
2149.47	-2.35795
2152.03	-3.17866
2154.58	1.84471
2157.14	-3.37913
2159.7	1.42821
2162.26	2.26082
2164.82	0.673812
2167.38	-1.0524
2169.94	-1.9063
2172.49	-0.962425
2175.05	1.29329
2177.61	-0.368213
2180.17	-1.49652
2182.73	-2.67436
2185.29	-2.49006
2187.85	0.363808
2190.41	0.697935
2192.96	-2.29864
2195.52	-1.52379
2198.08	0.205217
2200.64	-2.78767
2203.2	-1.36787
2205.76	0.349098
2208.32	-0.0662288
2210.87	-0.746076
2213.43	0.643862
2215.99	-0.563189
2218.55	0.172696
2221.11	-1.02817
2223.67	-0.489701
2226.23	-0.0201086
2228.78	-1.57743
2231.34	0.535087
2233.9	4.14318
2236.46	-1.42114
2239.02	1.85045
2241.58	2.82235
2244.14	2.3955
2246.7	1.35842
2249.25	0.53015
2251.81	1.42624
2254.37	1.01756
2256.93	2.06548
2259.49	3.20311
2262.05	2.29744
2264.61	2.1307
2267.16	-0.363451
2269.72	1.80885
2272.28	0.895064
2274.84	0.833835
2277.4	1.51268
2279.96	2.34555
2282.52	0.0172046
2285.07	2.63511
2287.63	1.35294
2290.19	-1.12367
2292.75	0.321474
2295.31	0.766504
2297.87	1.31349
2300.43	1.57133
2302.99	1.48131
2305.54	2.98121
2308.1	3.16572
2310.66	4.79549
2313.22	4.60192
2315.78	5.70923
2318.34	5.86859
2320.9	3.20905
2323.45	4.35378
2326.01	5.25904
2328.57	6.99326
2331.13	7.40637
2333.69	13.3837
2336.25	23.093
2338.81	19.8605
2341.36	8.97849
2343.92	4.29489
2346.48	1.63138
2349.04	2.23448
2351.6	3.94062
2354.16	4.08906
2356.72	2.07209
2359.28	2.35783
2361.83	1.63273
2364.39	4.38055
2366.95	4.37891
2369.51	5.54652
2372.07	1.88613
2374.63	7.47198
2377.19	0.0259944
2379.74	5.19114
2382.3	5.91674
2384.86	5.33611
2387.42	2.18171
2389.98	4.41275
2392.54	5.26604
2395.1	4.90604
2397.65	4.72222
2400.21	5.61915
2402.77	8.415
2405.33	8.48663
2407.89	5.82788
2410.45	5.80075
2413.01	9.41494
2415.56	8.70735
2418.12	8.08839
2420.68	10.0972
2423.24	9.68932
2425.8	11.7238
2428.36	15.2698
2430.92	18.0126
2433.48	19.6174
2436.03	25.8567
2438.59	28.2322
2441.15	29.794
2443.71	28.0056
2446.27	24.1025
2448.83	25.4509
2451.39	19.7952
2453.94	19.1188
2456.5	16.6394
2459.06	14.7143
2461.62	14.0214
2464.18	11.4849
2466.74	11.1838
2469.3	13.2622
2471.85	8.16737
2474.41	11.5182
2476.97	10.3077
2479.53	9.31032
2482.09	9.77851
2484.65	10.6248
2487.21	9.75279
2489.77	9.98092
2492.32	10.2169
2494.88	11.5634
2497.44	11.0365
2500	10.2572
2502.56	8.6418
2505.12	7.3274
2507.68	10.3339
2510.23	12.091
2512.79	10.5585
2515.35	12.7837
2517.91	9.24674
2520.47	11.3386
2523.03	8.90381
2525.59	10.6993
2528.15	13.9911
2530.7	13.4314
2533.26	8.81678
2535.82	9.66537
2538.38	13.027
2540.94	10.5546
2543.5	10.9216
2546.06	7.4504
2548.61	11.3254
2551.17	9.65282
2553.73	10.7805
2556.29	10.1055
2558.85	8.69259
2561.41	10.3126
2563.97	9.0587
2566.52	13.4817
2569.08	11.1305
2571.64	10.6304
2574.2	6.78832
2576.76	6.81897
2579.32	5.98124
2581.88	8.90593
2584.44	9.1135
2586.99	9.43131
2589.55	10.8947
2592.11	8.48591
2594.67	7.70766
2597.23	5.63853
2599.79	14.0056
2602.35	9.09138
2604.9	10.6154
2607.46	10.9275
2610.02	11.3056
2612.58	9.95374
2615.14	10.9089
2617.7	11.4075
2620.26	11.3851
2622.81	9.01218
2625.37	11.547
2627.93	8.72861
2630.49	11.7789
2633.05	10.9799
2635.61	8.30637
2638.17	13.8896
2640.72	8.45766
2643.28	9.93116
2645.84	9.06503
2648.4	10.829
2650.96	10.3406
2653.52	9.99098
2656.08	11.9946
2658.64	10.7647
2661.19	11.2496
2663.75	12.5169
2666.31	9.38378
2668.87	10.7144
2671.43	10.628
2673.99	12.6881
2676.55	11.8668
2679.1	10.9178
2681.66	11.4704
2684.22	12.7597
2686.78	14.3972
2689.34	13.2485
2691.9	14.9217
2694.46	14.5107
2697.01	7.36584
2699.57	15.1524
2702.13	9.439
2704.69	10.2247
2707.25	11.1235
2709.81	11.3681
2712.37	11.7437
2714.93	13.3219
2717.48	12.4627
2720.04	12.4706
2722.6	12.3755
2725.16	16.1223
2727.72	15.845
2730.28	11.2386
2732.84	14.0462
2735.39	15.0084
2737.95	13.8336
2740.51	16.1619
2743.07	15.8409
2745.63	15.5388
2748.19	14.0852
2750.75	12.6573
2753.3	12.4339
2755.86	13.7921
2758.42	10.847
2760.98	11.7513
2763.54	16.3067
2766.1	16.8803
2768.66	14.2744
2771.22	12.4797
2773.77	12.0062
2776.33	11.8863
2778.89	11.3416
2781.45	12.5755
2784.01	13.208
2786.57	12.9116
2789.13	14.3914
2791.68	14.6084
2794.24	13.0612
2796.8	14.4787
2799.36	16.4699
2801.92	12.294
2804.48	14.5467
2807.04	11.331
2809.59	15.7681
2812.15	12.543
2814.71	12.2807
2817.27	14.4998
2819.83	13.5423
2822.39	14.2097
2824.95	17.191
2827.51	13.2435
2830.06	12.7403
2832.62	10.3983
2835.18	14.2494
2837.74	11.9624
2840.3	11.6781
2842.86	11.5354
2845.42	11.3279
2847.97	13.1784
2850.53	14.2895
2853.09	13.7267
2855.65	13.0172
2858.21	13.2287
2860.77	11.0874
2863.33	11.1802
2865.88	12.5195
2868.44	15.7349
2871	13.9246
2873.56	16.3847
2876.12	12.5574
2878.68	15.7561
2881.24	16.0965
2883.8	12.8306
2886.35	10.186
2888.91	12.759
2891.47	12.9013
2894.03	6.69204
2896.59	10.9204
2899.15	9.37581
2901.71	12.7368
2904.26	17.0348
2906.82	15.9241
2909.38	14.2738
2911.94	15.4751
2914.5	16.4161
2917.06	13.2349
2919.62	17.1444
2922.17	13.3893
2924.73	14.224
2927.29	15.9769
2929.85	16.0712
2932.41	15.9893
2934.97	13.9849
2937.53	13.9726
2940.09	16.1242
2942.64	15.0197
2945.2	12.4699
2947.76	12.6394
2950.32	14.2007
2952.88	11.7822
2955.44	18.4865
2958	19.7982
2960.55	16.6871
2963.11	16.6636
2965.67	14.3355
2968.23	16.1529
2970.79	14.8529
2973.35	16.1648
2975.91	19.612
2978.46	16.6711
2981.02	13.8611
2983.58	12.884
2986.14	14.5837
2988.7	16.4917
2991.26	15.9893
2993.82	13.7096
2996.38	15.4859
2998.93	10.2982
3001.49	15.3203
3004.05	16.6854
3006.61	14.427
3009.17	17.5022
3011.73	17.1458
3014.29	14.1133
3016.84	16.6611
3019.4	12.1912
3021.96	15.2957
3024.52	14.827
3027.08	14.6628
3029.64	15.747
3032.2	13.6757
3034.75	16.6008
3037.31	19.4168
3039.87	15.3495
3042.43	10.8569
3044.99	12.3775
3047.55	11.5814
3050.11	9.48906
3052.67	12.7737
3055.22	12.7216
3057.78	15.5448
3060.34	9.84095
3062.9	10.298
3065.46	12.4659
3068.02	15.3247
3070.58	12.603
3073.13	13.5549
3075.69	12.2857
3078.25	12.7419
3080.81	14.6044
3083.37	13.0532
3085.93	13.8465
3088.49	13.67
3091.04	11.6888
3093.6	16.7181
3096.16	11.1856
3098.72	13.2248
3101.28	16.2974
3103.84	12.3576
3106.4	16.7824
3108.96	16.1566
3111.51	14.5393
3114.07	13.5923
3116.63	16.8753
3119.19	14.234
3121.75	15.9573
3124.31	9.88394
3126.87	16.3138
3129.42	13.836
3131.98	13.1401
3134.54	13.159
3137.1	13.9884
3139.66	17.1196
3142.22	9.11732
3144.78	11.4023
3147.33	13.9566
3149.89	17.1988
3152.45	13.9884
3155.01	16.0709
3157.57	17.7827
3160.13	14.398
3162.69	13.6689
3165.25	16.3362
3167.8	17.5886
3170.36	14.2428
3172.92	15.441
3175.48	19.9687
3178.04	18.3164
3180.6	16.2227
3183.16	20.2752
3185.71	16.4169
3188.27	11.8852
3190.83	15.3474
3193.39	15.8571
3195.95	18.5197
3198.51	17.8599
3201.07	18.1002
3203.62	22.5995
3206.18	19.7642
3208.74	14.5512
3211.3	14.3011
3213.86	18.456
3216.42	15.1905
3218.98	14.9176
3221.54	18.7798
3224.09	18.1596
3226.65	18.1977
3229.21	17.811
3231.77	16.9734
3234.33	16.5225
3236.89	13.8247
3239.45	15.5328
3242	19.6287
3244.56	18.0515
3247.12	19.5544
3249.68	19.6766
3252.24	15.8912
3254.8	16.835
3257.36	17.6793
3259.91	16.735
3262.47	17.0101
3265.03	19.6812
3267.59	18.2917
3270.15	20.6475
3272.71	18.8453
3275.27	19.7893
3277.83	15.6508
3280.38	15.3963
3282.94	17.3159
3285.5	19.2917
3288.06	18.6866
3290.62	15.9595
3293.18	16.2828
3295.74	19.6473
3298.29	19.8855
3300.85	18.9941
3303.41	18.5642
3305.97	20.4857
3308.53	19.2414
3311.09	18.8701
3313.65	20.2542
3316.2	20.9257
3318.76	23.758
3321.32	20.3337
3323.88	16.1571
3326.44	18.8979
3329	18.196
3331.56	16.6371
3334.12	19.1692
3336.67	20.1862
3339.23	16.7119
3341.79	22.4132
3344.35	19.3907
3346.91	19.777
3349.47	16.282
3352.03	16.423
3354.58	15.6814
3357.14	18.0808
3359.7	17.6049
3362.26	19.9439
3364.82	20.536
3367.38	20.0467
3369.94	19.264
3372.49	19.0539
3375.05	19.4897
3377.61	19.8104
3380.17	27.3865
3382.73	20.8251
3385.29	17.7998
3387.85	19.2291
3390.41	20.3834
3392.96	25.5213
3395.52	16.1565
3398.08	16.6579
3400.64	18.1899
3403.2	16.62
3405.76	27.2488
3408.32	17.614
3410.87	16.616
3413.43	20.2958
3415.99	21.9327
3418.55	19.4785
3421.11	21.6058
3423.67	21.334
3426.23	20.388
3428.78	21.9082
3431.34	23.3187
3433.9	18.7328
3436.46	20.1373
3439.02	20.1535
3441.58	21.3461
3444.14	21.0796
3446.7	18.8666
3449.25	18.1622
3451.81	18.3853
3454.37	25.7818
3456.93	20.5826
3459.49	25.3814
3462.05	21.3321
3464.61	21.631
3467.16	22.4032
3469.72	23.4213
3472.28	23.0423
3474.84	16.0944
3477.4	19.7316
3479.96	23.1893
3482.52	22.2045
3485.07	24.193
3487.63	25.8852
3490.19	21.0967
3492.75	22.865
3495.31	20.9283
3497.87	19.8445
3500.43	22.3477
3502.99	19.0463
3505.54	25.8244
3508.1	22.1233
3510.66	23.0824
3513.22	24.5278
3515.78	21.2146
3518.34	22.9178
3520.9	22.7506
3523.45	23.1416
3526.01	20.845
3528.57	21.0043
3531.13	23.2424
3533.69	20.6449
3536.25	22.856
3538.81	22.7943
3541.36	22.9402
3543.92	21.017
3546.48	22.8411
3549.04	28.0434
3551.6	23.9631
3554.16	22.1624
3556.72	22.5341
3559.28	21.9492
3561.83	26.0319
3564.39	20.1847
3566.95	23.7855
3569.51	22.1586
3572.07	19.2958
3574.63	23.9102
3577.19	20.813
3579.74	24.7756
3582.3	21.9755
3584.86	26.4485
3587.42	24.304
3589.98	25.3112
3592.54	20.1789
3595.1	20.9172
3597.65	22.8347
3600.21	24.0502
3602.77	20.7927
3605.33	23.4747
3607.89	20.2991
3610.45	24.9205
3613.01	25.9409
3615.56	20.609
3618.12	22.0696
3620.68	24.0874
3623.24	24.4154
3625.8	27.1425
3628.36	23.5925
3630.92	26.6757
3633.48	21.6002
3636.03	22.3824
3638.59	28.6574
3641.15	20.1491
3643.71	25.2344
3646.27	24.5377
3648.83	20.8885
3651.39	24.8375
3653.94	26.1455
3656.5	27.5114
3659.06	21.8655
3661.62	25.0302
3664.18	24.9072
3666.74	24.1066
3669.3	20.0436
3671.85	22.9458
3674.41	23.0848
3676.97	23.1337
3679.53	26.4941
3682.09	28.5299
3684.65	27.2713
3687.21	24.6097
3689.77	23.8487
3692.32	21.7924
3694.88	27.8146
3697.44	27.4367
3700	28.61