File: Example Data/Raman/Kara/12-20-10/Si-Graphene/8bulk/SGbulk_2.txt
100	61.3971
102.559	64.8888
105.117	62.9639
107.676	68.6289
110.235	70.0674
112.793	83.306
115.352	92.3939
117.91	94.1422
120.469	95.3335
123.028	91.4923
125.586	98.712
128.145	105.461
130.704	108.491
133.262	111.147
135.821	118.039
138.38	120.593
140.938	119.003
143.497	113.173
146.055	103.628
148.614	110.529
151.173	109.093
153.731	105.747
156.29	103.695
158.849	103.801
161.407	99.9414
163.966	108.162
166.525	107.832
169.083	100.621
171.642	97.3872
174.2	92.0767
176.759	90.7965
179.318	90.6955
181.876	94.649
184.435	103.727
186.994	97.5994
189.552	95.2582
192.111	91.0486
194.67	87.4114
197.228	85.3988
199.787	74.7488
202.345	67.1788
204.904	60.0203
207.463	57.193
210.021	58.7317
212.58	55.3362
215.139	53.0278
217.697	43.2809
220.256	41.9181
222.814	48.9878
225.373	45.8656
227.932	50.0739
230.49	51.3791
233.049	52.5726
235.608	52.6382
238.166	49.6048
240.725	54.7948
243.284	56.1483
245.842	57.2941
248.401	57.0907
250.959	54.1699
253.518	51.2465
256.077	55.6116
258.635	54.641
261.194	58.1354
263.753	67.418
266.311	66.6049
268.87	70.8043
271.429	69.4342
273.987	70.5326
276.546	73.5493
279.104	72.943
281.663	74.7349
284.222	68.335
286.78	67.9462
289.339	73.7092
291.898	80.2362
294.456	78.1142
297.015	79.8528
299.574	81.8115
302.132	84.1751
304.691	86.1558
307.249	85.6699
309.808	78.6436
312.367	75.9202
314.925	79.0252
317.484	82.3215
320.043	80.5472
322.601	78.9099
325.16	85.6712
327.719	81.9756
330.277	76.6757
332.836	74.6027
335.394	73.3699
337.953	76.8118
340.512	77.4
343.07	80.3017
345.629	80.4422
348.188	75.6188
350.746	81.5272
353.305	80.233
355.864	82.5837
358.422	84.144
360.981	84.3962
363.539	86.0445
366.098	84.2349
368.657	77.2694
371.215	79.1248
373.774	83.3616
376.333	83.2599
378.891	79.9879
381.45	78.8343
384.009	80.1762
386.567	80.9038
389.126	79.1502
391.684	75.2182
394.243	74.0631
396.802	78.0571
399.36	77.5039
401.919	73.8111
404.478	69.5762
407.036	67.6181
409.595	71.7503
412.154	74.5576
414.712	72.1309
417.271	72.8064
419.829	78.5001
422.388	81.1205
424.947	83.2728
427.505	90.0603
430.064	97.5744
432.623	102.805
435.181	103.21
437.74	97.4356
440.298	108.713
442.857	114.585
445.416	120.749
447.974	124.194
450.533	122.766
453.092	123.597
455.65	131.216
458.209	140.705
460.768	144.898
463.326	147.442
465.885	153.581
468.444	158.904
471.002	161.125
473.561	165.759
476.119	161.823
478.678	157.599
481.237	162.741
483.795	162.407
486.354	148.86
488.913	147.749
491.471	148.606
494.03	142.73
496.589	128.092
499.147	114.397
501.706	121.939
504.264	112.801
506.823	102.26
509.382	93.2394
511.94	81.7077
514.499	64.2298
517.058	73.2667
519.616	68.1044
522.175	61.3115
524.733	52.9536
527.292	42.5842
529.851	38.0389
532.409	32.8424
534.968	33.686
537.527	33.5342
540.085	30.5202
542.644	24.9164
545.203	18.6898
547.761	25.742
550.32	25.1247
552.878	20.3252
555.437	20.0418
557.996	23.5349
560.554	22.081
563.113	21.0712
565.672	17.2468
568.23	15.452
570.789	18.7203
573.348	22.6317
575.906	21.8597
578.465	22.1968
581.023	22.3669
583.582	19.0122
586.141	17.0874
588.699	17.3105
591.258	18.4914
593.817	19.8183
596.375	23.3656
598.934	19.058
601.493	18.5717
604.051	16.7286
606.61	14.6353
609.168	18.4974
611.727	19.1737
614.286	15.2957
616.844	16.1146
619.403	17.3036
621.962	18.8706
624.52	20.28
627.079	16.525
629.638	15.1686
632.196	19.3067
634.755	20.5639
637.313	18.6462
639.872	15.9981
642.431	14.8369
644.989	13.8179
647.548	18.97
650.107	17.6765
652.665	15.6402
655.224	14.0334
657.783	13.4074
660.341	15.1139
662.9	12.2212
665.458	17.9735
668.017	15.6489
670.576	12.4224
673.134	12.6941
675.693	15.4696
678.252	16.3762
680.81	12.1138
683.369	12.05
685.927	12.2
688.486	12.0175
691.045	11.8619
693.603	12.2286
696.162	13.3897
698.721	12.8768
701.279	14.6887
703.838	14.5865
706.397	14.6104
708.955	16.2739
711.514	17.5172
714.073	12.4082
716.631	14.9758
719.19	16.5443
721.748	14.027
724.307	13.4276
726.866	15.3717
729.424	14.9429
731.983	15.7994
734.542	12.7102
737.1	16.0675
739.659	15.0716
742.217	12.9401
744.776	13.5925
747.335	16.2722
749.893	17.7611
752.452	14.6677
755.011	17.8504
757.569	17.4288
760.128	16.4704
762.687	18.231
765.245	19.9197
767.804	12.9269
770.362	16.2009
772.921	17.9613
775.48	16.7929
778.038	14.647
780.597	14.2916
783.156	16.1645
785.714	16.8137
788.273	16.9864
790.832	14.7728
793.39	15.6502
795.949	21.2131
798.507	20.7189
801.066	13.403
803.625	14.4601
806.183	13.4222
808.742	21.3595
811.301	18.5266
813.859	18.9962
816.418	18.0254
818.977	14.924
821.535	15.5178
824.094	17.147
826.652	20.0966
829.211	18.2215
831.77	22.3765
834.328	20.3786
836.887	17.2216
839.446	20.2996
842.004	23.3869
844.563	21.8223
847.122	19.5729
849.68	22.8288
852.239	21.9368
854.797	22.9137
857.356	23.7863
859.915	20.7073
862.473	23.5714
865.032	16.4274
867.591	25.171
870.149	19.0525
872.708	16.1874
875.267	18.19
877.825	20.4904
880.384	20.5607
882.942	16.3108
885.501	24.8626
888.06	22.5669
890.618	23.0095
893.177	24.0367
895.736	20.8732
898.294	16.9994
900.853	18.658
903.411	15.1046
905.97	17.2052
908.529	16.1291
911.087	14.7279
913.646	15.6196
916.205	17.3067
918.763	16.6259
921.322	14.628
923.881	20.159
926.439	16.1238
928.998	8.8589
931.557	13.2267
934.115	15.7749
936.674	16.2175
939.232	15.2094
941.791	12.1559
944.35	15.2
946.908	15.2
949.467	18.0446
952.026	13.0083
954.584	9.12819
957.143	7.7136
959.701	10.4077
962.26	14.0297
964.819	8.83282
967.377	11.9953
969.936	9.17256
972.495	10.1778
975.053	10.3408
977.612	7.33588
980.171	7.11386
982.729	10.4
985.288	9.25123
987.846	4.25322
990.405	7.78734
992.964	3.84404
995.522	4.14535
998.081	7.00134
1000.64	7.43548
1003.2	3.82807
1005.76	1.235
1008.32	5.74092
1010.87	7.7558
1013.43	6.33751
1015.99	2.67674
1018.55	4.68822
1021.11	5.54011
1023.67	6.67936
1026.23	5.88009
1028.78	1.10483
1031.34	1.25404
1033.9	4.37672
1036.46	2.95476
1039.02	1.53237
1041.58	1.3363
1044.14	-0.655529
1046.7	-2.75288
1049.25	-3.32985
1051.81	-2.62167
1054.37	-0.694823
1056.93	0.0399711
1059.49	1.64383
1062.05	-2.5473
1064.61	-0.394948
1067.16	-1.82498
1069.72	-3.89618
1072.28	-3.77585
1074.84	-2.76126
1077.4	-0.522873
1079.96	1.57858
1082.52	-5.56821
1085.07	-2.64149
1087.63	-6.40377
1090.19	-8.62827
1092.75	-6.28036
1095.31	-4.71949
1097.87	-6.31303
1100.43	-7.04176
1102.99	-7.32562
1105.54	-8.39869
1108.1	-4.81241
1110.66	-5.35242
1113.22	-3.1151
1115.78	-6.81617
1118.34	-8.74527
1120.9	-7.27655
1123.45	-6.61425
1126.01	-5.27821
1128.57	-8.30753
1131.13	-7.22892
1133.69	-5.62496
1136.25	-7.41351
1138.81	-7.46074
1141.36	-5.13371
1143.92	-7.39298
1146.48	-10.4764
1149.04	-9.15048
1151.6	-10.4591
1154.16	-9.6453
1156.72	-7.84238
1159.28	-7.09557
1161.83	-8.56509
1164.39	-8.17821
1166.95	-8.73973
1169.51	-7.24214
1172.07	-5.94514
1174.63	-7.87538
1177.19	-8.83948
1179.74	-8.01187
1182.3	-6.4442
1184.86	-10.785
1187.42	-9.72729
1189.98	-7.37407
1192.54	-6.6
1195.1	-7.56234
1197.65	-8.22376
1200.21	-6.40491
1202.77	-5.22428
1205.33	-10.664
1207.89	-10.6775
1210.45	-6.324
1213.01	-9.02241
1215.57	-7.8208
1218.12	-5.44602
1220.68	-7.26858
1223.24	-7.35183
1225.8	-6.47823
1228.36	-7.13333
1230.92	-8.05827
1233.48	-12.1717
1236.03	-9.62317
1238.59	-7.07548
1241.15	-8.59084
1243.71	-8.16413
1246.27	-7.43508
1248.83	-6.70582
1251.39	-9.36544
1253.94	-10.9401
1256.5	-9.67079
1259.06	-9.95995
1261.62	-10.2205
1264.18	-9.5667
1266.74	-11.1856
1269.3	-8.99268
1271.85	-9.13347
1274.41	-9.05032
1276.97	-10.3261
1279.53	-9.26655
1282.09	-9.37994
1284.65	-9.16644
1287.21	-8.03254
1289.77	-10.5039
1292.32	-9.3871
1294.88	-5.24911
1297.44	-8.36557
1300	-9.12541
1302.56	-5.90205
1305.12	-8.16817
1307.68	-8.80388
1310.23	-6.74915
1312.79	-4.60488
1315.35	-6.21156
1317.91	-8.26087
1320.47	-6.46513
1323.03	-8.89545
1325.59	-8.15597
1328.15	-5.8086
1330.7	-6.36103
1333.26	-7.76882
1335.82	-5.35921
1338.38	-5.71719
1340.94	-6.2
1343.5	-6.41685
1346.06	-6.13551
1348.61	-6.37373
1351.17	-5.0634
1353.73	-1.1669
1356.29	-6.71938
1358.85	-5.18408
1361.41	-5.00859
1363.97	-7.2268
1366.52	-9.1047
1369.08	-3.17856
1371.64	-2.66524
1374.2	-6.34115
1376.76	-7.97847
1379.32	-7.51218
1381.88	-7.60585
1384.43	-5.939
1386.99	-2.4904
1389.55	-6.04782
1392.11	-8.20502
1394.67	-9.8252
1397.23	-10.3819
1399.79	-10.9387
1402.35	-11.496
1404.9	-7.97392
1407.46	-6.11523
1410.02	-6.78263
1412.58	-7.83514
1415.14	-8.48435
1417.7	-8.23418
1420.26	-8.27046
1422.81	-10.1062
1425.37	-9.76996
1427.93	-7.66257
1430.49	-10.6803
1433.05	-8.81587
1435.61	-9.35476
1438.17	-12.6559
1440.72	-9.40906
1443.28	-6.80915
1445.84	-8.95833
1448.4	-10.4
1450.96	-12.814
1453.52	-13.1631
1456.08	-11.1576
1458.64	-11.2684
1461.19	-8.99229
1463.75	-4.23881
1466.31	-7.81685
1468.87	-9.37179
1471.43	-11.5841
1473.99	-9.71078
1476.55	-8.54217
1479.1	-8.4
1481.66	-9.76118
1484.22	-12.6999
1486.78	-12.0286
1489.34	-10.7716
1491.9	-9.47827
1494.46	-11.9926
1497.01	-13.8377
1499.57	-9.73443
1502.13	-10.136
1504.69	-11.1838
1507.25	-10.0466
1509.81	-12.2064
1512.37	-8.36666
1514.93	-13.4485
1517.48	-10.8583
1520.04	-10.2578
1522.6	-10.6788
1525.16	-7.98461
1527.72	-9.18743
1530.28	-9.69859
1532.84	-9.74226
1535.39	-10.7196
1537.95	-10.8505
1540.51	-10.2805
1543.07	-9.35844
1545.63	-8.27677
1548.19	-10.7327
1550.75	-11.4702
1553.3	-10.1033
1555.86	-10.3783
1558.42	-5.09976
1560.98	-0.744806
1563.54	-5.91013
1566.1	-7.09031
1568.66	-8.01047
1571.22	-11.5367
1573.77	-9.91531
1576.33	-8.53803
1578.89	-4.77806
1581.45	-3.7273
1584.01	-4.59895
1586.57	-5.5757
1589.13	-8.20691
1591.68	-8.30636
1594.24	-6.35229
1596.8	-9.15245
1599.36	-9.47667
1601.92	-8.71755
1604.48	-6.96014
1607.04	-5.09743
1609.59	-6.6789
1612.15	-12.2029
1614.71	-4.67782
1617.27	-5.3957
1619.83	-7.08701
1622.39	-11.7696
1624.95	-10.063
1627.51	-7.89791
1630.06	-12.2932
1632.62	-13.562
1635.18	-10.6043
1637.74	-11.4477
1640.3	-12.4017
1642.86	-9.36334
1645.42	-8.46192
1647.97	-11.3433
1650.53	-12.8955
1653.09	-12.0539
1655.65	-13.2623
1658.21	-8.46749
1660.77	-10.0261
1663.33	-11.7181
1665.88	-12.9133
1668.44	-11.0037
1671	-12.3471
1673.56	-10.37
1676.12	-15.1443
1678.68	-12.9325
1681.24	-7.73608
1683.8	-11.9596
1686.35	-12.4366
1688.91	-11.7245
1691.47	-14.7251
1694.03	-14.1915
1696.59	-11.0711
1699.15	-9.69213
1701.71	-11.7113
1704.26	-14.1731
1706.82	-13.0511
1709.38	-10.7633
1711.94	-10.8308
1714.5	-11.4056
1717.06	-11.405
1719.62	-12.0946
1722.17	-11.1559
1724.73	-10.8132
1727.29	-10.0306
1729.85	-10.5825
1732.41	-13.452
1734.97	-13.751
1737.53	-9.48305
1740.09	-13.1614
1742.64	-15.3079
1745.2	-12.249
1747.76	-12
1750.32	-12.173
1752.88	-10.6982
1755.44	-15.0638
1758	-12.4841
1760.55	-10.5066
1763.11	-8.7688
1765.67	-9.29878
1768.23	-10.3264
1770.79	-11.4813
1773.35	-12.6017
1775.91	-11.7372
1778.46	-11.7836
1781.02	-12.3922
1783.58	-11.5101
1786.14	-9.9606
1788.7	-10.4968
1791.26	-10.9912
1793.82	-9.15555
1796.38	-10.7816
1798.93	-14.0807
1801.49	-13.9791
1804.05	-10.1738
1806.61	-10.6
1809.17	-10.6968
1811.73	-10.9124
1814.29	-10.6
1816.84	-11.1877
1819.4	-13.3978
1821.96	-10.36
1824.52	-12.8855
1827.08	-13.925
1829.64	-17.1294
1832.2	-13.3135
1834.75	-15.6657
1837.31	-10.0029
1839.87	-10.9831
1842.43	-11.7707
1844.99	-10.8559
1847.55	-12.0952
1850.11	-13.4689
1852.67	-11.8241
1855.22	-10.7301
1857.78	-9.91794
1860.34	-12.1384
1862.9	-11.1278
1865.46	-13.3648
1868.02	-11.174
1870.58	-12.3985
1873.13	-11.4938
1875.69	-12.18
1878.25	-12.4555
1880.81	-12.2585
1883.37	-13.0318
1885.93	-11.9066
1888.49	-12.397
1891.04	-13.6517
1893.6	-14.6383
1896.16	-12.6238
1898.72	-13.4065
1901.28	-12.6385
1903.84	-13.2003
1906.4	-14.7154
1908.96	-12.877
1911.51	-11.5109
1914.07	-12.3617
1916.63	-12.4662
1919.19	-12.5234
1921.75	-13.2053
1924.31	-11.989
1926.87	-10.6
1929.42	-11.9627
1931.98	-13.4
1934.54	-13.682
1937.1	-12.429
1939.66	-11.6906
1942.22	-13.0894
1944.78	-11.7026
1947.33	-9.97364
1949.89	-11.2265
1952.45	-11.5875
1955.01	-10.5332
1957.57	-12.4795
1960.13	-13.6256
1962.69	-10.8348
1965.25	-10.9448
1967.8	-14.8596
1970.36	-14.0416
1972.92	-11.4559
1975.48	-13.0709
1978.04	-14.0358
1980.6	-12.6044
1983.16	-13.4245
1985.71	-13.0538
1988.27	-11.695
1990.83	-12.8948
1993.39	-10.9615
1995.95	-11.8508
1998.51	-11.4063
2001.07	-10.813
2003.62	-10.5832
2006.18	-12.4604
2008.74	-12.1082
2011.3	-11.0418
2013.86	-10.9889
2016.42	-12.2262
2018.98	-13.2361
2021.54	-12.8622
2024.09	-10.746
2026.65	-11.4016
2029.21	-10.2777
2031.77	-10.0594
2034.33	-10.8233
2036.89	-9.55154
2039.45	-11.4445
2042	-12.8814
2044.56	-11.0185
2047.12	-10.0238
2049.68	-11.2882
2052.24	-10.131
2054.8	-8.0479
2057.36	-9.22648
2059.91	-9.73844
2062.47	-9.08824
2065.03	-10.8208
2067.59	-13.1056
2070.15	-15.7335
2072.71	-13.57
2075.27	-9.58445
2077.83	-8.82205
2080.38	-11.3675
2082.94	-12.1039
2085.5	-9.40447
2088.06	-8.40735
2090.62	-10.0319
2093.18	-9.66952
2095.74	-9.74798
2098.29	-8.84955
2100.85	-11.7734
2103.41	-11.1844
2105.97	-9.69161
2108.53	-11.6544
2111.09	-12.7578
2113.65	-11.464
2116.2	-11.0253
2118.76	-11.2239
2121.32	-12.8587
2123.88	-12.0847
2126.44	-14.2651
2129	-8.84327
2131.56	-12.592
2134.12	-10.4448
2136.67	-11.0763
2139.23	-10.7289
2141.79	-11.3693
2144.35	-12.0668
2146.91	-9.65743
2149.47	-12.6061
2152.03	-9.54802
2154.58	-10.0143
2157.14	-9.44015
2159.7	-12.1807
2162.26	-11.8024
2164.82	-8.67722
2167.38	-9.93626
2169.94	-11.3606
2172.49	-11.4801
2175.05	-11.9259
2177.61	-10.8661
2180.17	-11.8979
2182.73	-10.811
2185.29	-11.8698
2187.85	-10.3118
2190.41	-10.5505
2192.96	-10.399
2195.52	-10.1577
2198.08	-10.8532
2200.64	-9.10374
2203.2	-9.50266
2205.76	-10.2993
2208.32	-10.5594
2210.87	-10.7482
2213.43	-11.462
2215.99	-11.9874
2218.55	-9.41903
2221.11	-10.4168
2223.67	-8.97236
2226.23	-9.93293
2228.78	-9.75314
2231.34	-9.32087
2233.9	-10.2643
2236.46	-9.53889
2239.02	-10.9556
2241.58	-8.73631
2244.14	-10.4448
2246.7	-8.2937
2249.25	-9.81223
2251.81	-12.5109
2254.37	-10.4472
2256.93	-9.08852
2259.49	-9.8457
2262.05	-10.5119
2264.61	-9.51499
2267.16	-9.64649
2269.72	-10.3295
2272.28	-7.1123
2274.84	-8.61705
2277.4	-9.28269
2279.96	-10.6198
2282.52	-11.231
2285.07	-9.9428
2287.63	-7.65675
2290.19	-8.79096
2292.75	-8.58524
2295.31	-8.30721
2297.87	-8.25075
2300.43	-9.17866
2302.99	-7.89583
2305.54	-8.99183
2308.1	-9.20823
2310.66	-8.07075
2313.22	-7.88895
2315.78	-8.77097
2318.34	-11.6314
2320.9	-5.93366
2323.45	-9.40463
2326.01	-8.6628
2328.57	-7.70757
2331.13	-7.26338
2333.69	-2.92318
2336.25	0.798566
2338.81	0.52797
2341.36	-3.93076
2343.92	-6.73781
2346.48	-6.41145
2349.04	-8.29574
2351.6	-7.18179
2354.16	-6.93747
2356.72	-7.30783
2359.28	-8.27956
2361.83	-7.86278
2364.39	-5.87165
2366.95	-8.28546
2369.51	-6.12518
2372.07	-9.5538
2374.63	-7.31531
2377.19	-7.82906
2379.74	-5.53612
2382.3	-5.66876
2384.86	-7.40957
2387.42	-8.83687
2389.98	-7.61132
2392.54	-5.84023
2395.1	-6.8608
2397.65	-8.11532
2400.21	-5.3949
2402.77	-3.53592
2405.33	-6.50485
2407.89	-7.99869
2410.45	-7.6862
2413.01	-6.31809
2415.56	-4.63942
2418.12	-4.8508
2420.68	-4.4452
2423.24	-3.48631
2425.8	-5.36011
2428.36	-2.38042
2430.92	-0.0807417
2433.48	3.42159
2436.03	4.58437
2438.59	3.98924
2441.15	7.44953
2443.71	6.82879
2446.27	5.47182
2448.83	3.93668
2451.39	2.20526
2453.94	0.131791
2456.5	-0.410635
2459.06	-1.65264
2461.62	-2.01366
2464.18	-1.5108
2466.74	-3.91025
2469.3	-2.99964
2471.85	-3.97854
2474.41	-3.28725
2476.97	-2.2357
2479.53	-2.29037
2482.09	-1.71534
2484.65	-2.97963
2487.21	-4.81857
2489.77	-4.50278
2492.32	-5.47537
2494.88	-3.06901
2497.44	-4.53526
2500	-4.02015
2502.56	-2.62182
2505.12	-5.92768
2507.68	-4.86779
2510.23	-3.49917
2512.79	-4.61264
2515.35	-4.40036
2517.91	-4.68422
2520.47	-3.67028
2523.03	-4.83127
2525.59	-2.33193
2528.15	-2.46128
2530.7	-3.74633
2533.26	-3.07587
2535.82	-3.25186
2538.38	-3.29113
2540.94	-1.9123
2543.5	-2.34312
2546.06	-3.56126
2548.61	-3.41095
2551.17	-3.0579
2553.73	-3.72774
2556.29	-5.39515
2558.85	-5.55056
2561.41	-5.85683
2563.97	-4.02915
2566.52	-2.67363
2569.08	-2.46631
2571.64	-4.59718
2574.2	-3.03088
2576.76	-2.36733
2579.32	-3.73598
2581.88	-5.11826
2584.44	-4.27419
2586.99	-2.90188
2589.55	-5.05485
2592.11	-4.25451
2594.67	-3.71196
2597.23	-3.55032
2599.79	-4.16791
2602.35	-0.712583
2604.9	-1.28309
2607.46	-2.01196
2610.02	-3.38957
2612.58	-5.26821
2615.14	-3.21734
2617.7	-1.96208
2620.26	-3.96118
2622.81	-3.5267
2625.37	-2.90508
2627.93	-3.08795
2630.49	-2.6436
2633.05	-0.346771
2635.61	-2.65693
2638.17	-3.65327
2640.72	-6.09604
2643.28	-2.26572
2645.84	-2.73228
2648.4	-4.64068
2650.96	-2.8815
2653.52	-2.68531
2656.08	-3.02906
2658.64	-1.60573
2661.19	-3.6304
2663.75	-3.87825
2666.31	-1.70617
2668.87	-1.86272
2671.43	-2.93307
2673.99	-2.12888
2676.55	-1.74127
2679.1	-0.692964
2681.66	-2.38839
2684.22	-0.0974585
2686.78	-0.837314
2689.34	-3.29729
2691.9	-2.02294
2694.46	-2.90667
2697.01	-2.69097
2699.57	-0.502175
2702.13	-1.44319
2704.69	-2.43851
2707.25	-3.86694
2709.81	-2.64593
2712.37	-2.53235
2714.93	-1.87767
2717.48	-0.363768
2720.04	-1.61357
2722.6	-1.86993
2725.16	-1.86801
2727.72	0.464564
2730.28	-3.33963
2732.84	-2.46206
2735.39	-2.52192
2737.95	-2.91149
2740.51	-1.97505
2743.07	-2.64758
2745.63	-0.448651
2748.19	-1.46303
2750.75	-1.81495
2753.3	-3.13017
2755.86	-0.706365
2758.42	-0.189726
2760.98	-2.50145
2763.54	-2.84233
2766.1	-1.46366
2768.66	-0.101096
2771.22	-3.79108
2773.77	-2.06137
2776.33	0.986477
2778.89	-0.0208463
2781.45	0.252082
2784.01	-1.21827
2786.57	-1.79909
2789.13	-1.48528
2791.68	-1.11475
2794.24	3.30944
2796.8	-1.51334
2799.36	-1.77439
2801.92	-2.55235
2804.48	-0.668675
2807.04	-0.837558
2809.59	-2.74292
2812.15	-1.8876
2814.71	-3.54537
2817.27	-0.390966
2819.83	1.33236
2822.39	-3.91435
2824.95	-3.65024
2827.51	0.708125
2830.06	-1.3697
2832.62	-1.24051
2835.18	-0.980023
2837.74	-5.19962
2840.3	-4.44177
2842.86	-2.84075
2845.42	-1.17722
2847.97	-1.32912
2850.53	2.69706
2853.09	-0.553579
2855.65	-0.945886
2858.21	-0.0779414
2860.77	-0.377803
2863.33	0.347676
2865.88	-3.49803
2868.44	-5.49498
2871	-1.93759
2873.56	-1.73568
2876.12	-1.76713
2878.68	1.11061
2881.24	0.371923
2883.8	-2.25213
2886.35	-4.94193
2888.91	-4.20585
2891.47	-1.24226
2894.03	0.186208
2896.59	-4.3429
2899.15	-3.88246
2901.71	-0.499016
2904.26	-0.46617
2906.82	-0.244405
2909.38	-1.61412
2911.94	0.702486
2914.5	-0.41382
2917.06	-2.70674
2919.62	-2.06235
2922.17	-3.04445
2924.73	-1.27459
2927.29	-0.504669
2929.85	-2.02633
2932.41	1.31631
2934.97	-2.04507
2937.53	-1.78524
2940.09	0.367097
2942.64	-0.899514
2945.2	-2.062
2947.76	-2.40928
2950.32	0.200473
2952.88	-0.083087
2955.44	0.591523
2958	1.24697
2960.55	1.48105
2963.11	1.28953
2965.67	0.737174
2968.23	2.27963
2970.79	-1.48043
2973.35	-1.9211
2975.91	-1.8137
2978.46	-0.567065
2981.02	-1.97019
2983.58	-3.84055
2986.14	-2.80135
2988.7	-1.33621
2991.26	-4.52945
2993.82	-3.3437
2996.38	2.12292
2998.93	-0.549449
3001.49	-0.697983
3004.05	1.66476
3006.61	0.142481
3009.17	-2.04653
3011.73	0.0754046
3014.29	0.0743752
3016.84	-1.09516
3019.4	-3.229
3021.96	-0.982611
3024.52	-2.32667
3027.08	0.576812
3029.64	0.2704
3032.2	-2.13602
3034.75	-3.26767
3037.31	-4.91466
3039.87	1.425
3042.43	-2.8028
3044.99	-0.747065
3047.55	-0.200219
3050.11	-1.43548
3052.67	-1.17899
3055.22	-1.87855
3057.78	0.0721807
3060.34	0.309832
3062.9	-2.24857
3065.46	-2.49648
3068.02	-1.34173
3070.58	-4.85259
3073.13	0.37315
3075.69	-1.94075
3078.25	1.4202
3080.81	-0.274852
3083.37	-1.9855
3085.93	-1.17938
3088.49	-3.6126
3091.04	2.86511
3093.6	-1.2582
3096.16	-0.93524
3098.72	-0.93524
3101.28	-1.44336
3103.84	-2.20543
3106.4	-2.70811
3108.96	-3.13912
3111.51	-0.842649
3114.07	-1.14534
3116.63	-0.965549
3119.19	-1.57292
3121.75	-1.83494
3124.31	0.236084
3126.87	-2.89451
3129.42	0.849802
3131.98	2.20249
3134.54	-0.0887451
3137.1	-3.58378
3139.66	-1.64346
3142.22	-5.77661
3144.78	2.15705
3147.33	-1.27252
3149.89	-0.13524
3152.45	0.000795364
3155.01	-2.44541
3157.57	-0.352444
3160.13	2.78109
3162.69	-2.4105
3165.25	-2.94779
3167.8	-5.31046
3170.36	-1.32942
3172.92	0.607706
3175.48	1.45874
3178.04	-0.230034
3180.6	-0.443589
3183.16	2.60551
3185.71	-0.402456
3188.27	-1.42769
3190.83	-0.563183
3193.39	-0.563842
3195.95	1.92969
3198.51	3.64122
3201.07	0.428932
3203.62	1.56986
3206.18	-0.869189
3208.74	3.41594
3211.3	-0.309428
3213.86	-0.563842
3216.42	1.77863
3218.98	4.70632
3221.54	0.407746
3224.09	-0.64929
3226.65	1.3498
3229.21	2.96168
3231.77	3.07284
3234.33	0.619872
3236.89	-0.49988
3239.45	0.842356
3242	1.94846
3244.56	0.69068
3247.12	1.01999
3249.68	2.50758
3252.24	-0.365365
3254.8	0.744774
3257.36	-0.73322
3259.91	-2.71018
3262.47	1.37172
3265.03	0.782653
3267.59	-1.33148
3270.15	3.30322
3272.71	2.39633
3275.27	4.51618
3277.83	1.22284
3280.38	-0.141376
3282.94	-2.04321
3285.5	-3.76104
3288.06	0.914258
3290.62	2.20606
3293.18	1.82216
3295.74	-0.593285
3298.29	-0.781066
3300.85	2.67915
3303.41	3.83966
3305.97	-0.266109
3308.53	4.1241
3311.09	0.288805
3313.65	4.94821
3316.2	5.1757
3318.76	4.61157
3321.32	2.07305
3323.88	5.98502
3326.44	1.70535
3329	0.0647602
3331.56	0.563881
3334.12	0.86476
3336.67	-0.130143
3339.23	4.11975
3341.79	3.75879
3344.35	1.93467
3346.91	0.0647602
3349.47	-2.72615
3352.03	6.86709
3354.58	-0.227669
3357.14	0.0673666
3359.7	-0.884284
3362.26	0.26681
3364.82	3.21146
3367.38	2.7737
3369.94	3.84421
3372.49	1.63196
3375.05	1.76358
3377.61	0.214507
3380.17	-0.427194
3382.73	2.70029
3385.29	2.40155
3387.85	4.62442
3390.41	4.46712
3392.96	2.13403
3395.52	0.17273
3398.08	0.548515
3400.64	6.52872
3403.2	0.664567
3405.76	3.81791
3408.32	2.03398
3410.87	4.14034
3413.43	2.19982
3415.99	0.300167
3418.55	3.52116
3421.11	5.26279
3423.67	3.14203
3426.23	3.9708
3428.78	1.93915
3431.34	3.56063
3433.9	1.4691
3436.46	2.37689
3439.02	1.57486
3441.58	4.40422
3444.14	0.556004
3446.7	2.48314
3449.25	3.11028
3451.81	1.27279
3454.37	4.06211
3456.93	1.65783
3459.49	3.84105
3462.05	5.83229
3464.61	1.15417
3467.16	3.45779
3469.72	3.21614
3472.28	0.717769
3474.84	-1.73896
3477.4	2.98901
3479.96	3.11231
3482.52	3.08546
3485.07	2.16519
3487.63	4.08799
3490.19	5.95716
3492.75	-0.162265
3495.31	0.498783
3497.87	1.16825
3500.43	-1.08235
3502.99	1.82074
3505.54	2.46606
3508.1	5.34591
3510.66	4.73101
3513.22	2.66476
3515.78	4.62722
3518.34	4.39907
3520.9	3.58043
3523.45	3.71736
3526.01	3.72042
3528.57	2.66476
3531.13	3.32573
3533.69	3.87865
3536.25	4.27032
3538.81	3.48475
3541.36	4.21566
3543.92	5.09086
3546.48	3.92619
3549.04	3.22835
3551.6	0.995855
3554.16	2.07696
3556.72	2.34942
3559.28	4.82486
3561.83	8.44091
3564.39	6.42287
3566.95	3.54837
3569.51	3.0269
3572.07	3.21911
3574.63	8.26587
3577.19	4.11207
3579.74	2.98545
3582.3	2.23422
3584.86	5.72391
3587.42	4.72691
3589.98	7.45223
3592.54	2.29728
3595.1	3.19776
3597.65	2.21435
3600.21	5.55161
3602.77	2.93155
3605.33	3.22359
3607.89	8.17418
3610.45	5.51565
3613.01	6.18912
3615.56	4.37463
3618.12	-1.27432
3620.68	1.19934
3623.24	3.48768
3625.8	4.09984
3628.36	5.06448
3630.92	3.90796
3633.48	1.74842
3636.03	2.06476
3638.59	5.47203
3641.15	1.7171
3643.71	2.33238
3646.27	6.18093
3648.83	5.10416
3651.39	5.04065
3653.94	4.50066
3656.5	10.4554
3659.06	0.690043
3661.62	2.99203
3664.18	5.38263
3666.74	5.63773
3669.3	3.8115
3671.85	2.37211
3674.41	8.16929
3676.97	4.9852
3679.53	7.6869
3682.09	5.71425
3684.65	6.72374
3687.21	3.83614
3689.77	5.35777
3692.32	7.00383
3694.88	6.5604
3697.44	6.90126
3700	6.28541