File: Example Data/Raman/Kara/12-20-10/Si-Graphene/8bulk/SGbulk_4.txt
100	226.877
102.559	234.534
105.117	241.607
107.676	247.693
110.235	262.237
112.793	287.725
115.352	306.238
117.91	312.843
120.469	313.385
123.028	335.632
125.586	355.549
128.145	366.461
130.704	369.146
133.262	370.516
135.821	375.965
138.38	385.762
140.938	383.819
143.497	376.692
146.055	385.889
148.614	382.518
151.173	365.367
153.731	363.11
156.29	375.649
158.849	384.595
161.407	368.997
163.966	359.766
166.525	358.848
169.083	359.326
171.642	351.7
174.2	345.263
176.759	336.668
179.318	332.14
181.876	331.879
184.435	332.467
186.994	322.146
189.552	307.204
192.111	301.704
194.67	302.566
197.228	300.403
199.787	277.8125
202.345	249.904
204.904	227.89
207.463	213.972
210.021	204.181
212.58	184.778
215.139	185.862
217.697	187.101
220.256	184.45
222.814	178.544
225.373	174.493
227.932	180.482
230.49	190.393
233.049	197.434
235.608	198.232
238.166	194.29
240.725	210.834
243.284	201.749
245.842	208.719
248.401	218.797
250.959	214.714
253.518	223.647
256.077	228.863
258.635	227.285
261.194	231.59
263.753	243.491
266.311	244.792
268.87	247.064
271.429	253.577
273.987	256.851
276.546	256.199
279.104	256.302
281.663	265.099
284.222	268.483
286.78	270.418
289.339	272.308
291.898	276.103
294.456	287.203
297.015	278.381
299.574	282.069
302.132	288.137
304.691	288.543
307.249	281.939
309.808	280.631
312.367	280.4
314.925	280.596
317.484	284.069
320.043	290.692
322.601	286.108
325.16	282.135
327.719	278.67
330.277	285.512
332.836	294.007
335.394	279.168
337.953	278.512
340.512	282.073
343.07	287.602
345.629	291.785
348.188	290.081
350.746	275.474
353.305	280.911
355.864	277.517
358.422	272.664
360.981	272.389
363.539	277.913
366.098	279.229
368.657	286.703
371.215	284.86
373.774	286.73
376.333	294.832
378.891	284.357
381.45	280.237
384.009	287.675
386.567	286.515
389.126	280.356
391.684	279.384
394.243	276.744
396.802	274.727
399.36	278.682
401.919	276.25
404.478	268.788
407.036	268.202
409.595	274.152
412.154	283.346
414.712	282.116
417.271	277.001
419.829	280.632
422.388	303.628
424.947	304.125
427.505	310.801
430.064	316.571
432.623	322.718
435.181	331.855
437.74	344.754
440.298	371.289
442.857	384.447
445.416	402.76
447.974	415.726
450.533	419.154
453.092	446.887
455.65	450.477
458.209	467.141
460.768	481.179
463.326	490.284
465.885	498.884
468.444	510.195
471.002	528.875
473.561	528.451
476.119	513.26
478.678	509.005
481.237	526.19
483.795	508.183
486.354	512.205
488.913	510.731
491.471	486.162
494.03	455.03
496.589	436.018
499.147	406.623
501.706	387.428
504.264	363.12
506.823	349.142
509.382	335.699
511.94	309.048
514.499	276.137
517.058	257.059
519.616	240.961
522.175	216.223
524.733	193.984
527.292	181.774
529.851	164.384
532.409	163.882
534.968	148.626
537.527	139.819
540.085	131.341
542.644	119.486
545.203	115.057
547.761	118.751
550.32	117.43
552.878	111.716
555.437	107.666
557.996	107.252
560.554	106.865
563.113	102.32
565.672	96.5265
568.23	94.1273
570.789	96.6693
573.348	100.2
575.906	99.5139
578.465	95.6365
581.023	101.276
583.582	106.601
586.141	103.286
588.699	100.661
591.258	104.225
593.817	102.842
596.375	103.517
598.934	100.34
601.493	99.0828
604.051	95.984
606.61	93.5457
609.168	98.0868
611.727	101.469
614.286	106.48
616.844	106.149
619.403	101.15
621.962	93.5411
624.52	88.44
627.079	93.2218
629.638	90.0005
632.196	94.6493
634.755	95.3374
637.313	92.4955
639.872	92.4985
642.431	99.4991
644.989	101.367
647.548	97.7309
650.107	90.8496
652.665	89.0664
655.224	90.8433
657.783	90.7983
660.341	87.0751
662.9	95.9233
665.458	97.7004
668.017	95.0685
670.576	89.1963
673.134	83.7102
675.693	83.0633
678.252	88.7076
680.81	79.3304
683.369	81.7999
685.927	87.703
688.486	90.4351
691.045	87.0899
693.603	81.4489
696.162	85.8103
698.721	86.3232
701.279	84.8019
703.838	82.6892
706.397	83.5183
708.955	86.9904
711.514	88.2229
714.073	81.4125
716.631	85.3496
719.19	81.4228
721.748	80.6291
724.307	82.5993
726.866	85.4554
729.424	87.9714
731.983	84.2006
734.542	87.2898
737.1	87.8
739.659	89.409
742.217	87.5676
744.776	85.2347
747.335	88.716
749.893	86.0324
752.452	88.6102
755.011	96.7388
757.569	96.648
760.128	90.6342
762.687	89.1599
765.245	97.3918
767.804	101.053
770.362	97.2621
772.921	95.4387
775.48	93.022
778.038	91.4157
780.597	90.9314
783.156	93.7205
785.714	103.641
788.273	86.5484
790.832	101.904
793.39	106.859
795.949	103.956
798.507	100.148
801.066	99.606
803.625	102.21
806.183	103.767
808.742	106.34
811.301	99.82
813.859	99.543
816.418	105.75
818.977	107.603
821.535	98.9291
824.094	96.0335
826.652	100.718
829.211	106.646
831.77	108.2
834.328	105.427
836.887	105.09
839.446	110.1
842.004	113.337
844.563	108.469
847.122	98.8064
849.68	105.764
852.239	110.072
854.797	107.914
857.356	106.01
859.915	110.491
862.473	116.724
865.032	113.588
867.591	109.797
870.149	112.729
872.708	111.925
875.267	108.349
877.825	106.629
880.384	107.815
882.942	109.061
885.501	113.424
888.06	108.851
890.618	106.122
893.177	103.326
895.736	102.524
898.294	103.624
900.853	102.154
903.411	97.558
905.97	108.761
908.529	98.2031
911.087	102.704
913.646	100.285
916.205	95.8756
918.763	96.2623
921.322	95.3508
923.881	96.9371
926.439	95.8845
928.998	93.5401
931.557	98.3418
934.115	101.588
936.674	97.6129
939.232	92.1837
941.791	92.8011
944.35	91.2988
946.908	83.3857
949.467	81.8287
952.026	85.6145
954.584	91.0213
957.143	90.3542
959.701	85.9407
962.26	84.4957
964.819	84.1989
967.377	79.7977
969.936	78.3863
972.495	80.3432
975.053	76.5944
977.612	75.6851
980.171	78.4048
982.729	75.8955
985.288	65.3795
987.846	66.5039
990.405	70.7448
992.964	71.8312
995.522	60.6897
998.081	63.404
1000.64	62.8626
1003.2	56.7553
1005.76	57.3838
1008.32	61.3432
1010.87	61.0221
1013.43	61.7312
1015.99	60.1985
1018.55	62.1381
1021.11	55.4969
1023.67	51.3718
1026.23	55.9299
1028.78	58.0021
1031.34	48.5766
1033.9	49.8116
1036.46	50.5226
1039.02	57.8889
1041.58	53.1213
1044.14	48.9722
1046.7	50.5036
1049.25	50.324
1051.81	44.9036
1054.37	44.5474
1056.93	44.3244
1059.49	49.3141
1062.05	38.8513
1064.61	39.8231
1067.16	39.8698
1069.72	41.6855
1072.28	41.2136
1074.84	35.3597
1077.4	36.9769
1079.96	42.61
1082.52	32.6045
1085.07	32.1679
1087.63	37.4845
1090.19	33.9969
1092.75	33.2058
1095.31	33.979
1097.87	31.4991
1100.43	30.6505
1102.99	31.6837
1105.54	32.4003
1108.1	33.1175
1110.66	31.6126
1113.22	29.1293
1115.78	31.2542
1118.34	30.6845
1120.9	26.0394
1123.45	24.4347
1126.01	26.779
1128.57	23.2312
1131.13	25.9277
1133.69	24.6
1136.25	28.2721
1138.81	22.7602
1141.36	24.0307
1143.92	20.0741
1146.48	21.2742
1149.04	21.5743
1151.6	19.3295
1154.16	19.3868
1156.72	23.894
1159.28	25.7611
1161.83	21.7227
1164.39	21.7227
1166.95	21.7227
1169.51	21.7227
1172.07	26.1443
1174.63	21.7227
1177.19	21.7227
1179.74	23.0328
1182.3	21.5669
1184.86	18.3112
1187.42	21.4363
1189.98	21.3317
1192.54	21
1195.1	22.497
1197.65	20.6277
1200.21	18.7499
1202.77	23.0027
1205.33	23.3761
1207.89	21.8103
1210.45	16.5498
1213.01	17.6348
1215.57	18.7475
1218.12	20.2561
1220.68	21.6491
1223.24	21.0669
1225.8	20.5935
1228.36	20.6667
1230.92	19.4917
1233.48	19.7881
1236.03	17.1957
1238.59	28.6603
1241.15	24.9345
1243.71	24.559
1246.27	20.2219
1248.83	19.6354
1251.39	17.1168
1253.94	17.6446
1256.5	22.7787
1259.06	23.6135
1261.62	22.4307
1264.18	23.7887
1266.74	17.8299
1269.3	22.3986
1271.85	22.2998
1274.41	18.3084
1276.97	21.5087
1279.53	23.1066
1282.09	22.9943
1284.65	22.2565
1287.21	20.9892
1289.77	21.1756
1292.32	19.5752
1294.88	21.7758
1297.44	23.9757
1300	22.1865
1302.56	24.4735
1305.12	25.2968
1307.68	26.1922
1310.23	24.1708
1312.79	25.6799
1315.35	28.0021
1317.91	24.7252
1320.47	23.2392
1323.03	29.1378
1325.59	25.8123
1328.15	24.086
1330.7	29.6103
1333.26	33.7643
1335.82	26.167
1338.38	30.6428
1340.94	34.5921
1343.5	37.6938
1346.06	35.5266
1348.61	30.8321
1351.17	30.7669
1353.73	31.1949
1356.29	35.3635
1358.85	33.1115
1361.41	34.4208
1363.97	39.7814
1366.52	35.4268
1369.08	37.2441
1371.64	29.8462
1374.2	28.9129
1376.76	28.4062
1379.32	25.8406
1381.88	26.2611
1384.43	27.336
1386.99	23.4346
1389.55	20.6391
1392.11	28.737
1394.67	16.1107
1397.23	22.9763
1399.79	21.5839
1402.35	26.5257
1404.9	20.65
1407.46	21.276
1410.02	23.0913
1412.58	23.6176
1415.14	23.5156
1417.7	21.8259
1420.26	19.0635
1422.81	17.4938
1425.37	17.7119
1427.93	19.3374
1430.49	16.1521
1433.05	15.4063
1435.61	19.0984
1438.17	15.9727
1440.72	21.7182
1443.28	20.9414
1445.84	19.2119
1448.4	19.0363
1450.96	16.0513
1453.52	16.9656
1456.08	18.8001
1458.64	15.984
1461.19	18.1358
1463.75	18.2388
1466.31	21.5729
1468.87	21.1996
1471.43	18.6127
1473.99	20.1114
1476.55	14.7345
1479.1	16.4562
1481.66	16.395
1484.22	17.3111
1486.78	19.1918
1489.34	17.4878
1491.9	18.0474
1494.46	18.1546
1497.01	16.8753
1499.57	17.364
1502.13	14.3504
1504.69	16.4
1507.25	15.6855
1509.81	12.0831
1512.37	17.0494
1514.93	18.5551
1517.48	10.3748
1520.04	17.8138
1522.6	12.1771
1525.16	14.8454
1527.72	16.5367
1530.28	19.4831
1532.84	19.0324
1535.39	15.3439
1537.95	16.3308
1540.51	19.8805
1543.07	16.3198
1545.63	10.569
1548.19	13.0673
1550.75	13.1727
1553.3	18.2967
1555.86	17.9163
1558.42	21.922
1560.98	27.2237
1563.54	28.6818
1566.1	25.3485
1568.66	22.6928
1571.22	20.835
1573.77	23.7912
1576.33	22.5803
1578.89	21.0793
1581.45	20.7788
1584.01	20.2984
1586.57	22.261
1589.13	22.4253
1591.68	19.3057
1594.24	20.9032
1596.8	20.9902
1599.36	21.05
1601.92	27.1644
1604.48	21.3601
1607.04	19.8019
1609.59	25.9646
1612.15	23.4884
1614.71	21.5614
1617.27	20.1788
1619.83	15.3738
1622.39	20.3302
1624.95	18.3287
1627.51	13.2804
1630.06	9.02463
1632.62	11.4346
1635.18	11.6717
1637.74	13.1656
1640.3	15.8407
1642.86	13.4253
1645.42	10.6966
1647.97	9.25848
1650.53	7.04774
1653.09	7.20456
1655.65	11.1197
1658.21	14.1653
1660.77	11.9246
1663.33	10.7423
1665.88	4.03335
1668.44	13.5783
1671	5.7098
1673.56	6.69179
1676.12	9.44876
1678.68	7.94458
1681.24	7.92165
1683.8	7.38747
1686.35	8.07255
1688.91	13.3588
1691.47	12.0843
1694.03	10.9362
1696.59	7.02012
1699.15	7.25173
1701.71	10.6022
1704.26	11.9327
1706.82	10.7626
1709.38	8.668
1711.94	7.77441
1714.5	7.68892
1717.06	13.312
1719.62	7.35272
1722.17	9.69637
1724.73	14.6069
1727.29	7.01454
1729.85	7.57847
1732.41	3.32944
1734.97	6.9732
1737.53	9.90384
1740.09	5.64464
1742.64	9.62424
1745.2	10.1707
1747.76	8.94606
1750.32	6.5514
1752.88	6.2
1755.44	6.36082
1758	7.17414
1760.55	10.8246
1763.11	10.2826
1765.67	8.50122
1768.23	8.39478
1770.79	7.97052
1773.35	7.239
1775.91	8.60726
1778.46	7.72362
1781.02	6.41557
1783.58	8.57392
1786.14	10.0269
1788.7	7.92709
1791.26	5.96574
1793.82	5.11112
1796.38	4.78163
1798.93	8.08072
1801.49	8.48142
1804.05	5.36822
1806.61	6.60547
1809.17	11.0675
1811.73	9.92542
1814.29	10.7028
1816.84	6.26914
1819.4	6.47956
1821.96	5.38854
1824.52	2.98489
1827.08	6.14869
1829.64	5.62577
1832.2	5.98253
1834.75	5.68802
1837.31	9.40117
1839.87	9.79323
1842.43	6.71704
1844.99	11.8872
1847.55	8.31445
1850.11	5.28083
1852.67	8.01908
1855.22	10.1397
1857.78	9.03588
1860.34	9.80218
1862.9	8.85493
1865.46	7.47791
1868.02	6.41499
1870.58	3.43291
1873.13	5.16051
1875.69	3.63997
1878.25	7.85783
1880.81	8.66787
1883.37	8.2
1885.93	7.7927
1888.49	9.72797
1891.04	5.19544
1893.6	6.92306
1896.16	10.7256
1898.72	6.1289
1901.28	6.88276
1903.84	7.95268
1906.4	8.29971
1908.96	11.0968
1911.51	9.51566
1914.07	6.43831
1916.63	5.47975
1919.19	7.50293
1921.75	10.7294
1924.31	12.7071
1926.87	8.45045
1929.42	3.68668
1931.98	6.20822
1934.54	8.30601
1937.1	9.12409
1939.66	10.9271
1942.22	8.04426
1944.78	5.9544
1947.33	9.46046
1949.89	7.91812
1952.45	3.20623
1955.01	3.28189
1957.57	6.94246
1960.13	6.64963
1962.69	7.92121
1965.25	6.73183
1967.8	7.02193
1970.36	9.31736
1972.92	5.88694
1975.48	4.97564
1978.04	4.95998
1980.6	7.62685
1983.16	10.211
1985.71	10.2341
1988.27	9.65503
1990.83	8.92386
1993.39	8.10668
1995.95	8.93067
1998.51	5.80928
2001.07	7.68113
2003.62	7.81946
2006.18	7.77097
2008.74	7.92636
2011.3	9.01219
2013.86	9.12158
2016.42	9.80415
2018.98	9.25707
2021.54	7.22359
2024.09	5.3818
2026.65	7.49686
2029.21	7.43073
2031.77	8.81669
2034.33	8.63962
2036.89	7.81282
2039.45	9.23113
2042	8.95026
2044.56	7.82286
2047.12	10.7502
2049.68	9.71637
2052.24	9.33231
2054.8	10.7334
2057.36	11.1594
2059.91	8.3921
2062.47	7.63117
2065.03	10.0423
2067.59	8.22082
2070.15	7.50151
2072.71	6.56407
2075.27	8.91636
2077.83	6.90688
2080.38	5.06089
2082.94	5.92046
2085.5	7.62245
2088.06	8.43916
2090.62	7.59704
2093.18	11.034
2095.74	14.1784
2098.29	10.2981
2100.85	6.07097
2103.41	8.97314
2105.97	11.8703
2108.53	12.1716
2111.09	5.5684
2113.65	6.53014
2116.2	10.0239
2118.76	10.3682
2121.32	9.42628
2123.88	8.51607
2126.44	10.6858
2129	9.51098
2131.56	7.42763
2134.12	14.5761
2136.67	7.6187
2139.23	7.91563
2141.79	11.719
2144.35	10.2919
2146.91	12.1229
2149.47	9.2012
2152.03	7.10445
2154.58	10.837
2157.14	9.64531
2159.7	11.3442
2162.26	10.1314
2164.82	8.26189
2167.38	6.075
2169.94	12.3469
2172.49	9.43901
2175.05	9.2718
2177.61	11.4241
2180.17	10.352
2182.73	7.44148
2185.29	7.70261
2187.85	10.3548
2190.41	11.3923
2192.96	9.02177
2195.52	8.6294
2198.08	9.71217
2200.64	10.8838
2203.2	13.0829
2205.76	10.6302
2208.32	9.9004
2210.87	10.1574
2213.43	8.14974
2215.99	7.13932
2218.55	7.35647
2221.11	6.20542
2223.67	11.1001
2226.23	8.91746
2228.78	8.82807
2231.34	9.03419
2233.9	9.73927
2236.46	8.54561
2239.02	12.2363
2241.58	10.1533
2244.14	11.0939
2246.7	11.6221
2249.25	8.94932
2251.81	11.0129
2254.37	12.0859
2256.93	12.9123
2259.49	10.6875
2262.05	10.5434
2264.61	9.78833
2267.16	14.1881
2269.72	14.7106
2272.28	14.0902
2274.84	9.65229
2277.4	9.99373
2279.96	11.0136
2282.52	11.4639
2285.07	12.848
2287.63	12.0284
2290.19	12.124
2292.75	12.2063
2295.31	12.3148
2297.87	11.094
2300.43	11.7688
2302.99	10.2291
2305.54	10.4832
2308.1	12.1938
2310.66	13.1665
2313.22	11.5428
2315.78	10.3439
2318.34	14.5527
2320.9	12.9704
2323.45	13.0534
2326.01	11.0156
2328.57	14.8332
2331.13	20.7376
2333.69	32.8272
2336.25	40.5474
2338.81	33.0509
2341.36	19.6482
2343.92	14.1159
2346.48	12.9768
2349.04	11.9814
2351.6	10.5176
2354.16	13.4283
2356.72	14.7503
2359.28	14.7714
2361.83	13.996
2364.39	15.8431
2366.95	15.5086
2369.51	14.6724
2372.07	11.9546
2374.63	12.8603
2377.19	17.9981
2379.74	18.2882
2382.3	18.1234
2384.86	13.6835
2387.42	16.5901
2389.98	17.8283
2392.54	16.1818
2395.1	14.6592
2397.65	15.941
2400.21	17.8633
2402.77	16.1344
2405.33	16.7737
2407.89	16.9326
2410.45	17.6766
2413.01	21.6891
2415.56	21.7392
2418.12	23.8789
2420.68	23.2662
2423.24	24.4148
2425.8	29.6045
2428.36	35.0542
2430.92	38.5581
2433.48	36.1827
2436.03	43.2038
2438.59	50.9891
2441.15	54.0155
2443.71	51.4434
2446.27	48.75
2448.83	46.1737
2451.39	42.4741
2453.94	37.0312
2456.5	31.3322
2459.06	30.5542
2461.62	30.4551
2464.18	25.6998
2466.74	26.624
2469.3	25.9116
2471.85	25.9822
2474.41	26.5103
2476.97	24.3914
2479.53	23.0715
2482.09	28.1079
2484.65	24.627
2487.21	25.1187
2489.77	21.8992
2492.32	23.6281
2494.88	22.7408
2497.44	24.4047
2500	21.45
2502.56	21.9182
2505.12	22.8514
2507.68	26.2808
2510.23	24.2957
2512.79	22.4268
2515.35	22.7456
2517.91	25.2833
2520.47	23.6926
2523.03	20.3832
2525.59	20.8069
2528.15	22.7861
2530.7	27.6596
2533.26	26.6672
2535.82	23.3768
2538.38	23.9781
2540.94	23.1547
2543.5	20.8109
2546.06	20.3643
2548.61	22.0273
2551.17	19.0926
2553.73	23.0172
2556.29	24.6553
2558.85	21.1309
2561.41	21.8373
2563.97	19.2165
2566.52	18.5667
2569.08	25.0132
2571.64	23.3008
2574.2	26.475
2576.76	26.7368
2579.32	22.8939
2581.88	20.8857
2584.44	21.2405
2586.99	21.7646
2589.55	22.3372
2592.11	22.1584
2594.67	23.3371
2597.23	23.0396
2599.79	26.0248
2602.35	20.8189
2604.9	22.2157
2607.46	21.5103
2610.02	23.2136
2612.58	22.9621
2615.14	23.6511
2617.7	22.9459
2620.26	24.802
2622.81	23.2309
2625.37	23.8922
2627.93	25.6332
2630.49	21.7442
2633.05	23.1917
2635.61	25.1
2638.17	26.7993
2640.72	23.5895
2643.28	20.6093
2645.84	21.9326
2648.4	23.2769
2650.96	26.8886
2653.52	27.0787
2656.08	22.5477
2658.64	26.3843
2661.19	25.0736
2663.75	27.1239
2666.31	23.1981
2668.87	24.967
2671.43	26.0865
2673.99	26.8364
2676.55	28.7404
2679.1	29.0234
2681.66	26.7494
2684.22	26.5683
2686.78	26.9099
2689.34	24.7734
2691.9	25.6497
2694.46	30.6933
2697.01	28.2772
2699.57	26.5613
2702.13	27.5729
2704.69	26.1638
2707.25	22.1588
2709.81	24.4603
2712.37	24.852
2714.93	29.0533
2717.48	28.3013
2720.04	23.6871
2722.6	28.2152
2725.16	24.0055
2727.72	24.7539
2730.28	28.1745
2732.84	26.0413
2735.39	26.5662
2737.95	26.5892
2740.51	25.759
2743.07	24.5935
2745.63	26.3828
2748.19	26.0798
2750.75	28.8102
2753.3	27.2276
2755.86	27.5363
2758.42	30.0213
2760.98	29.4849
2763.54	27.0056
2766.1	28.088
2768.66	29.2803
2771.22	27.6316
2773.77	26.5322
2776.33	24.3286
2778.89	27.4536
2781.45	25.7114
2784.01	26.3045
2786.57	24.2187
2789.13	28.0842
2791.68	28.6735
2794.24	27.6336
2796.8	26.872
2799.36	26.2726
2801.92	26.404
2804.48	28.2332
2807.04	27.6021
2809.59	24.0936
2812.15	27.0005
2814.71	26.0432
2817.27	26.2489
2819.83	27.3938
2822.39	31.1198
2824.95	24.8055
2827.51	24.8176
2830.06	24.4379
2832.62	27.3666
2835.18	27.5729
2837.74	26.7304
2840.3	26.2568
2842.86	26.1875
2845.42	27.0298
2847.97	25.3453
2850.53	28.8112
2853.09	24.7707
2855.65	27.3259
2858.21	26.4471
2860.77	25.4902
2863.33	24.7455
2865.88	25.326
2868.44	31.3986
2871	27.6497
2873.56	27.3096
2876.12	25.5262
2878.68	29.2623
2881.24	29.6698
2883.8	25.5367
2886.35	27.2402
2888.91	25.7155
2891.47	26.327
2894.03	31.8879
2896.59	32.1513
2899.15	27.6458
2901.71	26.4769
2904.26	30.8157
2906.82	30.9956
2909.38	27.601
2911.94	29.8459
2914.5	30.0728
2917.06	32.8693
2919.62	27.9663
2922.17	28.8409
2924.73	24.0252
2927.29	26.8633
2929.85	30.6394
2932.41	26.7476
2934.97	34.4987
2937.53	33.2454
2940.09	28.5725
2942.64	32.3334
2945.2	36.6314
2947.76	36.7342
2950.32	35.6163
2952.88	32.3499
2955.44	32.668
2958	31.5832
2960.55	32.0958
2963.11	31.4117
2965.67	30.4516
2968.23	31.2013
2970.79	29.6757
2973.35	31.8139
2975.91	33.5601
2978.46	31.953
2981.02	28.6829
2983.58	29.0705
2986.14	26.2992
2988.7	28.5062
2991.26	29.8378
2993.82	31.5838
2996.38	30.8638
2998.93	27.0552
3001.49	24.6808
3004.05	25.0326
3006.61	24.9589
3009.17	25.783
3011.73	29.2937
3014.29	28.2614
3016.84	27.3361
3019.4	27.1035
3021.96	28.0335
3024.52	26.5822
3027.08	29.5153
3029.64	28.8867
3032.2	24.1097
3034.75	26.0249
3037.31	29.2199
3039.87	30.5344
3042.43	27.4499
3044.99	23.2886
3047.55	25.972
3050.11	23.8573
3052.67	28.1465
3055.22	26.4302
3057.78	26.2974
3060.34	34.5665
3062.9	29.3561
3065.46	30.1138
3068.02	27.6799
3070.58	30.2984
3073.13	28.9636
3075.69	30.2285
3078.25	29.3093
3080.81	29.631
3083.37	28.6984
3085.93	28.4549
3088.49	33.4869
3091.04	27.548
3093.6	31.0867
3096.16	24.9763
3098.72	28.414
3101.28	28.7552
3103.84	29.3765
3106.4	32.3493
3108.96	32.365
3111.51	30.388
3114.07	28.8545
3116.63	28.6437
3119.19	29.7944
3121.75	31.613
3124.31	34.4748
3126.87	26.4785
3129.42	24.7139
3131.98	29.4039
3134.54	30.4191
3137.1	26.6147
3139.66	28.7075
3142.22	32.984
3144.78	30.7416
3147.33	31.3639
3149.89	34.4548
3152.45	34.6319
3155.01	33.1406
3157.57	31.124
3160.13	31.3656
3162.69	34.9694
3165.25	28.5924
3167.8	31.5605
3170.36	33.6417
3172.92	29.7403
3175.48	28.6949
3178.04	35.7225
3180.6	34.2787
3183.16	32.5641
3185.71	31.5224
3188.27	30.3675
3190.83	29.2143
3193.39	28.7941
3195.95	31.7911
3198.51	33.5886
3201.07	32.7436
3203.62	32.9759
3206.18	32.0042
3208.74	33.2363
3211.3	31.283
3213.86	33.8692
3216.42	34.1704
3218.98	34.7209
3221.54	32.1786
3224.09	33.641
3226.65	34.0355
3229.21	33.8017
3231.77	32.848
3234.33	33.9345
3236.89	32.9706
3239.45	30.7121
3242	34.2235
3244.56	37.0042
3247.12	31.8504
3249.68	34.3628
3252.24	35.0835
3254.8	29.1863
3257.36	33.6901
3259.91	36.0708
3262.47	34.9794
3265.03	35.0924
3267.59	33.6135
3270.15	34.0895
3272.71	30.2169
3275.27	33.6297
3277.83	38.6573
3280.38	38.2998
3282.94	36.3103
3285.5	36.8257
3288.06	35.3909
3290.62	35.1946
3293.18	34.7842
3295.74	37.2654
3298.29	33.5579
3300.85	33.0352
3303.41	35.6146
3305.97	34.5673
3308.53	32.3589
3311.09	38.0512
3313.65	32.0419
3316.2	31.0959
3318.76	37.4618
3321.32	34.6379
3323.88	35.3219
3326.44	37.6035
3329	38.0421
3331.56	35.3961
3334.12	34.0919
3336.67	33.7161
3339.23	32.7283
3341.79	35.4385
3344.35	38.9736
3346.91	36.7157
3349.47	36.2145
3352.03	39.4109
3354.58	40.3439
3357.14	34.4101
3359.7	39.1044
3362.26	38.6585
3364.82	35.4587
3367.38	33.9912
3369.94	32.271
3372.49	37.5777
3375.05	36.3152
3377.61	40.3472
3380.17	42.2353
3382.73	42.9593
3385.29	38.77
3387.85	39.3513
3390.41	31.3628
3392.96	36.5918
3395.52	36.5918
3398.08	43.1395
3400.64	41.5133
3403.2	38.1787
3405.76	37.0839
3408.32	40.6443
3410.87	39.2962
3413.43	37.4705
3415.99	37.3475
3418.55	41.0546
3421.11	45.7809
3423.67	40.9893
3426.23	42.4302
3428.78	40.0067
3431.34	41.6738
3433.9	37.2903
3436.46	35.7675
3439.02	41.5792
3441.58	43.9034
3444.14	39.4217
3446.7	43.4126
3449.25	43.6307
3451.81	42.0713
3454.37	44.5104
3456.93	42.2015
3459.49	42.5151
3462.05	44.8114
3464.61	41.5878
3467.16	44.4568
3469.72	28.7429
3472.28	38.9299
3474.84	36.8283
3477.4	39.3323
3479.96	43.7317
3482.52	40.2389
3485.07	41.9115
3487.63	38.3233
3490.19	45.9742
3492.75	38.4688
3495.31	40.254
3497.87	39.8911
3500.43	43.4932
3502.99	43.9043
3505.54	40.6731
3508.1	42.2278
3510.66	38.59
3513.22	43.6669
3515.78	39.2622
3518.34	42.3478
3520.9	41.5397
3523.45	39.7946
3526.01	44.9642
3528.57	46.6962
3531.13	36.5074
3533.69	39.3809
3536.25	47.7676
3538.81	46.8871
3541.36	44.3899
3543.92	42.2307
3546.48	44.5618
3549.04	45.0392
3551.6	39.8828
3554.16	39.8146
3556.72	46.966
3559.28	40.6318
3561.83	39.9073
3564.39	42.3912
3566.95	46.5415
3569.51	43.5085
3572.07	43.1881
3574.63	42.2426
3577.19	37.7013
3579.74	35.6086
3582.3	38.5087
3584.86	37.5581
3587.42	45.0563
3589.98	44.6745
3592.54	42.6181
3595.1	42.7017
3597.65	45.149
3600.21	41.5123
3602.77	44.8472
3605.33	47.321
3607.89	54.0276
3610.45	45.0487
3613.01	42.7066
3615.56	43.6088
3618.12	45.9902
3620.68	44.7613
3623.24	41.4393
3625.8	48.8871
3628.36	42.7141
3630.92	46.1378
3633.48	47.0393
3636.03	47.7889
3638.59	46.4191
3641.15	46.106
3643.71	45.2416
3646.27	42.2797
3648.83	43.353
3651.39	41.6677
3653.94	40.4477
3656.5	46.2768
3659.06	44.7005
3661.62	43.9075
3664.18	43.1452
3666.74	45.8158
3669.3	39.5131
3671.85	45.9265
3674.41	45.4166
3676.97	44.5839
3679.53	48.8124
3682.09	45.2605
3684.65	47.8172
3687.21	43.8671
3689.77	40.7972
3692.32	42.4272
3694.88	46.4444
3697.44	48.312
3700	45.8251