File: Example Data/Raman/Kara/12-20-10/Si-Graphene/8bulk/SGbulk_1.txt
200	55.4959
202.544	53.5569
205.087	49.9895
207.631	45.2774
210.174	42.7078
212.718	43.1023
215.262	44.1379
217.805	44.5982
220.349	44.0224
222.892	44.3443
225.436	48.657
227.98	48.9201
230.523	48.1753
233.067	51.9441
235.61	53.3944
238.154	53.7383
240.698	56.6859
243.241	57.4748
245.785	53.5689
248.328	60.6642
250.872	62.7021
253.416	62.4571
255.959	62.4082
258.503	64.9354
261.047	72.3683
263.59	74.627
266.134	70.8709
268.677	67.6
271.221	67.8243
273.765	68.7944
276.308	70.8921
278.852	73.7337
281.395	77.8278
283.939	81.4
286.483	81.7422
289.026	88.0632
291.57	84.0141
294.113	83.3027
296.657	84.2532
299.201	81.5763
301.744	83.037
304.288	80.4596
306.831	80.9993
309.375	83.4357
311.919	86.125
314.462	89.8628
317.006	83.7358
319.549	79.6157
322.093	79.4737
324.637	81.6
327.18	81.5488
329.724	80.4085
332.267	80.9984
334.811	80.0568
337.355	80.1306
339.898	83.7563
342.442	83.4301
344.985	77.9226
347.529	76.1111
350.073	79.6939
352.616	85.0358
355.16	82.5975
357.703	82.1076
360.247	86.4641
362.791	83.36
365.334	77.1442
367.878	78.9056
370.422	81.6852
372.965	82
375.509	83.8492
378.052	85.7623
380.596	85.6753
383.14	82.4007
385.683	80.106
388.227	80.1108
390.77	83.1491
393.314	85.6764
395.858	83.8
398.401	83.8
400.945	79.0682
403.488	82.2192
406.032	81.8021
408.576	73.904
411.119	69.7253
413.663	73.9995
416.206	74.9336
418.75	80.2988
421.294	86.6771
423.837	88.1921
426.381	85.7245
428.924	90.447
431.468	97.3689
434.012	104.947
436.555	111.668
439.099	115.753
441.642	113.115
444.186	119.047
446.73	126.802
449.273	131.727
451.817	134.214
454.36	140.458
456.904	136.164
459.448	147.761
461.991	151.073
464.535	149.331
467.078	153.126
469.622	165.199
472.166	156.94
474.709	151.796
477.253	155.622
479.797	161.822
482.34	162.126
484.884	166.93
487.427	158.128
489.971	155.111
492.515	152.068
495.058	143.312
497.602	128.046
500.145	120.076
502.689	113.019
505.233	104.39
507.776	98.2848
510.32	92.928
512.863	82.1703
515.407	71.8646
517.951	67.07
520.494	60.0227
523.038	54.1608
525.581	49.4264
528.125	41.9851
530.669	41.8185
533.212	38.0959
535.756	35.4225
538.299	34.1555
540.843	31.8206
543.387	25.6604
545.93	26.3275
548.474	22.3823
551.017	24.242
553.561	26.1859
556.105	25.4006
558.648	24.3108
561.192	19.463
563.735	20.5125
566.279	21.8296
568.823	23.1724
571.366	23.6683
573.91	21.9532
576.453	19.9438
578.997	22.1327
581.541	21.5695
584.084	19.8936
586.628	21.0727
589.172	25.51
591.715	18.4656
594.259	19.976
596.802	19.6243
599.346	21.24
601.89	22.7494
604.433	22.0278
606.977	25.1839
609.52	22.831
612.064	19.2417
614.608	19.9094
617.151	22.7576
619.695	24.6097
622.238	25.0799
624.782	19.8613
627.326	20.8176
629.869	18.9731
632.413	19.2184
634.956	21.4207
637.5	19.864
640.044	20.3698
642.587	21.9862
645.131	22.1452
647.674	21.1339
650.218	21.0461
652.762	22.0514
655.305	18.4234
657.849	19.776
660.392	19.5767
662.936	18.298
665.48	17.4793
668.023	16.2879
670.567	12.8438
673.11	18.9363
675.654	18.1479
678.198	16.4145
680.741	15.1231
683.285	16.7402
685.828	20.4424
688.372	16.8041
690.916	16.9738
693.459	15.1347
696.003	13.9473
698.547	15.9227
701.09	18.0378
703.634	14.1859
706.177	9.59684
708.721	15.5837
711.265	12.0866
713.808	11.7611
716.352	15.3344
718.895	16.7884
721.439	12.5352
723.983	14.2383
726.526	15.1709
729.07	12.1609
731.613	15.8104
734.157	19.899
736.701	15.3466
739.244	14.261
741.788	15.7968
744.331	18.2217
746.875	18.8811
749.419	19.1591
751.962	19.4182
754.506	18.4332
757.049	15.4278
759.593	17.3086
762.137	17.4555
764.68	20.1764
767.224	20.2022
769.767	15.7419
772.311	12.1694
774.855	17.7975
777.398	17.1117
779.942	19.1518
782.485	20
785.029	19.1355
787.573	19.044
790.116	20.2659
792.66	12.6461
795.203	19.0016
797.747	21.738
800.291	22.4
802.834	24.1695
805.378	24.2243
807.922	20.3355
810.465	26.1056
813.009	22.4938
815.552	25.5672
818.096	24.7457
820.64	22.2829
823.183	23.0272
825.727	25.9168
828.27	20.2684
830.814	18.028
833.358	23.998
835.901	25.1625
838.445	24.5998
840.988	26.8002
843.532	30.1824
846.076	26.8552
848.619	21.6715
851.163	25.8253
853.706	26.1159
856.25	28.4341
858.794	29.5244
861.337	25.9364
863.881	21.6387
866.424	27.7128
868.968	20.0875
871.512	22.4163
874.055	24.2091
876.599	21.9359
879.142	21.7429
881.686	24.9799
884.23	17.5245
886.773	18.9127
889.317	20.7905
891.86	19.6994
894.404	20.2119
896.948	22.1235
899.491	24.5552
902.035	26.2913
904.578	20.2391
907.122	15.1919
909.666	15.3679
912.209	19.3028
914.753	19.3626
917.297	17.1718
919.84	18.7598
922.384	23.715
924.927	17.4373
927.471	16.3603
930.015	21.0759
932.558	19.1314
935.102	20.5779
937.645	21.8848
940.189	17.3684
942.733	18.3299
945.276	16.0578
947.82	14.1257
950.363	13.8
952.907	16.8051
955.451	16.6107
957.994	14.8319
960.538	14.3241
963.081	9.62097
965.625	18.3798
968.169	16.7208
970.712	13.3316
973.256	13.293
975.799	11.192
978.343	8.05549
980.887	7.8
983.43	7.68361
985.974	6.80513
988.517	7.49842
991.061	7.44971
993.605	12.1888
996.148	11.5364
998.692	8.74437
1001.24	8.58071
1003.78	5.68162
1006.32	5.21049
1008.87	11.7237
1011.41	8.29429
1013.95	7.2
1016.5	4.88458
1019.04	4.21168
1021.58	5.0446
1024.13	3.47875
1026.67	3.50035
1029.22	0.145954
1031.76	5.73953
1034.3	5.34554
1036.85	4.92207
1039.39	5.09878
1041.93	5.42675
1044.48	5.17074
1047.02	3.31203
1049.56	2.82464
1052.11	3.5327
1054.65	1.99765
1057.19	2.28674
1059.74	1.79844
1062.28	3.4915
1064.83	4.34103
1067.37	0.661524
1069.91	-0.0822299
1072.46	-2.18788
1075	0.119302
1077.54	-0.847408
1080.09	-2.26794
1082.63	-2.02223
1085.17	-1.31122
1087.72	-2.19751
1090.26	-4.4658
1092.81	-4.99991
1095.35	-1.79867
1097.89	0.692311
1100.44	-0.56005
1102.98	-1.53614
1105.52	-4.26643
1108.07	-4.39402
1110.61	-3.91386
1113.15	-7.01286
1115.7	-5.87327
1118.24	-2.25645
1120.78	-5.11075
1123.33	-2.67208
1125.87	-0.19326
1128.42	-2.2205
1130.96	-2.56499
1133.5	-2.52246
1136.05	-5.29276
1138.59	-5.09738
1141.13	-5.53242
1143.68	-4.4586
1146.22	-6.93877
1148.76	-4.28732
1151.31	-4.34583
1153.85	-4.78702
1156.4	-5.45658
1158.94	-4.8489
1161.48	-1.81858
1164.03	-4.21205
1166.57	-5.84188
1169.11	-8.35302
1171.66	-8.11435
1174.2	-9.27324
1176.74	-8.1044
1179.29	-5.28626
1181.83	-6.09705
1184.375	-8.83452
1186.92	-7.00189
1189.46	-8.05773
1192.01	-3.19997
1194.55	-3.01996
1197.09	-3.1601
1199.64	-7.12587
1202.18	-8.8
1204.72	-6.78842
1207.27	-5.04253
1209.81	-6.07273
1212.35	-6.76895
1214.9	-3.37927
1217.44	-1.63821
1219.99	-4.34601
1222.53	-6.8926
1225.07	-7.97766
1227.62	-8.32509
1230.16	-6.81157
1232.7	-4.70603
1235.25	-4.94894
1237.79	-6.42391
1240.33	-3.79316
1242.88	-2.80045
1245.42	-6.24259
1247.97	-3.46197
1250.51	-4.6949
1253.05	-4.79405
1255.6	-3.55013
1258.14	-3.68275
1260.68	-5.63365
1263.23	-7.87062
1265.77	-8.71912
1268.31	-6.17582
1270.86	-5.98273
1273.4	-5.43748
1275.94	-4.55347
1278.49	-4.85347
1281.03	-3.13712
1283.58	-3.69528
1286.12	-3.73336
1288.66	-5.12679
1291.21	-8.14488
1293.75	-6.97845
1296.29	-9.67267
1298.84	-8.53674
1301.38	-2.33758
1303.92	-3.20719
1306.47	0.162448
1309.01	-0.448547
1311.56	-2.88
1314.1	-4
1316.64	-2.6353
1319.19	-1.75191
1321.73	-3.90445
1324.27	-4.83357
1326.82	-4.50375
1329.36	0.983411
1331.9	-1.55386
1334.45	-1.96555
1336.99	0.675612
1339.53	0.414026
1342.08	0.0300579
1344.62	0.2
1347.17	0.363318
1349.71	0.144442
1352.25	-1.86705
1354.8	-5.1359
1357.34	-4.7689
1359.88	-4.40155
1362.43	-0.377673
1364.97	-2.49915
1367.51	-2.09729
1370.06	-2.20275
1372.6	-0.273351
1375.15	-0.842965
1377.69	-3.74821
1380.23	-4.43796
1382.78	-3.29135
1385.32	-2.96146
1387.86	-3.21044
1390.41	-6.39288
1392.95	-6.20851
1395.49	-6.37593
1398.04	-4.15431
1400.58	-4.17978
1403.125	-5.56583
1405.67	-5.85746
1408.21	-5.20449
1410.76	-3.62921
1413.3	-4.39518
1415.84	-8.09399
1418.39	-5.5618
1420.93	-5.35365
1423.47	-4.85254
1426.02	-1.51895
1428.56	-9.25529
1431.1	-6.10713
1433.65	-6.24272
1436.19	-3.24142
1438.74	-2.55786
1441.28	-4.56766
1443.82	-6.70724
1446.37	-7.87623
1448.91	-7.50529
1451.45	-6.35245
1454	-6.39948
1456.54	-7.41909
1459.08	-7.48316
1461.63	-3.02012
1464.17	-4.03792
1466.72	-2.89754
1469.26	-6.47157
1471.8	-5.91009
1474.35	-5.48475
1476.89	-4.51027
1479.43	-6.4961
1481.98	-8.95784
1484.52	-6.66809
1487.06	-6.10178
1489.61	-8.24356
1492.15	-7.16711
1494.69	-9.41956
1497.24	-6.80539
1499.78	-9.22314
1502.33	-4.89587
1504.87	-7.08237
1507.41	-6.91755
1509.96	-9.01342
1512.5	-9.10975
1515.04	-8.1835
1517.59	-6.66421
1520.13	-4.70417
1522.67	-5.11863
1525.22	-6.97087
1527.76	-6.08664
1530.31	-5.19322
1532.85	-6.39715
1535.39	-8.18523
1537.94	-7.81001
1540.48	-8.71328
1543.02	-7.26555
1545.57	-7.31658
1548.11	-5.20828
1550.65	-7.61825
1553.2	-9.07792
1555.74	-8.00867
1558.28	-6.31508
1560.83	-3.84303
1563.37	-2.24826
1565.92	-2.11785
1568.46	-2.04737
1571	-7.4
1573.55	-6.75005
1576.09	-3.03393
1578.63	-5.53609
1581.18	-3.27189
1583.72	-3.93096
1586.26	-5.88682
1588.81	-8.12318
1591.35	-7.55603
1593.9	-5.81903
1596.44	-5.32711
1598.98	-5.51618
1601.53	-3.49392
1604.07	-1.41103
1606.61	-3.04186
1609.16	-5.45398
1611.7	-3.82817
1614.24	-2.5092
1616.79	-7.60677
1619.33	-8.33826
1621.875	-7.71389
1624.42	-5.0792
1626.96	-2.80305
1629.51	-6.21309
1632.05	-6.4
1634.59	-4.53797
1637.14	-4.83716
1639.68	-7.23927
1642.22	-4.65668
1644.77	-6.43674
1647.31	-9.87512
1649.85	-11.3298
1652.4	-9.8962
1654.94	-9.10588
1657.49	-10.8486
1660.03	-11.5137
1662.57	-10.1308
1665.12	-8.56892
1667.66	-9.08018
1670.2	-6.72279
1672.75	-4.9979
1675.29	-9.16843
1677.83	-8.7934
1680.38	-8.6024
1682.92	-7.27946
1685.47	-11.3345
1688.01	-9.40696
1690.55	-12.2431
1693.1	-8.24336
1695.64	-7.37912
1698.18	-5.55744
1700.73	-7.53534
1703.27	-7.77041
1705.81	-9.12464
1708.36	-10.7954
1710.9	-10.318
1713.44	-8.1138
1715.99	-6.22067
1718.53	-9.14639
1721.08	-12.7386
1723.62	-11.6925
1726.16	-8.83652
1728.71	-8.08906
1731.25	-10.1107
1733.79	-9.24857
1736.34	-6.4
1738.88	-6.43322
1741.42	-7.39569
1743.97	-7.78312
1746.51	-8.16834
1749.06	-8.2
1751.6	-8.03057
1754.14	-8.97323
1756.69	-7.03079
1759.23	-7.13906
1761.77	-7.68153
1764.32	-11.0085
1766.86	-10.6993
1769.4	-8.1619
1771.95	-7.99117
1774.49	-7.75042
1777.03	-7.39774
1779.58	-7.42884
1782.12	-7.68966
1784.67	-8.6
1787.21	-7.86782
1789.75	-8.13649
1792.3	-11.0187
1794.84	-10.1667
1797.38	-8.61665
1799.93	-7.4
1802.47	-7.61386
1805.01	-8.68906
1807.56	-9.08157
1810.1	-7.93395
1812.65	-5.42498
1815.19	-9.0301
1817.73	-9.99702
1820.28	-8.4427
1822.82	-6.32093
1825.36	-12.9906
1827.91	-9.68402
1830.45	-8.16417
1832.99	-6.99661
1835.54	-7.93385
1838.08	-7.8866
1840.625	-8.1031
1843.17	-10.1031
1845.71	-10.2346
1848.26	-10.8185
1850.8	-7.51956
1853.34	-7.8784
1855.89	-6.64193
1858.43	-6.05391
1860.97	-6.46287
1863.52	-7.92365
1866.06	-8.67763
1868.6	-6.91405
1871.15	-7.026
1873.69	-8.2201
1876.24	-9.02788
1878.78	-11.7842
1881.32	-11.251
1883.87	-6.98065
1886.41	-7.22152
1888.95	-8.72529
1891.5	-9.70556
1894.04	-10.2283
1896.58	-9.85343
1899.13	-9.8507
1901.67	-9.90664
1904.22	-10.4973
1906.76	-7.02158
1909.3	-9.91885
1911.85	-10.6646
1914.39	-6.85734
1916.93	-7.57988
1919.48	-9.36241
1922.02	-3.22454
1924.56	-8.85317
1927.11	-4.97879
1929.65	-7.66802
1932.19	-8.96574
1934.74	-8.02024
1937.28	-9.00468
1939.83	-9.79393
1942.37	-9.40829
1944.91	-9.01369
1947.46	-7.66547
1950	-9.29377
1952.54	-9.77162
1955.09	-13.4696
1957.63	-10.5381
1960.17	-8.76793
1962.72	-13.7288
1965.26	-10.0308
1967.81	-6.9817
1970.35	-5.91693
1972.89	-8.50173
1975.44	-6.66184
1977.98	-6.03478
1980.52	-9.10631
1983.07	-9.8
1985.61	-6.75601
1988.15	-9.01646
1990.7	-8.38432
1993.24	-6.59714
1995.78	-6.66381
1998.33	-9.71308
2000.87	-11.6645
2003.42	-7.92334
2005.96	-9.29801
2008.5	-7.49148
2011.05	-8.18691
2013.59	-9.62401
2016.13	-6.32296
2018.68	-8.15257
2021.22	-8.87758
2023.76	-8.27519
2026.31	-10.2187
2028.85	-6.82159
2031.4	-7.75971
2033.94	-7.99779
2036.48	-7.72448
2039.03	-6.83751
2041.57	-7.84291
2044.11	-8.77891
2046.66	-10.976
2049.2	-10.592
2051.74	-10.2147
2054.29	-7.83779
2056.83	-8.87139
2059.375	-8.02336
2061.92	-7.37647
2064.46	-10.0156
2067.01	-9.92643
2069.55	-10.4261
2072.09	-9.70918
2074.64	-8.87626
2077.18	-10.0907
2079.72	-9.46241
2082.27	-9.60124
2084.81	-6.86251
2087.35	-6.27959
2089.9	-6.81624
2092.44	-8.01456
2094.99	-6.47876
2097.53	-7.13106
2100.07	-8.76403
2102.62	-7.23137
2105.16	-9.86273
2107.7	-11.2098
2110.25	-8.31986
2112.79	-7.43307
2115.33	-7.14165
2117.88	-7.8997
2120.42	-8.37262
2122.97	-7.30877
2125.51	-5.5155
2128.05	-10.1386
2130.6	-10.2822
2133.14	-7.21754
2135.68	-10.8179
2138.23	-9.34167
2140.77	-6.72936
2143.31	-8.71503
2145.86	-7.43799
2148.4	-9.6032
2150.94	-4.71728
2153.49	-7.6309
2156.03	-7.80154
2158.58	-9.2671
2161.12	-11.479
2163.66	-7.50913
2166.21	-9.3159
2168.75	-6.12607
2171.29	-8.23729
2173.84	-7.02072
2176.38	-5.42999
2178.92	-7.579
2181.47	-7.62249
2184.01	-8.22738
2186.56	-9.39025
2189.1	-8.83661
2191.64	-6.92861
2194.19	-6.88461
2196.73	-7.92198
2199.27	-7.45559
2201.82	-7.59523
2204.36	-7.90981
2206.9	-8.17014
2209.45	-8.63542
2211.99	-6.51015
2214.53	-7.0362
2217.08	-9.16877
2219.62	-10.6434
2222.17	-8.41994
2224.71	-7.61328
2227.25	-7.21937
2229.8	-8.28621
2232.34	-8.16998
2234.88	-8.97379
2237.43	-8.22407
2239.97	-7.37493
2242.51	-8.719
2245.06	-6.03084
2247.6	-5.52844
2250.15	-8.22075
2252.69	-7.36209
2255.23	-7.13566
2257.78	-6.12715
2260.32	-8.50212
2262.86	-5.61771
2265.41	-8.81528
2267.95	-6.2248
2270.49	-8.68372
2273.04	-8.57265
2275.58	-8.27604
2278.125	-6.15113
2280.67	-6.86364
2283.21	-6.99029
2285.76	-7.91098
2288.3	-5.91741
2290.84	-4.84634
2293.39	-7.98913
2295.93	-4.2052
2298.47	-5.83992
2301.02	-6.18991
2303.56	-4.80444
2306.1	-3.85305
2308.65	-6.39147
2311.19	-7.25416
2313.74	-6.44265
2316.28	-6.73211
2318.82	-6.29851
2321.37	-6.48525
2323.91	-5.88721
2326.45	-5.27357
2329	-5.25898
2331.54	-4.92226
2334.08	0.538721
2336.63	1.87808
2339.17	-1.72705
2341.72	-1.97905
2344.26	-7.43286
2346.8	-6.07524
2349.35	-6.61867
2351.89	-6.27648
2354.43	-7.13864
2356.98	-5.2693
2359.52	-4.96409
2362.06	-6.66484
2364.61	-4.98312
2367.15	-3.61826
2369.69	-3.45906
2372.24	-3.82554
2374.78	-3.88599
2377.33	-5.3754
2379.87	-4.52633
2382.41	-3.83647
2384.96	-5.72882
2387.5	-3.45492
2390.04	-3.17068
2392.59	-5.029
2395.13	-4.37186
2397.67	-3.86879
2400.22	-6.20834
2402.76	-6.30094
2405.31	-6.41334
2407.85	-5.41687
2410.39	-5.66399
2412.94	-5.06675
2415.48	-3.0186
2418.02	-3.84128
2420.57	-2.25665
2423.11	-0.793633
2425.65	-1.21068
2428.2	-1.69553
2430.74	2.97774
2433.28	0.294302
2435.83	4.10646
2438.37	5.64165
2440.92	8.22395
2443.46	8.6965
2446	8.23172
2448.55	2.83474
2451.09	1.95342
2453.63	1.43158
2456.18	1.2963
2458.72	0.185061
2461.26	-0.87254
2463.81	-0.523461
2466.35	0.537109
2468.9	0.393408
2471.44	-0.667745
2473.98	-2.34655
2476.53	-3.21432
2479.07	-3.50018
2481.61	-4.01918
2484.16	-2.68958
2486.7	-2.05844
2489.24	-4.45946
2491.79	-2.31374
2494.33	-4.30428
2496.875	-3.28804
2499.42	-1.04619
2501.96	-1.69793
2504.51	-2.35814
2507.05	-2.56942
2509.59	-2.76981
2512.14	-0.590349
2514.68	-1.15414
2517.22	-2.21407
2519.77	-0.766169
2522.31	-1.04254
2524.85	-1.7989
2527.4	-1.07173
2529.94	-3.65174
2532.49	-3.90348
2535.03	-1.72909
2537.57	-0.397732
2540.12	-1.36016
2542.66	-1.51982
2545.2	-0.749789
2547.75	-0.341332
2550.29	-1.19981
2552.83	-2.37588
2555.38	-3.09796
2557.92	-3.03288
2560.47	-4.34404
2563.01	-2.51351
2565.55	-2.69847
2568.1	0.801221
2570.64	-2.34945
2573.18	-1.84202
2575.73	-3.19684
2578.27	-0.879244
2580.81	-1.70126
2583.36	-2.65181
2585.9	-1.88296
2588.44	-3.34717
2590.99	-2.76244
2593.53	-2.43548
2596.08	-1.37537
2598.62	-0.190883
2601.16	0.394409
2603.71	-1.95802
2606.25	-3.22603
2608.79	-1.993
2611.34	-2.64064
2613.88	-1.99046
2616.42	-2.77556
2618.97	-0.787206
2621.51	-2.44872
2624.06	-2.91598
2626.6	-2.02512
2629.14	-1.10159
2631.69	-1.15727
2634.23	-0.366273
2636.77	-0.506927
2639.32	-2.76604
2641.86	-2.50731
2644.4	-0.199176
2646.95	-1.4599
2649.49	-2.26595
2652.03	-3.07793
2654.58	-2.92664
2657.12	-2.99857
2659.67	-1.54538
2662.21	-3.33495
2664.75	-1.13053
2667.3	1.4258
2669.84	-0.242828
2672.38	-1.91428
2674.93	0.72765
2677.47	-1.34503
2680.01	-2.83341
2682.56	-1.87491
2685.1	1.10205
2687.65	0.0506647
2690.19	1.37362
2692.73	0.971408
2695.28	-0.278786
2697.82	-0.633488
2700.36	2.14317
2702.91	1.73586
2705.45	1.59592
2707.99	-0.0945109
2710.54	-1.22789
2713.08	-1.72936
2715.625	-0.194247
2718.17	-1.08618
2720.71	0.645925
2723.26	-0.513975
2725.8	1.15285
2728.34	-0.124795
2730.89	0.42144
2733.43	-0.369192
2735.97	1.30675
2738.52	1.11086
2741.06	1.46889
2743.6	-1.0853
2746.15	-0.324247
2748.69	1.98485
2751.24	0.117693
2753.78	0.864373
2756.32	-0.99882
2758.87	-0.567866
2761.41	-0.776257
2763.95	1.97086
2766.5	-1.40684
2769.04	-0.341367
2771.58	1.86791
2774.13	1.52325
2776.67	1.96141
2779.22	1.00258
2781.76	1.08716
2784.3	-0.0796424
2786.85	-0.11439
2789.39	2.82568
2791.93	0.00899208
2794.48	0.248259
2797.02	1.27107
2799.56	-0.369743
2802.11	0.41367
2804.65	-0.247364
2807.19	0.489937
2809.74	-0.0835984
2812.28	0.500046
2814.83	-1.95613
2817.37	-1.06195
2819.91	4.29805
2822.46	0.362107
2825	1.95756
2827.54	2.40335
2830.09	2.56207
2832.63	1.99043
2835.17	1.05741
2837.72	0.990623
2840.26	0.424563
2842.81	0.971795
2845.35	1.05369
2847.89	3.43048
2850.44	-0.46786
2852.98	1.87444
2855.52	2.88189
2858.07	2.12593
2860.61	0.598324
2863.15	1.59905
2865.7	3.14796
2868.24	5.29536
2870.78	1.63474
2873.33	2.85067
2875.87	2.91239
2878.42	4.44079
2880.96	5.0876
2883.5	1.41558
2886.05	0.710466
2888.59	2.20042
2891.13	0.562442
2893.68	3.71824
2896.22	4.58942
2898.76	-0.283833
2901.31	2.0281
2903.85	2.80775
2906.4	2.72405
2908.94	4.28921
2911.48	2.26382
2914.03	-0.695439
2916.57	4.34725
2919.11	-0.479791
2921.66	-1.17859
2924.2	1.26076
2926.74	0.726483
2929.29	1.77798
2931.83	3.75315
2934.375	3.72609
2936.92	-1.20406
2939.46	-2.56207
2942.01	4.20787
2944.55	2.586
2947.09	1.61546
2949.64	0.465359
2952.18	2.33674
2954.72	2.30164
2957.27	1.06732
2959.81	-1.04875
2962.35	2.49476
2964.9	0.772923
2967.44	2.47219
2969.99	2.1603
2972.53	0.397801
2975.07	3.11049
2977.62	3.14489
2980.16	1.76111
2982.7	2.51914
2985.25	2.71946
2987.79	2.79701
2990.33	3.33256
2992.88	-1.89197
2995.42	-4.14591
2997.97	-2.34207
3000.51	0.14407
3003.05	-0.817036
3005.6	-0.910895
3008.14	3.6247
3010.68	-0.134663
3013.23	2.68391
3015.77	-0.497519
3018.31	-0.440541
3020.86	-0.116089
3023.4	0.473174
3025.94	4.62807
3028.49	0.861452
3031.03	-0.778465
3033.58	0.926679
3036.12	0.721489
3038.66	-0.664776
3041.21	6.03138
3043.75	0.781035
3046.29	5.11798
3048.84	2.62583
3051.38	2.33143
3053.92	2.23208
3056.47	3.26705
3059.01	0.163811
3061.56	1.79333
3064.1	3.28752
3066.64	2.41746
3069.19	1.44052
3071.73	3.50762
3074.27	5.03906
3076.82	0.841494
3079.36	-0.0663834
3081.9	3.10045
3084.45	3.11158
3086.99	0.456676
3089.53	1.02661
3092.08	2.42187
3094.62	2.71365
3097.17	-0.0927296
3099.71	1.92518
3102.25	0.610335
3104.8	-0.697727
3107.34	-0.513019
3109.88	4.48308
3112.43	-0.288491
3114.97	4.00283
3117.51	-0.871381
3120.06	-1.26029
3122.6	1.48654
3125.15	-0.0411682
3127.69	-0.333472
3130.23	1.84937
3132.78	3.0834
3135.32	2.67476
3137.86	0.751966
3140.41	1.44398
3142.95	1.47158
3145.49	3.20749
3148.04	4.03734
3150.58	-0.0185237
3153.125	2.3024
3155.67	0.545617
3158.21	2.09134
3160.76	4.0319
3163.3	3.8755
3165.84	1.42991
3168.39	4.23287
3170.93	2.92521
3173.47	1.88756
3176.02	4.30092
3178.56	2.95379
3181.1	2.4538
3183.65	3.87939
3186.19	2.26344
3188.74	0.708814
3191.28	3.81323
3193.82	3.29685
3196.37	3.71385
3198.91	5.05817
3201.45	5.36872
3204	3.28233
3206.54	6.28391
3209.08	3.79571
3211.63	2.02868
3214.17	1.55421
3216.72	2.61731
3219.26	1.92994
3221.8	3.47566
3224.35	1.95501
3226.89	5.2601
3229.43	0.5104
3231.98	4.49739
3234.52	6.38108
3237.06	4.55323
3239.61	2.30465
3242.15	2.78543
3244.69	6.1807
3247.24	6.68391
3249.78	0.182635
3252.33	1.44416
3254.87	2.01737
3257.41	1.36151
3259.96	0.570637
3262.5	1.07518
3265.04	2.54482
3267.59	3.02132
3270.13	1.35625
3272.67	4.28834
3275.22	3.19595
3277.76	3.07823
3280.31	4.02171
3282.85	3.35848
3285.39	3.97213
3287.94	6.21678
3290.48	4.84115
3293.02	4.87196
3295.57	3.80898
3298.11	3.87193
3300.65	0.968436
3303.2	3.61958
3305.74	4.70939
3308.28	6.31659
3310.83	2.75137
3313.37	1.57189
3315.92	-0.886667
3318.46	1.81821
3321	1.23838
3323.55	1.90372
3326.09	2.52523
3328.63	3.68391
3331.18	1.79135
3333.72	3.59693
3336.26	4.08641
3338.81	2.95097
3341.35	5.00022
3343.9	0.578743
3346.44	2.46074
3348.98	4.70306
3351.53	2.9622
3354.07	1.33379
3356.61	2.5188
3359.16	3.39328
3361.7	1.49163
3364.24	2.84685
3366.79	5.92515
3369.33	4.22268
3371.875	3.84677
3374.42	2.99759
3376.96	3.0641
3379.51	3.3359
3382.05	3.22788
3384.59	2.6792
3387.14	4.85973
3389.68	4.28353
3392.22	1.76049
3394.77	4.61216
3397.31	2.56183
3399.85	5.2811
3402.4	4.66413
3404.94	7.75604
3407.49	4.02446
3410.03	1.38745
3412.57	4.05363
3415.12	5.17604
3417.66	1.40921
3420.2	5.66098
3422.75	4.62223
3425.29	2.88427
3427.83	5.44501
3430.38	2.57359
3432.92	5.76726
3435.47	3.81565
3438.01	2.46284
3440.55	3.28541
3443.1	1.75323
3445.64	5.54917
3448.18	2.40259
3450.73	5.87213
3453.27	4.79405
3455.81	10.9449
3458.36	4.47352
3460.9	4.0328
3463.44	3.55455
3465.99	4.66502
3468.53	5.42459
3471.08	5.91614
3473.62	3.44192
3476.16	3.71702
3478.71	5.89962
3481.25	6.33531
3483.79	7.87267
3486.34	0.434284
3488.88	4.11865
3491.42	3.07853
3493.97	3.05994
3496.51	7.79334
3499.06	5.03353
3501.6	6.38147
3504.14	3.64466
3506.69	2.46615
3509.23	4.36592
3511.77	3.28841
3514.32	2.67015
3516.86	2.48391
3519.4	0.388614
3521.95	5.32774
3524.49	4.89646
3527.03	3.78978
3529.58	5.09164
3532.12	4.10046
3534.67	8.18629
3537.21	7.31329
3539.75	1.86294
3542.3	3.5291
3544.84	9.71786
3547.38	4.79649
3549.93	4.48892
3552.47	3.59967
3555.01	8.66989
3557.56	5.82738
3560.1	5.48391
3562.65	6.74767
3565.19	3.41217
3567.73	8.05024
3570.28	3.44993
3572.82	4.13038
3575.36	9.67445
3577.91	9.09511
3580.45	4.86808
3582.99	6.35498
3585.54	6.95223
3588.08	8.75355
3590.625	7.90146
3593.17	7.99416
3595.71	7.48496
3598.26	6.71865
3600.8	7.98383
3603.34	5.4026
3605.89	5.77364
3608.43	4.50285
3610.97	4.37495
3613.52	7.4755
3616.06	5.43235
3618.6	11.765
3621.15	6.51936
3623.69	5.30316
3626.24	4.18136
3628.78	7.55572
3631.32	4.62791
3633.87	6.4039
3636.41	8.16412
3638.95	4.69032
3641.5	3.90628
3644.04	4.21019
3646.58	6.00704
3649.13	6.64501
3651.67	5.74669
3654.22	6.22021
3656.76	4.62802
3659.3	8.89315
3661.85	6.21109
3664.39	6.08391
3666.93	5.25106
3669.48	7.6654
3672.02	4.92697
3674.56	7.21156
3677.11	6.04398
3679.65	5.13612
3682.19	9.03437
3684.74	6.74571
3687.28	6.0649
3689.83	5.53176
3692.37	9.37627
3694.91	8.34717
3697.46	3.72462
3700	6.80221