File: Example Data/Silver Reactive Inks/XRD/silver 50C.csv
[Measurement conditions]
Sample identification,
Comment - 1,"Configuration=Powder Diffraction, Owner=User-1, Creation date=6/3/2009 8:49:36 AM"
Comment - 2,"Goniometer=PW3050/65 (Theta/2Theta); Minimum step size 2Theta:0.0001; Minimum step size Omega:0.0001"
Comment - 3,"Sample stage=MRD Cradle; Minimum step size Phi:0.01; Minimum step size Chi:0.01; Minimum step size X:0.01; Minimum step size Y:0.01; Minimum step size Z:0.001"
Comment - 4,"Diffractometer system=XPERT-PRO"
Comment - 5,"Measurement program=C:\PANalytical\Data Collector\Programs\powder_scan_49.xrdmp, Identifier={12387B94-FF5E-46B4-B2C7-B6F75F9A12C1}"
Anode material,Cu
K-Alpha1 wavelength,1.5406
K-Alpha2 wavelength,1.54443
Ratio K-Alpha2/K-Alpha1,0.500
Divergence slit,Fixed,0.38mm
Monochromator used,NO
Generator voltage, 45
Tube current, 40
File date and time,08/Apr/2015 15:06
Unit cell,
h k l, 0 0 0
Scan axis,Gonio
Scan range,20,80.0102
Scan step size,0.0376004
No. of points, 1596
Scan type,CONTINUOUS
Phi,0.00
Psi,0.00
X,0.00
Y,0.00
Z,6.864
Time per step,63.500
[Scan points]
Angle,Intensity
20.0188,230.0
20.094,241.0
20.1692,205.0
20.2444,225.0
20.3196,231.0
20.3948,221.0
20.47,198.0
20.5452,212.0
20.6204,236.0
20.6956,247.0
20.7708,277.0
20.846,253.0
20.9212,261.0
20.9964,224.0
21.0716,238.0
21.1468,270.0
21.222,236.0
21.2972,221.0
21.3724,261.0
21.4476,213.0
21.5228,232.0
21.598,246.0
21.6732,257.0
21.7484,248.0
21.8236,253.0
21.8988,247.0
21.974,236.0
22.0492,244.0
22.1244,224.0
22.1996,206.0
22.2748,225.0
22.35,268.0
22.4252,225.0
22.5004,238.0
22.5756,240.0
22.6508,246.0
22.726,222.0
22.8012,219.0
22.8764,212.0
22.9516,234.0
23.0268,216.0
23.102,246.0
23.1772,190.0
23.2524,213.0
23.3276,229.0
23.4028,215.0
23.478,231.0
23.5532,195.0
23.6284,234.0
23.7036,188.0
23.7788,208.0
23.854,239.0
23.9292,204.0
24.0044,235.0
24.0796,198.0
24.1548,225.0
24.23,221.0
24.3052,244.0
24.3804,203.0
24.4556,239.0
24.5308,226.0
24.606,210.0
24.6812,186.0
24.7564,199.0
24.8316,202.0
24.9068,225.0
24.982,191.0
25.0572,217.0
25.1324,238.0
25.2076,210.0
25.2828,217.0
25.3581,198.0
25.4333,213.0
25.5085,202.0
25.5837,182.0
25.6589,189.0
25.7341,202.0
25.8093,191.0
25.8845,171.0
25.9597,182.0
26.0349,227.0
26.1101,213.0
26.1853,192.0
26.2605,178.0
26.3357,198.0
26.4109,216.0
26.4861,205.0
26.5613,196.0
26.6365,176.0
26.7117,197.0
26.7869,189.0
26.8621,178.0
26.9373,214.0
27.0125,206.0
27.0877,157.0
27.1629,152.0
27.2381,186.0
27.3133,192.0
27.3885,174.0
27.4637,163.0
27.5389,204.0
27.6141,203.0
27.6893,164.0
27.7645,190.0
27.8397,176.0
27.9149,171.0
27.9901,187.0
28.0653,210.0
28.1405,199.0
28.2157,170.0
28.2909,216.0
28.3661,180.0
28.4413,183.0
28.5165,206.0
28.5917,212.0
28.6669,183.0
28.7421,158.0
28.8173,158.0
28.8925,148.0
28.9677,175.0
29.0429,165.0
29.1181,157.0
29.1933,199.0
29.2685,219.0
29.3437,197.0
29.4189,185.0
29.4941,188.0
29.5693,151.0
29.6445,170.0
29.7197,170.0
29.7949,165.0
29.8701,175.0
29.9453,178.0
30.0205,179.0
30.0957,132.0
30.1709,175.0
30.2461,170.0
30.3213,153.0
30.3965,161.0
30.4717,154.0
30.5469,169.0
30.6221,183.0
30.6973,165.0
30.7725,176.0
30.8477,138.0
30.9229,147.0
30.9981,154.0
31.0733,144.0
31.1485,139.0
31.2237,138.0
31.2989,170.0
31.3741,143.0
31.4493,177.0
31.5245,143.0
31.5997,120.0
31.6749,174.0
31.7501,145.0
31.8253,167.0
31.9005,156.0
31.9757,175.0
32.0509,156.0
32.1261,147.0
32.2013,151.0
32.2765,145.0
32.3517,136.0
32.4269,151.0
32.5021,175.0
32.5773,176.0
32.6525,126.0
32.7277,147.0
32.8029,134.0
32.8781,156.0
32.9533,151.0
33.0285,131.0
33.1037,122.0
33.1789,151.0
33.2541,160.0
33.3293,153.0
33.4045,157.0
33.4797,158.0
33.5549,141.0
33.6301,130.0
33.7053,150.0
33.7805,136.0
33.8557,121.0
33.9309,164.0
34.0061,164.0
34.0813,107.0
34.1565,159.0
34.2317,156.0
34.3069,136.0
34.3821,141.0
34.4573,134.0
34.5325,135.0
34.6077,123.0
34.6829,137.0
34.7581,137.0
34.8333,109.0
34.9085,99.0
34.9837,156.0
35.0589,147.0
35.1341,127.0
35.2093,133.0
35.2845,137.0
35.3597,121.0
35.4349,113.0
35.5101,137.0
35.5853,134.0
35.6605,126.0
35.7357,110.0
35.8109,145.0
35.8861,144.0
35.9614,134.0
36.0366,119.0
36.1118,127.0
36.187,126.0
36.2622,128.0
36.3374,139.0
36.4126,160.0
36.4878,143.0
36.563,148.0
36.6382,145.0
36.7134,147.0
36.7886,135.0
36.8638,147.0
36.939,161.0
37.0142,156.0
37.0894,159.0
37.1646,150.0
37.2398,132.0
37.315,147.0
37.3902,149.0
37.4654,172.0
37.5406,174.0
37.6158,185.0
37.691,208.0
37.7662,261.0
37.8414,355.0
37.9166,579.0
37.9918,1042.0
38.067,3064.0
38.1422,3001.0
38.2174,2152.0
38.2926,792.0
38.3678,411.0
38.443,290.0
38.5182,239.0
38.5934,190.0
38.6686,186.0
38.7438,162.0
38.819,177.0
38.8942,149.0
38.9694,158.0
39.0446,154.0
39.1198,133.0
39.195,122.0
39.2702,139.0
39.3454,121.0
39.4206,135.0
39.4958,137.0
39.571,118.0
39.6462,135.0
39.7214,105.0
39.7966,105.0
39.8718,110.0
39.947,125.0
40.0222,118.0
40.0974,112.0
40.1726,115.0
40.2478,135.0
40.323,92.0
40.3982,109.0
40.4734,107.0
40.5486,120.0
40.6238,120.0
40.699,119.0
40.7742,108.0
40.8494,127.0
40.9246,124.0
40.9998,117.0
41.075,113.0
41.1502,120.0
41.2254,107.0
41.3006,94.0
41.3758,113.0
41.451,119.0
41.5262,96.0
41.6014,123.0
41.6766,114.0
41.7518,106.0
41.827,135.0
41.9022,124.0
41.9774,117.0
42.0526,130.0
42.1278,113.0
42.203,123.0
42.2782,133.0
42.3534,107.0
42.4286,128.0
42.5038,106.0
42.579,131.0
42.6542,125.0
42.7294,120.0
42.8046,127.0
42.8798,128.0
42.955,141.0
43.0302,130.0
43.1054,136.0
43.1806,131.0
43.2558,117.0
43.331,136.0
43.4062,127.0
43.4814,137.0
43.5566,134.0
43.6318,144.0
43.707,146.0
43.7822,172.0
43.8574,178.0
43.9326,221.0
44.0078,246.0
44.083,398.0
44.1582,554.0
44.2334,1096.0
44.3086,1193.0
44.3838,964.0
44.459,651.0
44.5342,368.0
44.6094,257.0
44.6846,189.0
44.7598,167.0
44.835,173.0
44.9102,143.0
44.9854,125.0
45.0606,133.0
45.1358,132.0
45.211,132.0
45.2862,128.0
45.3614,107.0
45.4366,112.0
45.5118,100.0
45.587,99.0
45.6622,127.0
45.7374,113.0
45.8126,110.0
45.8878,110.0
45.963,119.0
46.0382,114.0
46.1134,108.0
46.1886,94.0
46.2638,109.0
46.339,111.0
46.4142,99.0
46.4894,108.0
46.5647,107.0
46.6399,74.0
46.7151,95.0
46.7903,81.0
46.8655,78.0
46.9407,108.0
47.0159,96.0
47.0911,71.0
47.1663,89.0
47.2415,93.0
47.3167,98.0
47.3919,99.0
47.4671,92.0
47.5423,99.0
47.6175,98.0
47.6927,91.0
47.7679,92.0
47.8431,78.0
47.9183,73.0
47.9935,96.0
48.0687,88.0
48.1439,100.0
48.2191,97.0
48.2943,98.0
48.3695,95.0
48.4447,98.0
48.5199,85.0
48.5951,98.0
48.6703,95.0
48.7455,93.0
48.8207,86.0
48.8959,81.0
48.9711,81.0
49.0463,87.0
49.1215,92.0
49.1967,94.0
49.2719,85.0
49.3471,70.0
49.4223,63.0
49.4975,88.0
49.5727,83.0
49.6479,83.0
49.7231,76.0
49.7983,62.0
49.8735,76.0
49.9487,84.0
50.0239,76.0
50.0991,66.0
50.1743,70.0
50.2495,72.0
50.3247,82.0
50.3999,79.0
50.4751,85.0
50.5503,81.0
50.6255,78.0
50.7007,97.0
50.7759,81.0
50.8511,87.0
50.9263,70.0
51.0015,84.0
51.0767,73.0
51.1519,80.0
51.2271,93.0
51.3023,83.0
51.3775,56.0
51.4527,75.0
51.5279,74.0
51.6031,70.0
51.6783,69.0
51.7535,69.0
51.8287,81.0
51.9039,80.0
51.9791,68.0
52.0543,68.0
52.1295,80.0
52.2047,93.0
52.2799,82.0
52.3551,67.0
52.4303,63.0
52.5055,75.0
52.5807,84.0
52.6559,55.0
52.7311,63.0
52.8063,68.0
52.8815,71.0
52.9567,83.0
53.0319,70.0
53.1071,82.0
53.1823,72.0
53.2575,66.0
53.3327,56.0
53.4079,52.0
53.4831,73.0
53.5583,58.0
53.6335,56.0
53.7087,62.0
53.7839,68.0
53.8591,74.0
53.9343,61.0
54.0095,82.0
54.0847,69.0
54.1599,62.0
54.2351,61.0
54.3103,65.0
54.3855,71.0
54.4607,69.0
54.5359,59.0
54.6111,75.0
54.6863,55.0
54.7615,53.0
54.8367,70.0
54.9119,61.0
54.9871,73.0
55.0623,67.0
55.1375,58.0
55.2127,71.0
55.2879,74.0
55.3631,91.0
55.4383,70.0
55.5135,81.0
55.5887,76.0
55.6639,76.0
55.7391,73.0
55.8143,68.0
55.8895,70.0
55.9647,71.0
56.0399,68.0
56.1151,70.0
56.1903,63.0
56.2655,75.0
56.3407,54.0
56.4159,58.0
56.4911,56.0
56.5663,67.0
56.6415,59.0
56.7167,66.0
56.7919,68.0
56.8671,63.0
56.9423,63.0
57.0175,58.0
57.0927,82.0
57.168,81.0
57.2432,62.0
57.3184,65.0
57.3936,76.0
57.4688,71.0
57.544,56.0
57.6192,65.0
57.6944,80.0
57.7696,69.0
57.8448,74.0
57.92,54.0
57.9952,59.0
58.0704,58.0
58.1456,53.0
58.2208,65.0
58.296,54.0
58.3712,57.0
58.4464,75.0
58.5216,70.0
58.5968,67.0
58.672,49.0
58.7472,39.0
58.8224,53.0
58.8976,54.0
58.9728,78.0
59.048,58.0
59.1232,75.0
59.1984,67.0
59.2736,69.0
59.3488,62.0
59.424,68.0
59.4992,62.0
59.5744,67.0
59.6496,63.0
59.7248,61.0
59.8,67.0
59.8752,60.0
59.9504,59.0
60.0256,83.0
60.1008,58.0
60.176,65.0
60.2512,58.0
60.3264,69.0
60.4016,66.0
60.4768,62.0
60.552,71.0
60.6272,63.0
60.7024,54.0
60.7776,55.0
60.8528,72.0
60.928,52.0
61.0032,60.0
61.0784,55.0
61.1536,76.0
61.2288,52.0
61.304,72.0
61.3792,71.0
61.4544,66.0
61.5296,88.0
61.6048,134.0
61.68,221.0
61.7552,71.0
61.8304,62.0
61.9056,72.0
61.9808,68.0
62.056,67.0
62.1312,84.0
62.2064,53.0
62.2816,67.0
62.3568,67.0
62.432,71.0
62.5072,60.0
62.5824,57.0
62.6576,62.0
62.7328,61.0
62.808,58.0
62.8832,54.0
62.9584,56.0
63.0336,56.0
63.1088,74.0
63.184,54.0
63.2592,69.0
63.3344,72.0
63.4096,65.0
63.4848,73.0
63.56,67.0
63.6352,73.0
63.7104,82.0
63.7856,87.0
63.8608,70.0
63.936,81.0
64.0112,118.0
64.0864,121.0
64.1616,136.0
64.2368,211.0
64.312,360.0
64.3872,736.0
64.4624,759.0
64.5376,570.0
64.6128,550.0
64.688,332.0
64.7632,217.0
64.8384,159.0
64.9136,98.0
64.9888,104.0
65.064,93.0
65.1392,78.0
65.2144,97.0
65.2896,84.0
65.3648,83.0
65.44,71.0
65.5152,78.0
65.5904,81.0
65.6656,69.0
65.7408,73.0
65.816,72.0
65.8912,69.0
65.9664,62.0
66.0416,65.0
66.1168,86.0
66.192,74.0
66.2672,76.0
66.3424,71.0
66.4176,101.0
66.4928,170.0
66.568,154.0
66.6432,130.0
66.7184,150.0
66.7936,157.0
66.8688,178.0
66.944,148.0
67.0192,175.0
67.0944,173.0
67.1696,153.0
67.2448,135.0
67.32,156.0
67.3952,183.0
67.4704,179.0
67.5456,170.0
67.6208,176.0
67.696,178.0
67.7712,182.0
67.8465,169.0
67.9217,187.0
67.9969,191.0
68.0721,210.0
68.1473,232.0
68.2225,227.0
68.2977,252.0
68.3729,269.0
68.4481,268.0
68.5233,325.0
68.5985,395.0
68.6737,534.0
68.7489,959.0
68.8241,995.0
68.8993,1259.0
68.9745,2846.0
69.0497,16964.0
69.1249,51518.0
69.2001,6050.0
69.2753,33831.0
69.3505,8252.0
69.4257,1849.0
69.5009,946.0
69.5761,576.0
69.6513,485.0
69.7265,429.0
69.8017,377.0
69.8769,302.0
69.9521,270.0
70.0273,261.0
70.1025,228.0
70.1777,213.0
70.2529,215.0
70.3281,201.0
70.4033,206.0
70.4785,150.0
70.5537,187.0
70.6289,137.0
70.7041,157.0
70.7793,164.0
70.8545,135.0
70.9297,136.0
71.0049,144.0
71.0801,144.0
71.1553,136.0
71.2305,133.0
71.3057,128.0
71.3809,115.0
71.4561,134.0
71.5313,109.0
71.6065,132.0
71.6817,127.0
71.7569,143.0
71.8321,120.0
71.9073,104.0
71.9825,117.0
72.0577,120.0
72.1329,122.0
72.2081,111.0
72.2833,95.0
72.3585,124.0
72.4337,102.0
72.5089,127.0
72.5841,105.0
72.6593,97.0
72.7345,91.0
72.8097,109.0
72.8849,108.0
72.9601,75.0
73.0353,102.0
73.1105,110.0
73.1857,99.0
73.2609,83.0
73.3361,86.0
73.4113,98.0
73.4865,82.0
73.5617,92.0
73.6369,66.0
73.7121,96.0
73.7873,105.0
73.8625,102.0
73.9377,74.0
74.0129,85.0
74.0881,95.0
74.1633,87.0
74.2385,71.0
74.3137,85.0
74.3889,96.0
74.4641,97.0
74.5393,82.0
74.6145,66.0
74.6897,69.0
74.7649,95.0
74.8401,78.0
74.9153,86.0
74.9905,84.0
75.0657,78.0
75.1409,86.0
75.2161,93.0
75.2913,78.0
75.3665,73.0
75.4417,99.0
75.5169,92.0
75.5921,105.0
75.6673,68.0
75.7425,76.0
75.8177,72.0
75.8929,81.0
75.9681,98.0
76.0433,92.0
76.1185,85.0
76.1937,69.0
76.2689,92.0
76.3441,74.0
76.4193,85.0
76.4945,87.0
76.5697,89.0
76.6449,94.0
76.7201,101.0
76.7953,99.0
76.8705,121.0
76.9457,128.0
77.0209,167.0
77.0961,202.0
77.1713,241.0
77.2465,400.0
77.3217,667.0
77.3969,772.0
77.4721,529.0
77.5473,535.0
77.6225,484.0
77.6977,286.0
77.7729,224.0
77.8481,174.0
77.9233,173.0
77.9985,112.0
78.0737,95.0
78.1489,101.0
78.2241,92.0
78.2993,92.0
78.3745,74.0
78.4498,76.0
78.525,73.0
78.6002,72.0
78.6754,87.0
78.7506,84.0
78.8258,65.0
78.901,81.0
78.9762,65.0
79.0514,61.0
79.1266,56.0
79.2018,60.0
79.277,82.0
79.3522,69.0
79.4274,81.0
79.5026,63.0
79.5778,60.0
79.653,69.0
79.7282,73.0
79.8034,65.0
79.8786,66.0
79.9538,70.0
79.9914,60.0