File: Example Data/Silver Reactive Inks/XRD/silver 35C.csv
[Measurement conditions]
Sample identification,
Comment - 1,"Configuration=Powder Diffraction, Owner=User-1, Creation date=6/3/2009 8:49:36 AM"
Comment - 2,"Goniometer=PW3050/65 (Theta/2Theta); Minimum step size 2Theta:0.0001; Minimum step size Omega:0.0001"
Comment - 3,"Sample stage=MRD Cradle; Minimum step size Phi:0.01; Minimum step size Chi:0.01; Minimum step size X:0.01; Minimum step size Y:0.01; Minimum step size Z:0.001"
Comment - 4,"Diffractometer system=XPERT-PRO"
Comment - 5,"Measurement program=C:\PANalytical\Data Collector\Programs\powder_scan_49.xrdmp, Identifier={12387B94-FF5E-46B4-B2C7-B6F75F9A12C1}"
Anode material,Cu
K-Alpha1 wavelength,1.5406
K-Alpha2 wavelength,1.54443
Ratio K-Alpha2/K-Alpha1,0.500
Divergence slit,Fixed,0.38mm
Monochromator used,NO
Generator voltage, 45
Tube current, 40
File date and time,08/Apr/2015 16:19
Unit cell,
h k l, 0 0 0
Scan axis,Gonio
Scan range,20,80.0102
Scan step size,0.0376004
No. of points, 1596
Scan type,CONTINUOUS
Phi,0.00
Psi,0.00
X,0.00
Y,0.00
Z,6.920
Time per step,63.500
[Scan points]
Angle,Intensity
20.0188,278.0
20.094,309.0
20.1692,274.0
20.2444,313.0
20.3196,298.0
20.3948,256.0
20.47,280.0
20.5452,305.0
20.6204,340.0
20.6956,314.0
20.7708,300.0
20.846,307.0
20.9212,303.0
20.9964,340.0
21.0716,353.0
21.1468,321.0
21.222,305.0
21.2972,327.0
21.3724,305.0
21.4476,298.0
21.5228,276.0
21.598,285.0
21.6732,300.0
21.7484,350.0
21.8236,326.0
21.8988,291.0
21.974,296.0
22.0492,317.0
22.1244,316.0
22.1996,319.0
22.2748,264.0
22.35,298.0
22.4252,266.0
22.5004,309.0
22.5756,308.0
22.6508,282.0
22.726,317.0
22.8012,287.0
22.8764,309.0
22.9516,312.0
23.0268,283.0
23.102,322.0
23.1772,250.0
23.2524,292.0
23.3276,277.0
23.4028,295.0
23.478,302.0
23.5532,305.0
23.6284,308.0
23.7036,290.0
23.7788,279.0
23.854,307.0
23.9292,307.0
24.0044,269.0
24.0796,253.0
24.1548,265.0
24.23,254.0
24.3052,282.0
24.3804,261.0
24.4556,269.0
24.5308,282.0
24.606,254.0
24.6812,250.0
24.7564,307.0
24.8316,301.0
24.9068,291.0
24.982,288.0
25.0572,276.0
25.1324,263.0
25.2076,266.0
25.2828,263.0
25.3581,247.0
25.4333,252.0
25.5085,283.0
25.5837,277.0
25.6589,234.0
25.7341,231.0
25.8093,274.0
25.8845,255.0
25.9597,280.0
26.0349,241.0
26.1101,230.0
26.1853,298.0
26.2605,228.0
26.3357,269.0
26.4109,232.0
26.4861,242.0
26.5613,246.0
26.6365,226.0
26.7117,218.0
26.7869,231.0
26.8621,244.0
26.9373,235.0
27.0125,257.0
27.0877,216.0
27.1629,253.0
27.2381,250.0
27.3133,226.0
27.3885,212.0
27.4637,247.0
27.5389,241.0
27.6141,243.0
27.6893,255.0
27.7645,249.0
27.8397,241.0
27.9149,238.0
27.9901,213.0
28.0653,222.0
28.1405,234.0
28.2157,234.0
28.2909,230.0
28.3661,244.0
28.4413,230.0
28.5165,216.0
28.5917,224.0
28.6669,231.0
28.7421,230.0
28.8173,204.0
28.8925,195.0
28.9677,208.0
29.0429,214.0
29.1181,219.0
29.1933,241.0
29.2685,219.0
29.3437,202.0
29.4189,215.0
29.4941,193.0
29.5693,189.0
29.6445,216.0
29.7197,198.0
29.7949,206.0
29.8701,205.0
29.9453,212.0
30.0205,172.0
30.0957,222.0
30.1709,214.0
30.2461,214.0
30.3213,215.0
30.3965,203.0
30.4717,216.0
30.5469,197.0
30.6221,201.0
30.6973,200.0
30.7725,195.0
30.8477,200.0
30.9229,195.0
30.9981,205.0
31.0733,192.0
31.1485,191.0
31.2237,208.0
31.2989,159.0
31.3741,209.0
31.4493,187.0
31.5245,201.0
31.5997,212.0
31.6749,178.0
31.7501,186.0
31.8253,180.0
31.9005,172.0
31.9757,198.0
32.0509,172.0
32.1261,186.0
32.2013,169.0
32.2765,186.0
32.3517,171.0
32.4269,193.0
32.5021,190.0
32.5773,196.0
32.6525,202.0
32.7277,173.0
32.8029,202.0
32.8781,195.0
32.9533,228.0
33.0285,154.0
33.1037,170.0
33.1789,175.0
33.2541,182.0
33.3293,166.0
33.4045,166.0
33.4797,166.0
33.5549,187.0
33.6301,188.0
33.7053,167.0
33.7805,169.0
33.8557,188.0
33.9309,174.0
34.0061,156.0
34.0813,172.0
34.1565,183.0
34.2317,161.0
34.3069,148.0
34.3821,182.0
34.4573,189.0
34.5325,182.0
34.6077,160.0
34.6829,185.0
34.7581,149.0
34.8333,144.0
34.9085,163.0
34.9837,144.0
35.0589,157.0
35.1341,163.0
35.2093,183.0
35.2845,147.0
35.3597,176.0
35.4349,130.0
35.5101,179.0
35.5853,160.0
35.6605,166.0
35.7357,149.0
35.8109,149.0
35.8861,153.0
35.9614,151.0
36.0366,176.0
36.1118,165.0
36.187,158.0
36.2622,137.0
36.3374,179.0
36.4126,148.0
36.4878,173.0
36.563,167.0
36.6382,154.0
36.7134,143.0
36.7886,178.0
36.8638,164.0
36.939,151.0
37.0142,173.0
37.0894,156.0
37.1646,173.0
37.2398,186.0
37.315,178.0
37.3902,163.0
37.4654,184.0
37.5406,175.0
37.6158,246.0
37.691,238.0
37.7662,321.0
37.8414,399.0
37.9166,645.0
37.9918,1412.0
38.067,3241.0
38.1422,2681.0
38.2174,1743.0
38.2926,772.0
38.3678,452.0
38.443,352.0
38.5182,277.0
38.5934,201.0
38.6686,238.0
38.7438,193.0
38.819,195.0
38.8942,159.0
38.9694,166.0
39.0446,162.0
39.1198,164.0
39.195,150.0
39.2702,143.0
39.3454,163.0
39.4206,167.0
39.4958,184.0
39.571,135.0
39.6462,147.0
39.7214,134.0
39.7966,131.0
39.8718,158.0
39.947,126.0
40.0222,121.0
40.0974,132.0
40.1726,140.0
40.2478,140.0
40.323,125.0
40.3982,147.0
40.4734,140.0
40.5486,118.0
40.6238,147.0
40.699,106.0
40.7742,131.0
40.8494,132.0
40.9246,160.0
40.9998,136.0
41.075,118.0
41.1502,124.0
41.2254,112.0
41.3006,128.0
41.3758,106.0
41.451,107.0
41.5262,106.0
41.6014,127.0
41.6766,123.0
41.7518,115.0
41.827,127.0
41.9022,118.0
41.9774,130.0
42.0526,121.0
42.1278,104.0
42.203,124.0
42.2782,122.0
42.3534,125.0
42.4286,144.0
42.5038,136.0
42.579,139.0
42.6542,121.0
42.7294,114.0
42.8046,124.0
42.8798,106.0
42.955,133.0
43.0302,136.0
43.1054,126.0
43.1806,125.0
43.2558,140.0
43.331,123.0
43.4062,134.0
43.4814,150.0
43.5566,160.0
43.6318,156.0
43.707,156.0
43.7822,170.0
43.8574,180.0
43.9326,240.0
44.0078,286.0
44.083,361.0
44.1582,539.0
44.2334,869.0
44.3086,924.0
44.3838,734.0
44.459,461.0
44.5342,315.0
44.6094,237.0
44.6846,183.0
44.7598,167.0
44.835,156.0
44.9102,146.0
44.9854,157.0
45.0606,114.0
45.1358,118.0
45.211,92.0
45.2862,128.0
45.3614,123.0
45.4366,128.0
45.5118,111.0
45.587,114.0
45.6622,127.0
45.7374,137.0
45.8126,117.0
45.8878,121.0
45.963,124.0
46.0382,109.0
46.1134,147.0
46.1886,122.0
46.2638,99.0
46.339,112.0
46.4142,130.0
46.4894,107.0
46.5647,96.0
46.6399,133.0
46.7151,113.0
46.7903,105.0
46.8655,94.0
46.9407,94.0
47.0159,91.0
47.0911,118.0
47.1663,94.0
47.2415,108.0
47.3167,111.0
47.3919,97.0
47.4671,89.0
47.5423,96.0
47.6175,102.0
47.6927,95.0
47.7679,107.0
47.8431,96.0
47.9183,95.0
47.9935,99.0
48.0687,115.0
48.1439,104.0
48.2191,115.0
48.2943,101.0
48.3695,93.0
48.4447,85.0
48.5199,97.0
48.5951,93.0
48.6703,91.0
48.7455,94.0
48.8207,107.0
48.8959,98.0
48.9711,100.0
49.0463,89.0
49.1215,95.0
49.1967,89.0
49.2719,81.0
49.3471,88.0
49.4223,84.0
49.4975,78.0
49.5727,96.0
49.6479,89.0
49.7231,94.0
49.7983,86.0
49.8735,74.0
49.9487,82.0
50.0239,72.0
50.0991,76.0
50.1743,100.0
50.2495,87.0
50.3247,91.0
50.3999,96.0
50.4751,84.0
50.5503,91.0
50.6255,92.0
50.7007,71.0
50.7759,88.0
50.8511,93.0
50.9263,81.0
51.0015,63.0
51.0767,84.0
51.1519,75.0
51.2271,95.0
51.3023,74.0
51.3775,67.0
51.4527,84.0
51.5279,69.0
51.6031,76.0
51.6783,91.0
51.7535,78.0
51.8287,93.0
51.9039,83.0
51.9791,86.0
52.0543,75.0
52.1295,86.0
52.2047,78.0
52.2799,81.0
52.3551,72.0
52.4303,95.0
52.5055,82.0
52.5807,81.0
52.6559,73.0
52.7311,92.0
52.8063,75.0
52.8815,72.0
52.9567,67.0
53.0319,61.0
53.1071,79.0
53.1823,86.0
53.2575,69.0
53.3327,63.0
53.4079,74.0
53.4831,61.0
53.5583,80.0
53.6335,72.0
53.7087,80.0
53.7839,71.0
53.8591,70.0
53.9343,75.0
54.0095,68.0
54.0847,76.0
54.1599,68.0
54.2351,53.0
54.3103,86.0
54.3855,72.0
54.4607,101.0
54.5359,76.0
54.6111,56.0
54.6863,85.0
54.7615,52.0
54.8367,76.0
54.9119,59.0
54.9871,79.0
55.0623,84.0
55.1375,69.0
55.2127,65.0
55.2879,66.0
55.3631,72.0
55.4383,55.0
55.5135,55.0
55.5887,72.0
55.6639,72.0
55.7391,57.0
55.8143,76.0
55.8895,79.0
55.9647,67.0
56.0399,82.0
56.1151,91.0
56.1903,63.0
56.2655,70.0
56.3407,66.0
56.4159,78.0
56.4911,62.0
56.5663,56.0
56.6415,63.0
56.7167,63.0
56.7919,55.0
56.8671,72.0
56.9423,70.0
57.0175,69.0
57.0927,63.0
57.168,57.0
57.2432,60.0
57.3184,54.0
57.3936,71.0
57.4688,62.0
57.544,63.0
57.6192,61.0
57.6944,55.0
57.7696,74.0
57.8448,63.0
57.92,71.0
57.9952,69.0
58.0704,67.0
58.1456,67.0
58.2208,52.0
58.296,49.0
58.3712,54.0
58.4464,54.0
58.5216,56.0
58.5968,57.0
58.672,72.0
58.7472,58.0
58.8224,67.0
58.8976,69.0
58.9728,58.0
59.048,57.0
59.1232,70.0
59.1984,60.0
59.2736,73.0
59.3488,60.0
59.424,46.0
59.4992,60.0
59.5744,57.0
59.6496,48.0
59.7248,46.0
59.8,62.0
59.8752,50.0
59.9504,68.0
60.0256,58.0
60.1008,65.0
60.176,68.0
60.2512,57.0
60.3264,62.0
60.4016,49.0
60.4768,59.0
60.552,66.0
60.6272,43.0
60.7024,48.0
60.7776,71.0
60.8528,54.0
60.928,56.0
61.0032,62.0
61.0784,67.0
61.1536,96.0
61.2288,61.0
61.304,84.0
61.3792,78.0
61.4544,71.0
61.5296,104.0
61.6048,254.0
61.68,1066.0
61.7552,171.0
61.8304,85.0
61.9056,76.0
61.9808,57.0
62.056,58.0
62.1312,81.0
62.2064,80.0
62.2816,96.0
62.3568,56.0
62.432,74.0
62.5072,54.0
62.5824,67.0
62.6576,60.0
62.7328,58.0
62.808,59.0
62.8832,69.0
62.9584,70.0
63.0336,65.0
63.1088,65.0
63.184,79.0
63.2592,69.0
63.3344,68.0
63.4096,46.0
63.4848,72.0
63.56,74.0
63.6352,59.0
63.7104,76.0
63.7856,67.0
63.8608,92.0
63.936,91.0
64.0112,102.0
64.0864,109.0
64.1616,124.0
64.2368,193.0
64.312,312.0
64.3872,443.0
64.4624,433.0
64.5376,382.0
64.6128,307.0
64.688,185.0
64.7632,160.0
64.8384,148.0
64.9136,111.0
64.9888,94.0
65.064,80.0
65.1392,76.0
65.2144,92.0
65.2896,98.0
65.3648,85.0
65.44,86.0
65.5152,72.0
65.5904,66.0
65.6656,67.0
65.7408,76.0
65.816,84.0
65.8912,78.0
65.9664,67.0
66.0416,82.0
66.1168,71.0
66.192,83.0
66.2672,85.0
66.3424,83.0
66.4176,164.0
66.4928,489.0
66.568,447.0
66.6432,488.0
66.7184,394.0
66.7936,439.0
66.8688,492.0
66.944,494.0
67.0192,490.0
67.0944,455.0
67.1696,485.0
67.2448,477.0
67.32,447.0
67.3952,482.0
67.4704,522.0
67.5456,482.0
67.6208,529.0
67.696,532.0
67.7712,519.0
67.8465,522.0
67.9217,548.0
67.9969,552.0
68.0721,654.0
68.1473,622.0
68.2225,690.0
68.2977,788.0
68.3729,799.0
68.4481,886.0
68.5233,1059.0
68.5985,1279.0
68.6737,1899.0
68.7489,3562.0
68.8241,4195.0
68.8993,4805.0
68.9745,11892.0
69.0497,46663.0
69.1249,405418.0
69.2001,29230.0
69.2753,88203.0
69.3505,69081.0
69.4257,8239.0
69.5009,3925.0
69.5761,2662.0
69.6513,1927.0
69.7265,1534.0
69.8017,1238.0
69.8769,1067.0
69.9521,1021.0
70.0273,892.0
70.1025,834.0
70.1777,749.0
70.2529,619.0
70.3281,639.0
70.4033,554.0
70.4785,529.0
70.5537,518.0
70.6289,505.0
70.7041,452.0
70.7793,455.0
70.8545,437.0
70.9297,436.0
71.0049,424.0
71.0801,402.0
71.1553,366.0
71.2305,396.0
71.3057,405.0
71.3809,339.0
71.4561,356.0
71.5313,321.0
71.6065,339.0
71.6817,350.0
71.7569,334.0
71.8321,307.0
71.9073,300.0
71.9825,282.0
72.0577,277.0
72.1329,286.0
72.2081,307.0
72.2833,269.0
72.3585,272.0
72.4337,280.0
72.5089,272.0
72.5841,234.0
72.6593,273.0
72.7345,287.0
72.8097,259.0
72.8849,219.0
72.9601,285.0
73.0353,246.0
73.1105,248.0
73.1857,204.0
73.2609,241.0
73.3361,230.0
73.4113,211.0
73.4865,221.0
73.5617,241.0
73.6369,216.0
73.7121,212.0
73.7873,219.0
73.8625,254.0
73.9377,211.0
74.0129,226.0
74.0881,222.0
74.1633,209.0
74.2385,223.0
74.3137,231.0
74.3889,231.0
74.4641,176.0
74.5393,188.0
74.6145,208.0
74.6897,187.0
74.7649,210.0
74.8401,204.0
74.9153,180.0
74.9905,205.0
75.0657,175.0
75.1409,196.0
75.2161,178.0
75.2913,199.0
75.3665,144.0
75.4417,189.0
75.5169,174.0
75.5921,177.0
75.6673,173.0
75.7425,184.0
75.8177,191.0
75.8929,187.0
75.9681,165.0
76.0433,153.0
76.1185,188.0
76.1937,165.0
76.2689,183.0
76.3441,177.0
76.4193,184.0
76.4945,182.0
76.5697,166.0
76.6449,176.0
76.7201,193.0
76.7953,200.0
76.8705,199.0
76.9457,212.0
77.0209,235.0
77.0961,269.0
77.1713,307.0
77.2465,370.0
77.3217,461.0
77.3969,492.0
77.4721,448.0
77.5473,445.0
77.6225,374.0
77.6977,298.0
77.7729,252.0
77.8481,225.0
77.9233,193.0
77.9985,159.0
78.0737,162.0
78.1489,171.0
78.2241,152.0
78.2993,144.0
78.3745,161.0
78.4498,143.0
78.525,154.0
78.6002,133.0
78.6754,134.0
78.7506,140.0
78.8258,149.0
78.901,117.0
78.9762,119.0
79.0514,124.0
79.1266,133.0
79.2018,148.0
79.277,125.0
79.3522,131.0
79.4274,125.0
79.5026,126.0
79.5778,121.0
79.653,111.0
79.7282,140.0
79.8034,127.0
79.8786,133.0
79.9538,119.0
79.9914,120.0