File: Example Data/Silver Reactive Inks/XRD/silver 70C.csv
[Measurement conditions]
Sample identification,
Comment - 1,"Configuration=Powder Diffraction, Owner=User-1, Creation date=6/3/2009 8:49:36 AM"
Comment - 2,"Goniometer=PW3050/65 (Theta/2Theta); Minimum step size 2Theta:0.0001; Minimum step size Omega:0.0001"
Comment - 3,"Sample stage=MRD Cradle; Minimum step size Phi:0.01; Minimum step size Chi:0.01; Minimum step size X:0.01; Minimum step size Y:0.01; Minimum step size Z:0.001"
Comment - 4,"Diffractometer system=XPERT-PRO"
Comment - 5,"Measurement program=C:\PANalytical\Data Collector\Programs\powder_scan_49.xrdmp, Identifier={12387B94-FF5E-46B4-B2C7-B6F75F9A12C1}"
Anode material,Cu
K-Alpha1 wavelength,1.5406
K-Alpha2 wavelength,1.54443
Ratio K-Alpha2/K-Alpha1,0.500
Divergence slit,Fixed,0.38mm
Monochromator used,NO
Generator voltage, 45
Tube current, 40
File date and time,08/Apr/2015 14:42
Unit cell,
h k l, 0 0 0
Scan axis,Gonio
Scan range,20,80.0102
Scan step size,0.0376004
No. of points, 1596
Scan type,CONTINUOUS
Phi,0.00
Psi,0.00
X,0.00
Y,0.00
Z,6.887
Time per step,63.500
[Scan points]
Angle,Intensity
20.0188,281.0
20.094,248.0
20.1692,286.0
20.2444,281.0
20.3196,277.0
20.3948,269.0
20.47,279.0
20.5452,285.0
20.6204,294.0
20.6956,301.0
20.7708,312.0
20.846,312.0
20.9212,296.0
20.9964,291.0
21.0716,335.0
21.1468,324.0
21.222,300.0
21.2972,312.0
21.3724,292.0
21.4476,277.0
21.5228,287.0
21.598,295.0
21.6732,264.0
21.7484,298.0
21.8236,313.0
21.8988,296.0
21.974,330.0
22.0492,273.0
22.1244,279.0
22.1996,280.0
22.2748,292.0
22.35,288.0
22.4252,296.0
22.5004,249.0
22.5756,264.0
22.6508,304.0
22.726,264.0
22.8012,249.0
22.8764,257.0
22.9516,282.0
23.0268,264.0
23.102,282.0
23.1772,266.0
23.2524,298.0
23.3276,295.0
23.4028,278.0
23.478,289.0
23.5532,260.0
23.6284,243.0
23.7036,274.0
23.7788,251.0
23.854,262.0
23.9292,280.0
24.0044,250.0
24.0796,268.0
24.1548,279.0
24.23,298.0
24.3052,263.0
24.3804,237.0
24.4556,260.0
24.5308,261.0
24.606,239.0
24.6812,266.0
24.7564,280.0
24.8316,243.0
24.9068,281.0
24.982,241.0
25.0572,248.0
25.1324,234.0
25.2076,235.0
25.2828,262.0
25.3581,266.0
25.4333,249.0
25.5085,223.0
25.5837,225.0
25.6589,287.0
25.7341,241.0
25.8093,249.0
25.8845,242.0
25.9597,238.0
26.0349,259.0
26.1101,214.0
26.1853,255.0
26.2605,210.0
26.3357,251.0
26.4109,225.0
26.4861,223.0
26.5613,232.0
26.6365,199.0
26.7117,202.0
26.7869,238.0
26.8621,213.0
26.9373,230.0
27.0125,210.0
27.0877,208.0
27.1629,198.0
27.2381,221.0
27.3133,237.0
27.3885,227.0
27.4637,239.0
27.5389,213.0
27.6141,226.0
27.6893,251.0
27.7645,215.0
27.8397,189.0
27.9149,202.0
27.9901,214.0
28.0653,214.0
28.1405,244.0
28.2157,213.0
28.2909,227.0
28.3661,213.0
28.4413,209.0
28.5165,215.0
28.5917,192.0
28.6669,206.0
28.7421,200.0
28.8173,227.0
28.8925,178.0
28.9677,204.0
29.0429,210.0
29.1181,190.0
29.1933,205.0
29.2685,219.0
29.3437,177.0
29.4189,201.0
29.4941,204.0
29.5693,208.0
29.6445,180.0
29.7197,192.0
29.7949,183.0
29.8701,221.0
29.9453,197.0
30.0205,199.0
30.0957,231.0
30.1709,167.0
30.2461,178.0
30.3213,189.0
30.3965,183.0
30.4717,200.0
30.5469,190.0
30.6221,193.0
30.6973,193.0
30.7725,169.0
30.8477,199.0
30.9229,151.0
30.9981,200.0
31.0733,189.0
31.1485,165.0
31.2237,178.0
31.2989,165.0
31.3741,165.0
31.4493,180.0
31.5245,172.0
31.5997,160.0
31.6749,153.0
31.7501,174.0
31.8253,172.0
31.9005,174.0
31.9757,174.0
32.0509,167.0
32.1261,156.0
32.2013,180.0
32.2765,150.0
32.3517,179.0
32.4269,180.0
32.5021,183.0
32.5773,185.0
32.6525,160.0
32.7277,205.0
32.8029,238.0
32.8781,527.0
32.9533,1153.0
33.0285,1719.0
33.1037,238.0
33.1789,217.0
33.2541,192.0
33.3293,173.0
33.4045,173.0
33.4797,167.0
33.5549,185.0
33.6301,182.0
33.7053,160.0
33.7805,158.0
33.8557,124.0
33.9309,164.0
34.0061,163.0
34.0813,153.0
34.1565,169.0
34.2317,153.0
34.3069,167.0
34.3821,153.0
34.4573,130.0
34.5325,174.0
34.6077,152.0
34.6829,183.0
34.7581,161.0
34.8333,123.0
34.9085,165.0
34.9837,179.0
35.0589,145.0
35.1341,166.0
35.2093,154.0
35.2845,166.0
35.3597,144.0
35.4349,172.0
35.5101,152.0
35.5853,148.0
35.6605,156.0
35.7357,149.0
35.8109,143.0
35.8861,174.0
35.9614,149.0
36.0366,156.0
36.1118,163.0
36.187,164.0
36.2622,147.0
36.3374,166.0
36.4126,178.0
36.4878,146.0
36.563,137.0
36.6382,159.0
36.7134,132.0
36.7886,137.0
36.8638,156.0
36.939,165.0
37.0142,182.0
37.0894,163.0
37.1646,151.0
37.2398,172.0
37.315,178.0
37.3902,152.0
37.4654,137.0
37.5406,212.0
37.6158,201.0
37.691,202.0
37.7662,268.0
37.8414,335.0
37.9166,511.0
37.9918,938.0
38.067,2028.0
38.1422,2054.0
38.2174,1381.0
38.2926,620.0
38.3678,378.0
38.443,291.0
38.5182,250.0
38.5934,241.0
38.6686,211.0
38.7438,179.0
38.819,184.0
38.8942,183.0
38.9694,172.0
39.0446,152.0
39.1198,146.0
39.195,164.0
39.2702,156.0
39.3454,170.0
39.4206,150.0
39.4958,171.0
39.571,150.0
39.6462,144.0
39.7214,148.0
39.7966,156.0
39.8718,128.0
39.947,147.0
40.0222,150.0
40.0974,171.0
40.1726,133.0
40.2478,127.0
40.323,150.0
40.3982,148.0
40.4734,164.0
40.5486,161.0
40.6238,139.0
40.699,130.0
40.7742,138.0
40.8494,152.0
40.9246,135.0
40.9998,139.0
41.075,119.0
41.1502,135.0
41.2254,135.0
41.3006,125.0
41.3758,176.0
41.451,125.0
41.5262,148.0
41.6014,105.0
41.6766,132.0
41.7518,138.0
41.827,132.0
41.9022,136.0
41.9774,145.0
42.0526,126.0
42.1278,156.0
42.203,150.0
42.2782,138.0
42.3534,145.0
42.4286,131.0
42.5038,133.0
42.579,127.0
42.6542,140.0
42.7294,179.0
42.8046,137.0
42.8798,143.0
42.955,127.0
43.0302,159.0
43.1054,141.0
43.1806,146.0
43.2558,149.0
43.331,163.0
43.4062,157.0
43.4814,164.0
43.5566,164.0
43.6318,171.0
43.707,149.0
43.7822,165.0
43.8574,188.0
43.9326,249.0
44.0078,235.0
44.083,363.0
44.1582,488.0
44.2334,739.0
44.3086,864.0
44.3838,733.0
44.459,463.0
44.5342,331.0
44.6094,272.0
44.6846,173.0
44.7598,186.0
44.835,176.0
44.9102,175.0
44.9854,130.0
45.0606,126.0
45.1358,138.0
45.211,124.0
45.2862,137.0
45.3614,131.0
45.4366,134.0
45.5118,154.0
45.587,125.0
45.6622,137.0
45.7374,119.0
45.8126,144.0
45.8878,115.0
45.963,123.0
46.0382,111.0
46.1134,130.0
46.1886,139.0
46.2638,121.0
46.339,124.0
46.4142,130.0
46.4894,125.0
46.5647,119.0
46.6399,125.0
46.7151,139.0
46.7903,119.0
46.8655,136.0
46.9407,117.0
47.0159,105.0
47.0911,133.0
47.1663,101.0
47.2415,109.0
47.3167,123.0
47.3919,108.0
47.4671,109.0
47.5423,91.0
47.6175,104.0
47.6927,94.0
47.7679,114.0
47.8431,107.0
47.9183,123.0
47.9935,114.0
48.0687,107.0
48.1439,94.0
48.2191,94.0
48.2943,113.0
48.3695,79.0
48.4447,117.0
48.5199,114.0
48.5951,123.0
48.6703,107.0
48.7455,110.0
48.8207,115.0
48.8959,104.0
48.9711,111.0
49.0463,126.0
49.1215,104.0
49.1967,98.0
49.2719,122.0
49.3471,127.0
49.4223,113.0
49.4975,121.0
49.5727,125.0
49.6479,117.0
49.7231,106.0
49.7983,104.0
49.8735,101.0
49.9487,113.0
50.0239,97.0
50.0991,120.0
50.1743,94.0
50.2495,94.0
50.3247,112.0
50.3999,107.0
50.4751,107.0
50.5503,87.0
50.6255,113.0
50.7007,105.0
50.7759,92.0
50.8511,96.0
50.9263,110.0
51.0015,97.0
51.0767,87.0
51.1519,92.0
51.2271,99.0
51.3023,99.0
51.3775,95.0
51.4527,91.0
51.5279,86.0
51.6031,87.0
51.6783,102.0
51.7535,88.0
51.8287,78.0
51.9039,86.0
51.9791,86.0
52.0543,106.0
52.1295,101.0
52.2047,104.0
52.2799,76.0
52.3551,86.0
52.4303,94.0
52.5055,88.0
52.5807,85.0
52.6559,93.0
52.7311,69.0
52.8063,87.0
52.8815,99.0
52.9567,95.0
53.0319,101.0
53.1071,91.0
53.1823,92.0
53.2575,88.0
53.3327,97.0
53.4079,74.0
53.4831,85.0
53.5583,88.0
53.6335,91.0
53.7087,79.0
53.7839,95.0
53.8591,80.0
53.9343,88.0
54.0095,101.0
54.0847,96.0
54.1599,82.0
54.2351,92.0
54.3103,79.0
54.3855,92.0
54.4607,76.0
54.5359,108.0
54.6111,85.0
54.6863,79.0
54.7615,81.0
54.8367,76.0
54.9119,85.0
54.9871,86.0
55.0623,94.0
55.1375,73.0
55.2127,70.0
55.2879,81.0
55.3631,85.0
55.4383,78.0
55.5135,79.0
55.5887,83.0
55.6639,92.0
55.7391,89.0
55.8143,80.0
55.8895,92.0
55.9647,88.0
56.0399,78.0
56.1151,91.0
56.1903,87.0
56.2655,79.0
56.3407,95.0
56.4159,85.0
56.4911,104.0
56.5663,80.0
56.6415,71.0
56.7167,76.0
56.7919,87.0
56.8671,96.0
56.9423,72.0
57.0175,82.0
57.0927,70.0
57.168,79.0
57.2432,75.0
57.3184,57.0
57.3936,66.0
57.4688,84.0
57.544,65.0
57.6192,61.0
57.6944,75.0
57.7696,71.0
57.8448,78.0
57.92,95.0
57.9952,79.0
58.0704,71.0
58.1456,67.0
58.2208,74.0
58.296,93.0
58.3712,81.0
58.4464,84.0
58.5216,63.0
58.5968,67.0
58.672,65.0
58.7472,63.0
58.8224,62.0
58.8976,92.0
58.9728,69.0
59.048,66.0
59.1232,79.0
59.1984,74.0
59.2736,86.0
59.3488,86.0
59.424,68.0
59.4992,57.0
59.5744,63.0
59.6496,44.0
59.7248,65.0
59.8,66.0
59.8752,71.0
59.9504,69.0
60.0256,60.0
60.1008,67.0
60.176,73.0
60.2512,63.0
60.3264,78.0
60.4016,65.0
60.4768,84.0
60.552,57.0
60.6272,60.0
60.7024,70.0
60.7776,82.0
60.8528,67.0
60.928,66.0
61.0032,70.0
61.0784,88.0
61.1536,70.0
61.2288,87.0
61.304,80.0
61.3792,76.0
61.4544,96.0
61.5296,111.0
61.6048,287.0
61.68,598.0
61.7552,114.0
61.8304,80.0
61.9056,71.0
61.9808,85.0
62.056,78.0
62.1312,63.0
62.2064,63.0
62.2816,88.0
62.3568,66.0
62.432,63.0
62.5072,84.0
62.5824,67.0
62.6576,69.0
62.7328,89.0
62.808,96.0
62.8832,80.0
62.9584,73.0
63.0336,80.0
63.1088,80.0
63.184,62.0
63.2592,83.0
63.3344,82.0
63.4096,60.0
63.4848,73.0
63.56,73.0
63.6352,106.0
63.7104,84.0
63.7856,81.0
63.8608,96.0
63.936,114.0
64.0112,131.0
64.0864,135.0
64.1616,162.0
64.2368,206.0
64.312,293.0
64.3872,476.0
64.4624,572.0
64.5376,434.0
64.6128,433.0
64.688,254.0
64.7632,231.0
64.8384,149.0
64.9136,134.0
64.9888,96.0
65.064,97.0
65.1392,95.0
65.2144,92.0
65.2896,79.0
65.3648,71.0
65.44,86.0
65.5152,65.0
65.5904,63.0
65.6656,82.0
65.7408,75.0
65.816,95.0
65.8912,68.0
65.9664,91.0
66.0416,70.0
66.1168,84.0
66.192,79.0
66.2672,89.0
66.3424,91.0
66.4176,199.0
66.4928,376.0
66.568,395.0
66.6432,335.0
66.7184,385.0
66.7936,384.0
66.8688,357.0
66.944,378.0
67.0192,403.0
67.0944,416.0
67.1696,397.0
67.2448,395.0
67.32,411.0
67.3952,404.0
67.4704,430.0
67.5456,448.0
67.6208,410.0
67.696,439.0
67.7712,470.0
67.8465,475.0
67.9217,473.0
67.9969,506.0
68.0721,499.0
68.1473,542.0
68.2225,589.0
68.2977,649.0
68.3729,723.0
68.4481,860.0
68.5233,911.0
68.5985,1118.0
68.6737,1717.0
68.7489,3420.0
68.8241,3441.0
68.8993,4167.0
68.9745,10014.0
69.0497,60149.0
69.1249,190942.0
69.2001,20107.0
69.2753,149879.0
69.3505,28995.0
69.4257,6035.0
69.5009,3145.0
69.5761,2053.0
69.6513,1606.0
69.7265,1174.0
69.8017,1058.0
69.8769,862.0
69.9521,832.0
70.0273,711.0
70.1025,688.0
70.1777,588.0
70.2529,566.0
70.3281,540.0
70.4033,431.0
70.4785,459.0
70.5537,446.0
70.6289,422.0
70.7041,383.0
70.7793,426.0
70.8545,377.0
70.9297,346.0
71.0049,366.0
71.0801,364.0
71.1553,324.0
71.2305,333.0
71.3057,325.0
71.3809,298.0
71.4561,339.0
71.5313,311.0
71.6065,276.0
71.6817,288.0
71.7569,290.0
71.8321,236.0
71.9073,300.0
71.9825,267.0
72.0577,265.0
72.1329,267.0
72.2081,276.0
72.2833,250.0
72.3585,236.0
72.4337,240.0
72.5089,227.0
72.5841,253.0
72.6593,240.0
72.7345,213.0
72.8097,232.0
72.8849,238.0
72.9601,205.0
73.0353,232.0
73.1105,221.0
73.1857,214.0
73.2609,234.0
73.3361,222.0
73.4113,195.0
73.4865,213.0
73.5617,190.0
73.6369,203.0
73.7121,224.0
73.7873,210.0
73.8625,221.0
73.9377,212.0
74.0129,217.0
74.0881,210.0
74.1633,208.0
74.2385,198.0
74.3137,176.0
74.3889,197.0
74.4641,213.0
74.5393,201.0
74.6145,164.0
74.6897,154.0
74.7649,182.0
74.8401,203.0
74.9153,180.0
74.9905,176.0
75.0657,187.0
75.1409,185.0
75.2161,204.0
75.2913,198.0
75.3665,170.0
75.4417,190.0
75.5169,184.0
75.5921,174.0
75.6673,158.0
75.7425,148.0
75.8177,159.0
75.8929,174.0
75.9681,143.0
76.0433,189.0
76.1185,163.0
76.1937,179.0
76.2689,187.0
76.3441,171.0
76.4193,174.0
76.4945,161.0
76.5697,162.0
76.6449,199.0
76.7201,165.0
76.7953,162.0
76.8705,187.0
76.9457,190.0
77.0209,197.0
77.0961,261.0
77.1713,320.0
77.2465,378.0
77.3217,559.0
77.3969,603.0
77.4721,561.0
77.5473,446.0
77.6225,486.0
77.6977,353.0
77.7729,237.0
77.8481,228.0
77.9233,214.0
77.9985,193.0
78.0737,158.0
78.1489,144.0
78.2241,154.0
78.2993,138.0
78.3745,145.0
78.4498,147.0
78.525,128.0
78.6002,137.0
78.6754,130.0
78.7506,133.0
78.8258,144.0
78.901,126.0
78.9762,126.0
79.0514,136.0
79.1266,143.0
79.2018,136.0
79.277,130.0
79.3522,123.0
79.4274,124.0
79.5026,127.0
79.5778,131.0
79.653,125.0
79.7282,118.0
79.8034,125.0
79.8786,128.0
79.9538,143.0
79.9914,106.0