File: Example Data/Raman/CNT - TIM/Raytheon/Cu foil/08-12-10/Cu batch 2 bottom.txt
300	65.0113
301.518	71.2135
303.037	71.5695
304.555	74.5122
306.073	68.5948
307.592	74.0983
309.11	74.281
310.628	78.3112
312.147	72.5477
313.665	61.8686
315.183	62.0535
316.702	65.9997
318.22	75.7914
319.738	67.7538
321.257	62.5114
322.775	62.4383
324.294	56.907
325.812	66.7742
327.33	62.1977
328.849	65.3054
330.367	61.6011
331.885	66.2937
333.404	56.3616
334.922	64.6148
336.44	62.5619
337.959	53.3094
339.477	64.2936
340.995	60.708
342.514	44.3863
344.032	52.0823
345.55	46.3614
347.069	50.4564
348.587	55.3852
350.105	58.364
351.624	54.9097
353.142	56.0728
354.66	48.8408
356.179	48.6885
357.697	54.0597
359.216	46.8479
360.734	45.6981
362.252	53.255
363.771	47.4047
365.289	46.5922
366.807	51.8729
368.326	44.8739
369.844	44.2573
371.362	47.7948
372.881	48.1829
374.399	44.7233
375.917	45.3725
377.436	43.2798
378.954	43.4949
380.472	37.3696
381.991	40.0056
383.509	46.2722
385.027	42.8346
386.546	37.9612
388.064	46.7005
389.582	45.5403
391.101	50.8676
392.619	39.0304
394.137	40.9262
395.656	27.2795
397.174	43.319
398.693	34.3631
400.211	45.439
401.729	38.2655
403.248	39.8175
404.766	42.9825
406.284	37.8839
407.803	35.388
409.321	32.0332
410.839	43.0102
412.358	41.9747
413.876	33.6546
415.394	35.2845
416.913	36.1124
418.431	34.6764
419.949	33.6888
421.468	39.4937
422.986	39.6725
424.504	39.389
426.023	37.0998
427.541	38.3752
429.059	36.9168
430.578	34.0563
432.096	33.4356
433.615	30.3035
435.133	29.5434
436.651	25.0706
438.17	36.4686
439.688	33.4322
441.206	43.0964
442.725	34.8373
444.243	17.462
445.761	30.2356
447.28	32.9819
448.798	24.9687
450.316	23.2945
451.835	22.9831
453.353	27.778
454.871	27.7195
456.39	26.0287
457.908	20.65
459.426	25.1253
460.945	23.8674
462.463	17.1363
463.981	10.2848
465.5	19.0489
467.018	23.1932
468.536	28.91
470.055	20.147
471.573	9.90189
473.092	26.3371
474.61	20.0095
476.128	22.8468
477.647	12.1432
479.165	18.0064
480.683	25.7478
482.202	22.3037
483.72	25.6039
485.238	12.6601
486.757	15.6548
488.275	5.64073
489.793	12.6877
491.312	11.65
492.83	9.20692
494.348	5.81021
495.867	10.3301
497.385	8.14458
498.903	-3.32656
500.422	2.48148
501.94	5.93347
503.458	4.97429
504.977	12.7066
506.495	-2.6641
508.013	2.74299
509.532	2.06279
511.05	2.33244
512.569	7.01915
514.087	-2.37042
515.605	0.114004
517.124	7.14439
518.642	4.75737
520.16	6.43088
521.679	-6.81596
523.197	-3.12538
524.715	2.04497
526.234	-3.43122
527.752	-5.24801
529.27	-3.97
530.789	-5.01975
532.307	2.35994
533.825	-1.77213
535.344	-4.63298
536.862	-6.8402
538.38	-1.1078
539.899	-4.97342
541.417	0.32087
542.935	-11.3771
544.454	-2.37187
545.972	6.58562
547.491	0.393694
549.009	1.38627
550.527	-6.06521
552.046	0.326185
553.564	-0.200791
555.082	-6.27684
556.601	-0.841349
558.119	-4.13075
559.637	4.92491
561.156	2.94804
562.674	-2.09541
564.192	-1.30806
565.711	6.40725
567.229	-1.18483
568.747	3.73469
570.266	5.12102
571.784	7.00928
573.302	0.91367
574.821	4.43495
576.339	-0.54569
577.857	-8.08611
579.376	-4.8509
580.894	5.29228
582.412	2.15702
583.931	-1.34876
585.449	2.47217
586.968	-0.273788
588.486	1.72624
590.004	8.6525
591.523	-2.54581
593.041	3.39392
594.559	0.590956
596.078	-3.74118
597.596	4.93459
599.114	-5.22874
600.633	2.43502
602.151	-1.58089
603.669	-1.0831
605.188	-0.488049
606.706	-0.935801
608.224	-4.62321
609.743	3.12237
611.261	-0.0344387
612.779	0.148226
614.298	7.53855
615.816	4.81921
617.334	0.274836
618.853	1.59029
620.371	-2.11177
621.89	0.539462
623.408	-0.203164
624.926	2.38731
626.445	-1.17824
627.963	2.6617
629.481	-2.19703
631	-0.599817
632.518	-0.969796
634.036	0.373761
635.555	0.208692
637.073	1.42752
638.591	4.76619
640.11	11.7335
641.628	6.69186
643.146	7.21335
644.665	1.99097
646.183	-0.0978061
647.701	9.39701
649.22	2.04762
650.738	9.89982
652.256	0.0488431
653.775	6.72318
655.293	10.74
656.811	3.1527
658.33	-2.48397
659.848	5.11177
661.367	6.29442
662.885	9.86415
664.403	7.34904
665.922	11.8569
667.44	10.1698
668.958	8.85559
670.477	8.36981
671.995	13.1798
673.513	10.5813
675.032	7.78584
676.55	13.8156
678.068	5.56888
679.587	8.93279
681.105	1.43885
682.623	3.07727
684.142	8.13766
685.66	10.982
687.178	7.19792
688.697	4.0297
690.215	1.42895
691.733	4.81211
693.252	2.0665
694.77	6.51586
696.289	2.3936
697.807	4.4925
699.325	2.69259
700.844	9.28749
702.362	14.8913
703.88	6.13071
705.399	3.93717
706.917	-0.175423
708.435	-0.723011
709.954	2.9004
711.472	4.26429
712.99	11.8829
714.509	17.0004
716.027	14.6404
717.545	11.4516
719.064	7.5367
720.582	13.0676
722.1	15.3636
723.619	1.06501
725.137	12.3382
726.655	13.9132
728.174	12.6524
729.692	13.2484
731.21	9.44074
732.729	12.0692
734.247	14.1605
735.766	19.4931
737.284	12.8622
738.802	17.6086
740.321	18.6171
741.839	16.4441
743.357	23.069
744.876	13.3491
746.394	26.0672
747.912	14.5011
749.431	18.293
750.949	29.8549
752.467	24.3759
753.986	34.3442
755.504	23.9733
757.022	18.5948
758.541	22.1047
760.059	15.8351
761.577	26.9785
763.096	24.5695
764.614	20.5107
766.132	23.8425
767.651	33.1323
769.169	27.3675
770.6875	30.673
772.206	21.2061
773.724	31.0527
775.242	27.8395
776.761	13.6291
778.279	27.6563
779.798	21.703
781.316	26.3586
782.834	31.741
784.353	30.2294
785.871	30.267
787.389	41.8926
788.908	33.1478
790.426	34.9051
791.944	30.4741
793.463	31.181
794.981	26.2067
796.499	31.8457
798.018	33.6699
799.536	42.9249
801.054	36.9234
802.573	25.4281
804.091	34.1964
805.609	31.2362
807.128	39.4568
808.646	35.9495
810.164	29.1441
811.683	37.6261
813.201	27.4869
814.72	28.1285
816.238	43.6615
817.756	36.6632
819.275	33.5847
820.793	45.5524
822.311	33.8614
823.83	42.9615
825.348	40.0574
826.866	41.1132
828.385	28.988
829.903	35.9019
831.421	43.9057
832.94	39.2508
834.458	44.4755
835.976	52.8219
837.495	50.0926
839.013	53.7606
840.531	39.6941
842.05	43.6085
843.568	36.9838
845.086	41.2389
846.605	39.7285
848.123	36.1426
849.641	47.2506
851.16	41.7101
852.678	52.3834
854.197	57.5173
855.715	50.0736
857.233	55.4081
858.752	36.523
860.27	49.8029
861.788	33.3434
863.307	40.6428
864.825	40.2801
866.343	39.4104
867.862	35.1142
869.38	34.4545
870.898	31.7725
872.417	32.1453
873.935	34.022
875.453	36.7053
876.972	23.8159
878.49	22.4761
880.008	24.8366
881.527	35.9474
883.045	18.0337
884.563	15.4172
886.082	16.8735
887.6	20.2927
889.119	26.3975
890.637	9.08087
892.155	14.1672
893.674	13.8765
895.192	15.1159
896.71	11.689
898.229	11.6691
899.747	8.15417
901.265	13.9327
902.784	8.71891
904.302	8.67241
905.82	16.683
907.339	18.9016
908.857	2.85651
910.375	3.59966
911.894	7.68105
913.412	0.172586
914.93	3.12385
916.449	3.42224
917.967	-1.03815
919.485	5.33596
921.004	-2.15491
922.522	11.7122
924.04	-0.567873
925.559	3.02335
927.077	-3.40365
928.596	2.26768
930.114	3.64507
931.632	0.543958
933.151	-2.84935
934.669	2.07114
936.187	-4.41633
937.706	-0.435861
939.224	1.91763
940.742	-17.8127
942.261	-6.50108
943.779	-7.06442
945.297	-4.67893
946.816	0.332566
948.334	-7.53129
949.852	-11.4514
951.371	-6.52451
952.889	-4.3281
954.407	-1.32739
955.926	-8.15933
957.444	-9.39372
958.962	-11.6351
960.481	-11.7855
961.999	-10.8271
963.518	-8.37706
965.036	-16.4643
966.554	-17.5165
968.073	-16.4714
969.591	-21.906
971.109	-28.9988
972.628	-23.3461
974.146	-19.452
975.664	-19.1358
977.183	-22.5454
978.701	-26.3247
980.219	-23.8944
981.738	-13.6542
983.256	-21.0352
984.774	-23.0499
986.293	-20.1986
987.811	-15.7965
989.329	-16.6139
990.848	-22.4914
992.366	-10.4253
993.884	-20.048
995.403	-16.0301
996.921	-27.0327
998.439	-20.8885
999.958	-20.8035
1001.48	-22.7596
1002.99	-25.355
1004.51	-22.8966
1006.03	-27.0405
1007.55	-24.1358
1009.07	-23.4073
1010.59	-27.5428
1012.1	-27.072
1013.62	-20.6419
1015.14	-23.1694
1016.66	-21.7766
1018.18	-26.9814
1019.7	-33.4232
1021.21	-25.7654
1022.73	-9.24343
1024.25	-27.1502
1025.77	-18.8184
1027.29	-28.7527
1028.81	-21.1578
1030.32	-15.3407
1031.84	-24.925
1033.36	-19.7349
1034.88	-16.5879
1036.4	-25.3854
1037.92	-14.8859
1039.43	-12.4113
1040.95	-18.0101
1042.47	-18.0049
1043.99	-20.5853
1045.51	-23.2222
1047.03	-6.7984
1048.54	-14.1568
1050.06	-13.0133
1051.58	-17.634
1053.1	-16.5956
1054.62	-25.8893
1056.14	-20.5973
1057.66	-15.734
1059.17	-11.4485
1060.69	-10.3761
1062.21	-20.8789
1063.73	-22.6295
1065.25	-16.9196
1066.77	-18.678
1068.28	-10.3266
1069.8	-8.87015
1071.32	-26.8895
1072.84	-15.2571
1074.36	-15.7515
1075.88	-12.9887
1077.39	-6.27652
1078.91	-19.9082
1080.43	-6.37518
1081.95	-12.85
1083.47	-13.1635
1084.99	-15.4531
1086.5	-9.92231
1088.02	-8.90577
1089.54	-11.8923
1091.06	-15.4765
1092.58	-13.7334
1094.1	-13.1295
1095.61	-19.9789
1097.13	-17.5999
1098.65	-10.0597
1100.17	-8.47768
1101.69	-6.04503
1103.21	-7.67967
1104.72	-14.3727
1106.24	-8.63032
1107.76	-6.85562
1109.28	-4.37184
1110.8	-12.3416
1112.32	-11.2487
1113.83	-11.5511
1115.35	-10.767
1116.87	-13.5094
1118.39	-11.6289
1119.91	-12.2495
1121.43	-12.75
1122.94	-12.3805
1124.46	-17.8418
1125.98	-14.2715
1127.5	-8.19543
1129.02	-15.5439
1130.54	-21.3299
1132.05	-8.91687
1133.57	-25.3738
1135.09	-6.96014
1136.61	-15.5543
1138.13	-17.7714
1139.65	-10.6737
1141.16	-20.0553
1142.68	-2.16733
1144.2	-18.0755
1145.72	-1.42111
1147.24	-12.5173
1148.76	-13.9638
1150.27	-2.57996
1151.79	3.65998
1153.31	-16.0023
1154.83	-6.38464
1156.35	-10.6749
1157.87	-2.93793
1159.38	-3.53087
1160.9	-1.7255
1162.42	-8.80216
1163.94	-1.20156
1165.46	4.66943
1166.98	1.70112
1168.49	-2.29252
1170.01	-12.4102
1171.53	-6.45238
1173.05	-4.90528
1174.57	-4.10289
1176.09	-8.51523
1177.6	3.10629
1179.12	-7.57479
1180.64	2.78696
1182.16	-4.21541
1183.68	-7.00504
1185.2	9.53319
1186.71	1.8791
1188.23	-10.454
1189.75	7.65389
1191.27	-3.33252
1192.79	8.36587
1194.31	0.872471
1195.82	8.45126
1197.34	-1.6935
1198.86	4.41305
1200.38	3.5237
1201.9	6.14762
1203.42	11.6666
1204.93	8.1073
1206.45	10.7414
1207.97	10.0582
1209.49	6.57901
1211.01	1.23013
1212.53	7.77342
1214.04	18.421
1215.56	18.7699
1217.08	13.0321
1218.6	19.5461
1220.12	34.499
1221.64	19.434
1223.15	26.4702
1224.67	28.8171
1226.19	23.0741
1227.71	24.0574
1229.23	27.8344
1230.75	33.8029
1232.26	52.7738
1233.78	56.5173
1235.3	44.568
1236.82	41.6083
1238.34	46.3183
1239.86	65.2542
1241.375	47.816
1242.89	55.5002
1244.41	59.4149
1245.93	73.1397
1247.45	75.0312
1248.97	83.4233
1250.48	74.1578
1252	93.7628
1253.52	98.2882
1255.04	81.2934
1256.56	92.0569
1258.08	94.433
1259.6	93.4817
1261.11	97.4404
1262.63	113.772
1264.15	119.179
1265.67	128.434
1267.19	136.197
1268.71	142.853
1270.22	135.799
1271.74	149.377
1273.26	164.828
1274.78	155.789
1276.3	162.801
1277.82	188.676
1279.33	173.894
1280.85	189.02
1282.37	204.824
1283.89	201.172
1285.41	201.236
1286.93	228.299
1288.44	225.022
1289.96	258.133
1291.48	264.32
1293	280.787
1294.52	272.095
1296.04	312.996
1297.55	320.123
1299.07	332.868
1300.59	335.455
1302.11	380.294
1303.63	377.187
1305.15	388.623
1306.66	405.359
1308.18	428.311
1309.7	446.088
1311.22	480.469
1312.74	488.375
1314.26	501.085
1315.77	515.565
1317.29	577.025
1318.81	580.727
1320.33	611.986
1321.85	611.429
1323.37	644.193
1324.88	685.044
1326.4	697.744
1327.92	705.794
1329.44	734.079
1330.96	755.22
1332.48	768.56
1333.99	811.929
1335.51	812.356
1337.03	802.047
1338.55	815.353
1340.07	801.346
1341.59	806.839
1343.1	807.759
1344.62	805.287
1346.14	800.753
1347.66	777.227
1349.18	751.422
1350.7	748.639
1352.21	729.079
1353.73	716.051
1355.25	703.431
1356.77	672.039
1358.29	632.409
1359.81	617.238
1361.32	597.042
1362.84	573.062
1364.36	548.701
1365.88	535.203
1367.4	506.232
1368.92	485.062
1370.43	460.346
1371.95	452
1373.47	417.627
1374.99	415.985
1376.51	382.101
1378.03	377.388
1379.54	350.547
1381.06	325.375
1382.58	298.189
1384.1	299.497
1385.62	295.421
1387.14	245.941
1388.65	255.706
1390.17	256.791
1391.69	238.699
1393.21	222.061
1394.73	201.866
1396.25	203.778
1397.76	171.808
1399.28	171.477
1400.8	173.196
1402.32	156.168
1403.84	140.909
1405.36	131.085
1406.87	113.331
1408.39	116.272
1409.91	97.6621
1411.43	109.289
1412.95	84.5212
1414.47	97.0088
1415.98	77.395
1417.5	71.7957
1419.02	65.4941
1420.54	69.3291
1422.06	52.2901
1423.58	67.925
1425.09	49.1997
1426.61	61.8911
1428.13	53.2743
1429.65	47.0284
1431.17	44.948
1432.69	34.4582
1434.2	38.8031
1435.72	47.1739
1437.24	19.0861
1438.76	33.5758
1440.28	24.3933
1441.8	12.2707
1443.32	29.9725
1444.83	11.3104
1446.35	9.27508
1447.87	5.93333
1449.39	4.82122
1450.91	3.0415
1452.43	4.36141
1453.94	1.64533
1455.46	8.9959
1456.98	4.66624
1458.5	-12.4999
1460.02	-12.4232
1461.54	-9.23079
1463.05	-1.27081
1464.57	-1.61959
1466.09	12.4394
1467.61	-0.930952
1469.13	-2.91023
1470.65	-6.21168
1472.16	18.5518
1473.68	14.1156
1475.2	10.3237
1476.72	6.52338
1478.24	10.9107
1479.76	19.6197
1481.27	28.513
1482.79	32.0228
1484.31	22.3692
1485.83	18.0645
1487.35	27.4422
1488.87	28.2073
1490.38	39.4968
1491.9	50.9591
1493.42	40.805
1494.94	45.2441
1496.46	51.6736
1497.98	50.8507
1499.49	49.9285
1501.01	56.4984
1502.53	85.6739
1504.05	78.5855
1505.57	81.1123
1507.09	78.7292
1508.6	78.4389
1510.12	82.3798
1511.64	98.983
1513.16	88.8118
1514.68	115.255
1516.2	114.479
1517.71	111.922
1519.23	126.234
1520.75	153.006
1522.27	134.384
1523.79	144.119
1525.31	155.275
1526.82	168.892
1528.34	204.12
1529.86	189.606
1531.38	225.455
1532.9	232.091
1534.42	249.512
1535.93	257.834
1537.45	272.217
1538.97	270.476
1540.49	304.361
1542.01	332.228
1543.53	357.223
1545.04	374.17
1546.56	393.642
1548.08	420.726
1549.6	449.845
1551.12	481.411
1552.64	482.682
1554.15	514.842
1555.67	567.26
1557.19	599.786
1558.71	607.777
1560.23	641.867
1561.75	673.991
1563.26	694.141
1564.78	725.5
1566.3	752.857
1567.82	790.365
1569.34	814.011
1570.86	820.476
1572.37	866.977
1573.89	865.658
1575.41	888.653
1576.93	896.497
1578.45	910.072
1579.97	910.853
1581.48	894.964
1583	901.848
1584.52	880.4
1586.04	904.392
1587.56	902.217
1589.08	893.834
1590.59	897.562
1592.11	880.998
1593.63	869.316
1595.15	857.713
1596.67	823.968
1598.19	827.092
1599.7	808.492
1601.22	705.141
1602.74	783.119
1604.26	765.04
1605.78	751.205
1607.3	736.892
1608.81	712.645
1610.33	706.464
1611.85	666.214
1613.37	652.073
1614.89	628.876
1616.41	593.613
1617.92	555.732
1619.44	529.386
1620.96	503.236
1622.48	480.281
1624	440.126
1625.52	416.457
1627.04	389.924
1628.55	369.588
1630.07	348.586
1631.59	305.611
1633.11	295.546
1634.63	270.975
1636.15	245.178
1637.66	234.35
1639.18	218.814
1640.7	187.84
1642.22	185.588
1643.74	149.455
1645.26	151.654
1646.77	142.043
1648.29	121.974
1649.81	116.098
1651.33	100.986
1652.85	93.0095
1654.37	88.2943
1655.88	74.419
1657.4	64.2332
1658.92	65.4185
1660.44	67.2334
1661.96	62.2588
1663.48	53.2866
1664.99	45.4543
1666.51	38.3382
1668.03	42.429
1669.55	27.6447
1671.07	29.7989
1672.59	20.8795
1674.1	19.886
1675.62	14.6189
1677.14	16.2968
1678.66	8.78148
1680.18	13.9748
1681.7	10.4819
1683.21	4.15811
1684.73	5.91051
1686.25	8.00301
1687.77	1.35757
1689.29	5.24244
1690.81	2.19004
1692.32	1.54232
1693.84	6.85955
1695.36	0.577599
1696.88	2.85168
1698.4	8.0945
1699.92	7.68084
1701.43	0.883359
1702.95	-3.50673
1704.47	-4.77368
1705.99	-1.18212
1707.51	-2.40701
1709.03	-0.0350593
1710.54	-7.15648
1712.06	-0.789414
1713.58	5.55159
1715.1	1.14013
1716.62	4.42015
1718.14	0.874942
1719.65	0.355354
1721.17	3.38548
1722.69	-0.529875
1724.21	-2.91696
1725.73	1.29747
1727.25	1.73866
1728.76	-0.678233
1730.28	6.66183
1731.8	6.74531
1733.32	7.05814
1734.84	2.39803
1736.36	7.03546
1737.87	5.91852
1739.39	7.54307
1740.91	5.42068
1742.43	7.62489
1743.95	8.87857
1745.47	7.42319
1746.98	-2.56541
1748.5	8.45805
1750.02	8.19259
1751.54	6.26981
1753.06	1.37711
1754.58	0.371035
1756.09	4.48327
1757.61	-3.45269
1759.13	0.345104
1760.65	7.19404
1762.17	-4.47641
1763.69	2.93271
1765.2	-3.52114
1766.72	-0.377962
1768.24	0.2951
1769.76	4.09057
1771.28	-1.89378
1772.8	0.106068
1774.31	4.70224
1775.83	-1.00471
1777.35	4.10016
1778.87	-1.06244
1780.39	-3.40992
1781.91	-11.201
1783.42	2.81083
1784.94	-4.67129
1786.46	-9.83608
1787.98	2.27142
1789.5	-10.5666
1791.02	-7.17056
1792.53	-12.131
1794.05	-3.81723
1795.57	-11.7132
1797.09	-8.68123
1798.61	-9.46085
1800.13	-12.6701
1801.64	-4.67285
1803.16	-7.43634
1804.68	-11.0199
1806.2	-1.04738
1807.72	1.99875
1809.24	-16.5053
1810.76	-5.86645
1812.27	-4.77352
1813.79	-8.64997
1815.31	0.17781
1816.83	-7.96429
1818.35	-18.4071
1819.86	-5.44404
1821.38	-10.6859
1822.9	-5.4604
1824.42	-12.1067
1825.94	-6.70859
1827.46	-11.8605
1828.98	-7.55813
1830.49	-3.11717
1832.01	-13.9244
1833.53	-14.2368
1835.05	-12.0591
1836.57	-11.5156
1838.09	-3.24999
1839.6	-3.19696
1841.12	-12.4971
1842.64	-3.80155
1844.16	-10.5358
1845.68	-11.7344
1847.2	-7.56763
1848.71	-10.0812
1850.23	1.05364
1851.75	-11.766
1853.27	-16.6701
1854.79	-2.71938
1856.31	-4.03773
1857.82	-8.46013
1859.34	-6.71552
1860.86	-7.49036
1862.38	-9.13117
1863.9	-8.95489
1865.42	-2.86962
1866.93	-7.84877
1868.45	-10.0583
1869.97	-11.9967
1871.49	-7.53172
1873.01	-6.50832
1874.53	-10.0203
1876.04	-8.80927
1877.56	-6.5735
1879.08	-14.5508
1880.6	-10.6642
1882.12	-12.3791
1883.64	-12.5467
1885.15	-8.39826
1886.67	-12.2999
1888.19	-11.0662
1889.71	-5.45504
1891.23	-7.88175
1892.75	-10.531
1894.26	-4.161
1895.78	-8.86393
1897.3	-11.002
1898.82	-15.7753
1900.34	-8.70652
1901.86	-9.50569
1903.37	-10.094
1904.89	-17.2922
1906.41	-4.32633
1907.93	-8.77803
1909.45	-4.37243
1910.97	-10.4205
1912.48	-15.2704
1914	-19.1648
1915.52	-17.2285
1917.04	-11.1495
1918.56	-6.72714
1920.08	-11.064
1921.59	-13.2833
1923.11	-11.9746
1924.63	-14.5086
1926.15	-14.7994
1927.67	-6.41197
1929.19	-7.61436
1930.7	-9.76585
1932.22	-1.42966
1933.74	-16.0273
1935.26	-10.123
1936.78	-8.62304
1938.3	-7.35206
1939.81	-6.76032
1941.33	-13.2911
1942.85	-6.63007
1944.37	-11.138
1945.89	-9.81086
1947.41	-1.52983
1948.92	-7.66118
1950.44	-16.3434
1951.96	-5.95411
1953.48	-5.96834
1955	-3.66144
1956.52	-2.15667
1958.03	-5.02759
1959.55	-11.3766
1961.07	-15.2554
1962.59	-5.04501
1964.11	-11.532
1965.63	-7.05436
1967.14	-2.17759
1968.66	-8.32959
1970.18	-3.81288
1971.7	-8.19046
1973.22	-4.45776
1974.74	-8.22757
1976.25	-9.47204
1977.77	-8.9157
1979.29	-1.40918
1980.81	-6.31332
1982.33	-7.63811
1983.85	-12.0814
1985.36	-15.118
1986.88	-1.2929
1988.4	2.26465
1989.92	-9.0188
1991.44	-8.26805
1992.96	-13.5803
1994.47	-8.98768
1995.99	-6.02335
1997.51	-4.80377
1999.03	-2.54319
2000.55	0.429321
2002.07	-1.89289
2003.58	-5.5708
2005.1	0.823631
2006.62	-1.71392
2008.14	3.08182
2009.66	-10.591
2011.18	-1.47262
2012.7	-0.616174
2014.21	-2.45045
2015.73	-6.18785
2017.25	0.878296
2018.77	-4.04714
2020.29	-1.53288
2021.81	4.35871
2023.32	-0.235661
2024.84	3.29851
2026.36	1.0075
2027.88	-1.47638
2029.4	12.0232
2030.92	0.0879935
2032.43	0.38127
2033.95	14.7446
2035.47	-6.40953
2036.99	-0.368752
2038.51	6.05176
2040.03	-5.09818
2041.54	-4.8719
2043.06	1.0002
2044.58	-2.90136
2046.1	2.11528
2047.62	-0.983463
2049.14	10.1394
2050.65	9.69239
2052.17	-3.53501
2053.69	-6.85468
2055.21	1.33847
2056.73	1.95371
2058.25	-0.225373
2059.76	0.210477
2061.28	8.62346
2062.8	4.93228
2064.32	4.07141
2065.84	7.58257
2067.36	4.78832
2068.87	9.97974
2070.39	11.5779
2071.91	7.37699
2073.43	13.5835
2074.95	2.46372
2076.47	4.61988
2077.98	4.10185
2079.5	8.12909
2081.02	5.30127
2082.54	5.37685
2084.06	2.45722
2085.58	6.68242
2087.09	2.40835
2088.61	4.09285
2090.13	3.8102
2091.65	4.90694
2093.17	16.3573
2094.69	7.77698
2096.2	4.08912
2097.72	7.6727
2099.24	7.42709
2100	12.1178