File: Example Data/Raman/CNT - TIM/Raytheon/Cu foil/08-12-10/Cu batch 2 top.txt
300	58.2119
301.518	60.7736
303.037	61.0352
304.555	62.0875
306.073	69.026
307.592	67.9652
309.11	61.0136
310.628	66.1596
312.147	73.0039
313.665	66.4264
315.183	65.3846
316.702	65.6683
318.22	54.4704
319.738	68.8097
321.257	62.9957
322.775	57.3156
324.294	62.6557
325.812	61.0259
327.33	54.9096
328.849	61.9192
330.367	61.8113
331.885	60.5924
333.404	57.596
334.922	60.723
336.44	50.7762
337.959	54.3914
339.477	44.8596
340.995	60.1501
342.514	53.6548
344.032	61.2783
345.55	49.2073
347.069	51.5997
348.587	56.0748
350.105	60.4297
351.624	48.0316
353.142	56.4243
354.66	62.1831
356.179	52.3022
357.697	63.5247
359.216	52.5546
360.734	50.5309
362.252	48.4936
363.771	48.2063
365.289	45.5554
366.807	49.5328
368.326	53.9057
369.844	51.3998
371.362	52.6798
372.881	55.0914
374.399	41.6964
375.917	49.8944
377.436	36.0925
378.954	48.8957
380.472	54.3423
381.991	45.4
383.509	45.7168
385.027	40.2461
386.546	46.4374
388.064	42.5262
389.582	42.3868
391.101	44.198
392.619	48.9877
394.137	42.583
395.656	41.9217
397.174	44.2367
398.693	37.5349
400.211	38.1427
401.729	35.0996
403.248	41.2519
404.766	44.9928
406.284	40.9688
407.803	43.5878
409.321	39.6815
410.839	33.3722
412.358	39.1355
413.876	40.3767
415.394	37.3048
416.913	35.2844
418.431	45.9535
419.949	44.0578
421.468	40.1669
422.986	42.9116
424.504	35.7264
426.023	42.2444
427.541	37.7838
429.059	34.4359
430.578	36.9785
432.096	33.8041
433.615	33.5293
435.133	33.0458
436.651	34.792
438.17	31.7252
439.688	31.5592
441.206	28.7894
442.725	25.5705
444.243	21.5644
445.761	31.3096
447.28	40.0392
448.798	39.6537
450.316	28.0388
451.835	21.3003
453.353	36.3674
454.871	33.6078
456.39	23.3047
457.908	34.8633
459.426	27.5255
460.945	31.5758
462.463	27.8136
463.981	32.9101
465.5	28.3279
467.018	27.5486
468.536	21.9801
470.055	24.8124
471.573	26.2865
473.092	20.0323
474.61	19.5672
476.128	25.4795
477.647	26.9049
479.165	18.4469
480.683	23.0977
482.202	27.4607
483.72	13.1651
485.238	19.5377
486.757	10.5283
488.275	23.1863
489.793	10.1899
491.312	14.1479
492.83	15.5549
494.348	16.4783
495.867	14.9979
497.385	19.2243
498.903	12.8499
500.422	8.21169
501.94	14.2485
503.458	11.041
504.977	1.75839
506.495	12.2651
508.013	13.6236
509.532	11.6251
511.05	9.22553
512.569	1.53683
514.087	5.99801
515.605	10.6584
517.124	5.89823
518.642	0.512034
520.16	13.661
521.679	5.52838
523.197	8.14582
524.715	-0.381853
526.234	1.7402
527.752	11.0911
529.27	3.40736
530.789	12.0654
532.307	2.0573
533.825	2.81836
535.344	10.7424
536.862	7.97764
538.38	4.55209
539.899	-1.2897
541.417	13.253
542.935	6.75519
544.454	6.66015
545.972	12.3965
547.491	1.22988
549.009	6.97978
550.527	5.14244
552.046	5.40226
553.564	3.40711
555.082	10.4608
556.601	12.9657
558.119	1.58976
559.637	3.73994
561.156	3.32336
562.674	3.22495
564.192	5.71483
565.711	4.03175
567.229	9.06475
568.747	1.89581
570.266	7.54999
571.784	13.1691
573.302	7.49763
574.821	9.93575
576.339	14.5149
577.857	15.1684
579.376	5.38836
580.894	5.70762
582.412	1.26008
583.931	4.22341
585.449	10.3731
586.968	8.96754
588.486	7.48249
590.004	2.23004
591.523	1.69007
593.041	2.18573
594.559	5.07464
596.078	0.614195
597.596	12.2013
599.114	7.0448
600.633	11.7463
602.151	5.56911
603.669	5.77699
605.188	4.49369
606.706	9.72543
608.224	5.72827
609.743	5.18222
611.261	10.0798
612.779	6.66473
614.298	8.75731
615.816	13.4234
617.334	14.1451
618.853	14.4684
620.371	8.31462
621.89	9.90245
623.408	12.1774
624.926	6.95061
626.445	11.9068
627.963	6.83996
629.481	4.04121
631	8.05487
632.518	9.45144
634.036	3.50729
635.555	4.73633
637.073	6.22599
638.591	9.22504
640.11	7.97758
641.628	9.94112
643.146	20.3079
644.665	7.19369
646.183	13.7815
647.701	15.1909
649.22	6.97687
650.738	8.1901
652.256	9.30008
653.775	10.8067
655.293	13.6226
656.811	6.75389
658.33	13.6356
659.848	16.058
661.367	12.0294
662.885	17.7159
664.403	18.1073
665.922	8.70092
667.44	15.2436
668.958	12.3895
670.477	6.35552
671.995	15.2798
673.513	21.0562
675.032	19.7061
676.55	16.2925
678.068	12.2878
679.587	11.3988
681.105	15.3796
682.623	23.2169
684.142	15.0041
685.66	14.1701
687.178	21.7611
688.697	12.1156
690.215	12.0093
691.733	16.6847
693.252	25.8019
694.77	14.1431
696.289	20.1082
697.807	15.6213
699.325	10.9861
700.844	5.5945
702.362	12.0496
703.88	13.0528
705.399	13.0716
706.917	18.6931
708.435	12.8234
709.954	17.8947
711.472	14.0722
712.99	15.1414
714.509	17.7212
716.027	12.945
717.545	12.7545
719.064	22.392
720.582	29.0778
722.1	22.673
723.619	21.2788
725.137	23.7562
726.655	18.7864
728.174	12.9442
729.692	19.3846
731.21	26.1955
732.729	16.856
734.247	21.045
735.766	31.8005
737.284	30.185
738.802	33.4041
740.321	26.8802
741.839	23.3793
743.357	31.1462
744.876	23.5257
746.394	31.2704
747.912	30.9503
749.431	29.8723
750.949	34.8448
752.467	38.4703
753.986	29.8638
755.504	27.8852
757.022	31.4761
758.541	38.3172
760.059	28.1595
761.577	20.9667
763.096	25.1209
764.614	29.9133
766.132	23.9154
767.651	36.392
769.169	30.303
770.6875	35.7836
772.206	29.0827
773.724	26.9047
775.242	38.5095
776.761	43.364
778.279	31.1427
779.798	31.4256
781.316	36.1774
782.834	38.4853
784.353	48.9124
785.871	37.0355
787.389	39.2924
788.908	35.9877
790.426	34.2836
791.944	35.646
793.463	30.4532
794.981	42.2995
796.499	30.3338
798.018	44.2627
799.536	35.611
801.054	39.9095
802.573	36.5243
804.091	44.8493
805.609	45.0933
807.128	37.2761
808.646	41.3526
810.164	39.7017
811.683	45.4814
813.201	48.3668
814.72	50.9848
816.238	51.5462
817.756	42.3969
819.275	45.5565
820.793	41.1943
822.311	41.525
823.83	58.749
825.348	49.7241
826.866	46.4911
828.385	39.8652
829.903	49.8466
831.421	48.947
832.94	38.4682
834.458	51.9499
835.976	43.1168
837.495	58.7236
839.013	45.9829
840.531	41.0736
842.05	37.008
843.568	48.6451
845.086	51.1084
846.605	42.637
848.123	48.2284
849.641	51.33
851.16	47.1027
852.678	50.4332
854.197	42.562
855.715	52.199
857.233	48.008
858.752	40.6759
860.27	54.7454
861.788	46.0679
863.307	45.2855
864.825	46.0664
866.343	40.6021
867.862	41.9539
869.38	29.071
870.898	38.4483
872.417	29.7983
873.935	26.3522
875.453	33.9191
876.972	32.6108
878.49	30.3884
880.008	32.7803
881.527	20.8851
883.045	32.2421
884.563	26.4747
886.082	31.3902
887.6	25.7164
889.119	20.3551
890.637	20.1454
892.155	21.2464
893.674	18.0449
895.192	11.5383
896.71	16.6119
898.229	18.9843
899.747	17.609
901.265	12.4842
902.784	10.9541
904.302	20.7177
905.82	11.473
907.339	11.3439
908.857	14.3658
910.375	5.9527
911.894	6.69747
913.412	4.397
914.93	12.3957
916.449	11.7188
917.967	8.5385
919.485	1.41233
921.004	18.5591
922.522	7.01881
924.04	9.05106
925.559	5.40252
927.077	2.58314
928.596	3.74245
930.114	5.48906
931.632	-2.46933
933.151	-5.84136
934.669	1.55229
936.187	5.60834
937.706	1.3874
939.224	-5.42023
940.742	-1.71607
942.261	2.7825
943.779	-3.13954
945.297	2.12691
946.816	14.1578
948.334	0.755596
949.852	-1.48664
951.371	-1.71437
952.889	0.348817
954.407	-4.79052
955.926	-0.239562
957.444	4.26954
958.962	-0.252104
960.481	0.0785283
961.999	1.00579
963.518	-3.95685
965.036	0.893869
966.554	0.345778
968.073	-9.09922
969.591	-1.59398
971.109	-1.26644
972.628	1.46529
974.146	2.25728
975.664	-1.84923
977.183	6.57655
978.701	1.03596
980.219	-9.4242
981.738	3.279
983.256	-0.783592
984.774	-3.41747
986.293	-2.10004
987.811	8.26327
989.329	-5.52739
990.848	0.545718
992.366	-0.116781
993.884	-2.53381
995.403	4.23067
996.921	-3.7481
998.439	-9.198
999.958	-2.02333
1001.48	-8.17151
1002.99	-8.98923
1004.51	1.78956
1006.03	-3.6511
1007.55	-1.92169
1009.07	-3.47395
1010.59	1.90858
1012.1	-9.27715
1013.62	-2.75203
1015.14	-4.5211
1016.66	-1.22033
1018.18	-5.9626
1019.7	-8.86399
1021.21	-6.94823
1022.73	3.85506
1024.25	0.935489
1025.77	-0.645553
1027.29	-6.34363
1028.81	-2.68002
1030.32	-5.8435
1031.84	8.28914
1033.36	0.522084
1034.88	-5.98232
1036.4	-3.92446
1037.92	-8.04925
1039.43	5.67878
1040.95	-1.29452
1042.47	0.26438
1043.99	-8.07906
1045.51	3.49937
1047.03	-5.67176
1048.54	-5.62533
1050.06	0.155711
1051.58	-9.54273
1053.1	4.67303
1054.62	-2.10212
1056.14	-7.90773
1057.66	-9.1502
1059.17	-1.81043
1060.69	-1.17175
1062.21	-8.06756
1063.73	-2.62187
1065.25	-2.05548
1066.77	-2.04102
1068.28	-3.0175
1069.8	-8.75168
1071.32	-10.6217
1072.84	-2.70195
1074.36	-8.2981
1075.88	-4.48596
1077.39	-1.40828
1078.91	0.0685891
1080.43	-2.06679
1081.95	-6.15988
1083.47	-6.21788
1084.99	-3.93969
1086.5	-4.65953
1088.02	-3.6663
1089.54	-2.11377
1091.06	-1.15252
1092.58	-7.47101
1094.1	2.16968
1095.61	-3.2088
1097.13	4.42405
1098.65	-5.08457
1100.17	-4.25411
1101.69	3.71104
1103.21	-1.2254
1104.72	1.14581
1106.24	-0.704672
1107.76	0.734199
1109.28	11.0628
1110.8	0.706782
1112.32	6.0453
1113.83	4.84658
1115.35	-2.08783
1116.87	-0.0817443
1118.39	4.68135
1119.91	6.81907
1121.43	2.73007
1122.94	-5.51366
1124.46	6.54503
1125.98	8.34555
1127.5	7.1756
1129.02	9.34741
1130.54	12.266
1132.05	11.4467
1133.57	-2.40053
1135.09	7.58371
1136.61	11.1309
1138.13	4.80179
1139.65	11.6387
1141.16	6.69612
1142.68	13.8741
1144.2	4.29598
1145.72	2.62824
1147.24	17.1996
1148.76	9.38587
1150.27	22.0604
1151.79	11.7098
1153.31	14.6862
1154.83	22.0769
1156.35	31.4334
1157.87	24.0281
1159.38	10.2784
1160.9	10.8993
1162.42	-2.34977
1163.94	10.0707
1165.46	8.00062
1166.98	15.2593
1168.49	19.7218
1170.01	14.4344
1171.53	16.368
1173.05	10.1318
1174.57	9.06583
1176.09	5.47937
1177.6	16.5807
1179.12	22.5006
1180.64	9.68606
1182.16	15.8671
1183.68	23.2469
1185.2	4.53924
1186.71	22.703
1188.23	19.0131
1189.75	34.1885
1191.27	17.708
1192.79	5.40369
1194.31	7.49294
1195.82	17.2431
1197.34	28.125
1198.86	27.2084
1200.38	12.3465
1201.9	19.2723
1203.42	24.5968
1204.93	21.336
1206.45	25.9999
1207.97	29.1063
1209.49	19.7802
1211.01	32.959
1212.53	28.5988
1214.04	40.7996
1215.56	33.9558
1217.08	29.8527
1218.6	33.5633
1220.12	32.7704
1221.64	37.1508
1223.15	34.9673
1224.67	27.9217
1226.19	44.0953
1227.71	51.6872
1229.23	59.1411
1230.75	38.0661
1232.26	48.4882
1233.78	53.1881
1235.3	64.3971
1236.82	48.7097
1238.34	55.7525
1239.86	45.4964
1241.375	50.3178
1242.89	69.6273
1244.41	54.5004
1245.93	67.1351
1247.45	71.4836
1248.97	84.326
1250.48	79.9168
1252	78.1364
1253.52	70.4517
1255.04	68.9635
1256.56	93.9571
1258.08	81.9244
1259.6	117.465
1261.11	99.0641
1262.63	124.602
1264.15	104.154
1265.67	106.287
1267.19	126.571
1268.71	106.719
1270.22	135.833
1271.74	130.037
1273.26	147.326
1274.78	152.755
1276.3	155.717
1277.82	159.803
1279.33	156.58
1280.85	181.976
1282.37	168.934
1283.89	187.585
1285.41	200.22
1286.93	188.544
1288.44	210.52
1289.96	223.565
1291.48	230.401
1293	243.471
1294.52	245.625
1296.04	253.457
1297.55	259.512
1299.07	267.98
1300.59	291.391
1302.11	295.048
1303.63	312.067
1305.15	312.079
1306.66	339.116
1308.18	358.385
1309.7	340.048
1311.22	375.639
1312.74	373.794
1314.26	417.721
1315.77	436.975
1317.29	460.816
1318.81	459.199
1320.33	479.221
1321.85	497.983
1323.37	503.26
1324.88	526.802
1326.4	534.226
1327.92	573.112
1329.44	582.845
1330.96	588.28
1332.48	610.011
1333.99	638.895
1335.51	676.168
1337.03	640.168
1338.55	667.76
1340.07	650.931
1341.59	677.605
1343.1	677.393
1344.62	706.698
1346.14	689.12
1347.66	679.783
1349.18	679.779
1350.7	680.4
1352.21	668.304
1353.73	661.698
1355.25	637.452
1356.77	647.526
1358.29	626.451
1359.81	615.534
1361.32	597.937
1362.84	581.605
1364.36	575.906
1365.88	549.881
1367.4	531.033
1368.92	519.697
1370.43	485.942
1371.95	458.465
1373.47	442.401
1374.99	418.753
1376.51	412.719
1378.03	410.857
1379.54	385.093
1381.06	359.422
1382.58	370.682
1384.1	320.201
1385.62	330.737
1387.14	304.171
1388.65	278.497
1390.17	283.725
1391.69	238.705
1393.21	249.983
1394.73	229.052
1396.25	241.42
1397.76	216.443
1399.28	197.129
1400.8	189.972
1402.32	185.909
1403.84	175.856
1405.36	171.809
1406.87	166.05
1408.39	145.703
1409.91	140.036
1411.43	130.193
1412.95	124.467
1414.47	113.243
1415.98	110.465
1417.5	101.884
1419.02	97.1708
1420.54	88.73
1422.06	87.1526
1423.58	74.2376
1425.09	98.19
1426.61	77.9578
1428.13	64.902
1429.65	58.5822
1431.17	45.8914
1432.69	53.5631
1434.2	32.1544
1435.72	49.1471
1437.24	26.3739
1438.76	42.8087
1440.28	49.47
1441.8	18.4321
1443.32	27.789
1444.83	30.3576
1446.35	28.2637
1447.87	33.7242
1449.39	23.3021
1450.91	17.7113
1452.43	12.5954
1453.94	12.1383
1455.46	-5.45583
1456.98	1.19077
1458.5	15.7087
1460.02	18.9613
1461.54	9.12805
1463.05	6.59145
1464.57	11.6082
1466.09	13.9628
1467.61	14.8219
1469.13	9.30096
1470.65	6.07129
1472.16	-2.15196
1473.68	3.91353
1475.2	14.0596
1476.72	23.2707
1478.24	22.078
1479.76	19.086
1481.27	13.6685
1482.79	24.341
1484.31	20.0585
1485.83	18.4364
1487.35	25.712
1488.87	23.7437
1490.38	28.2081
1491.9	23.6421
1493.42	41.7494
1494.94	38.6344
1496.46	51.0045
1497.98	52.4912
1499.49	43.7589
1501.01	46.771
1502.53	67.8499
1504.05	63.5149
1505.57	70.8422
1507.09	63.9636
1508.6	59.5014
1510.12	80.2239
1511.64	64.377
1513.16	79.1815
1514.68	81.3879
1516.2	83.9435
1517.71	96.0279
1519.23	107.28
1520.75	108.693
1522.27	108.507
1523.79	93.5887
1525.31	123.07
1526.82	111.711
1528.34	128.276
1529.86	144.017
1531.38	150.014
1532.9	156.98
1534.42	141.151
1535.93	157.136
1537.45	168.241
1538.97	175.281
1540.49	171.821
1542.01	212.694
1543.53	219.338
1545.04	247.098
1546.56	249.227
1548.08	256.248
1549.6	268.051
1551.12	292.933
1552.64	331.93
1554.15	315.528
1555.67	366.459
1557.19	354.441
1558.71	400.183
1560.23	396.702
1561.75	410.153
1563.26	435.619
1564.78	446.301
1566.3	481.875
1567.82	493.375
1569.34	515.629
1570.86	530.02
1572.37	559.246
1573.89	590.53
1575.41	596.263
1576.93	622.247
1578.45	639.247
1579.97	679.744
1581.48	685.026
1583	695.832
1584.52	722.245
1586.04	726.866
1587.56	732.216
1589.08	763.535
1590.59	749.507
1592.11	760.304
1593.63	752.067
1595.15	761.153
1596.67	769.457
1598.19	761.336
1599.7	730.402
1601.22	738.296
1602.74	745.424
1604.26	718.953
1605.78	707.803
1607.3	711.983
1608.81	696.978
1610.33	682.823
1611.85	672.563
1613.37	660.224
1614.89	638.64
1616.41	622.556
1617.92	617.95
1619.44	579.461
1620.96	558.184
1622.48	526.399
1624	496.748
1625.52	466.854
1627.04	456.821
1628.55	432.703
1630.07	399.048
1631.59	383.887
1633.11	360.381
1634.63	338.969
1636.15	308.662
1637.66	306.853
1639.18	274.321
1640.7	256.266
1642.22	230.866
1643.74	216.511
1645.26	199.833
1646.77	190.992
1648.29	176.494
1649.81	156.558
1651.33	149.826
1652.85	132.264
1654.37	120.908
1655.88	115.707
1657.4	108.34
1658.92	95.4991
1660.44	71.3413
1661.96	71.217
1663.48	69.8098
1664.99	64.9343
1666.51	52.5294
1668.03	53.0491
1669.55	48.6629
1671.07	40.0987
1672.59	34.1502
1674.1	27.3976
1675.62	26.8379
1677.14	21.8258
1678.66	21.2169
1680.18	15.7101
1681.7	12.7282
1683.21	17.0703
1684.73	10.5406
1686.25	7.04164
1687.77	5.78148
1689.29	9.02183
1690.81	-0.767595
1692.32	0.451671
1693.84	5.48726
1695.36	0.567484
1696.88	3.73534
1698.4	2.60457
1699.92	7.10998
1701.43	0.297803
1702.95	2.18843
1704.47	2.56216
1705.99	-2.45389
1707.51	1.68399
1709.03	-1.22438
1710.54	4.67239
1712.06	2.30852
1713.58	-0.428538
1715.1	2.52834
1716.62	-0.842765
1718.14	3.56866
1719.65	5.91827
1721.17	1.46702
1722.69	13.7574
1724.21	14.908
1725.73	4.91875
1727.25	6.0693
1728.76	7.21993
1730.28	16.6179
1731.8	9.52102
1733.32	10.6716
1734.84	22.962
1736.36	24.6009
1737.87	6.48575
1739.39	12.4431
1740.91	5.40152
1742.43	8.29875
1743.95	12.8867
1745.47	5.8188
1746.98	6.9683
1748.5	9.19481
1750.02	6.71368
1751.54	9.97802
1753.06	4.7692
1754.58	4.4352
1756.09	5.28453
1757.61	10.2376
1759.13	4.06502
1760.65	11.0014
1762.17	7.6645
1763.69	6.61306
1765.2	11.8599
1766.72	14.0399
1768.24	8.90156
1769.76	11.084
1771.28	5.80759
1772.8	1.02016
1774.31	6.52116
1775.83	9.43526
1777.35	9.50887
1778.87	6.64298
1780.39	8.08387
1781.91	8.31921
1783.42	10.9355
1784.94	10.5114
1786.46	5.9178
1787.98	5.85371
1789.5	8.57063
1791.02	8.16338
1792.53	8.84496
1794.05	11.099
1795.57	7.95968
1797.09	11.1545
1798.61	11.7525
1800.13	9.94022
1801.64	2.496
1803.16	8.2473
1804.68	6.52589
1806.2	9.22191
1807.72	15.1049
1809.24	10.6255
1810.76	10.3072
1812.27	8.02098
1813.79	14.4419
1815.31	8.67523
1816.83	10.5606
1818.35	13.9726
1819.86	12.3978
1821.38	10.6717
1822.9	2.54113
1824.42	6.92224
1825.94	6.95314
1827.46	8.61371
1828.98	10.3516
1830.49	10.9526
1832.01	1.3714
1833.53	10.8231
1835.05	12.79
1836.57	5.44781
1838.09	10.9983
1839.6	10.8237
1841.12	8.65018
1842.64	3.96275
1844.16	9.85888
1845.68	10.8973
1847.2	12.2694
1848.71	8.14956
1850.23	9.39305
1851.75	11.746
1853.27	14.3167
1854.79	10.3058
1856.31	12.3611
1857.82	8.80111
1859.34	11.8108
1860.86	7.51582
1862.38	8.97439
1863.9	13.181
1865.42	8.84373
1866.93	0.910499
1868.45	6.70163
1869.97	6.74509
1871.49	6.24939
1873.01	5.16796
1874.53	6.31921
1876.04	12.3867
1877.56	8.00264
1879.08	1.25466
1880.6	7.62948
1882.12	15.0034
1883.64	15.6364
1885.15	4.26333
1886.67	14.3151
1888.19	15.0227
1889.71	2.92083
1891.23	13.1335
1892.75	13.7815
1894.26	12.9595
1895.78	4.10218
1897.3	6.86442
1898.82	10.6866
1900.34	3.16145
1901.86	13.6113
1903.37	14.5227
1904.89	9.42734
1906.41	8.8734
1907.93	12.1184
1909.45	9.129
1910.97	4.31267
1912.48	5.97241
1914	14.0711
1915.52	12.2981
1917.04	10.7499
1918.56	11.3759
1920.08	15.3207
1921.59	6.61808
1923.11	8.62702
1924.63	12.686
1926.15	8.86777
1927.67	12.3442
1929.19	7.04529
1930.7	5.72471
1932.22	10.5189
1933.74	11.3031
1935.26	7.99604
1936.78	9.1359
1938.3	13.6452
1939.81	9.86164
1941.33	11.271
1942.85	9.23642
1944.37	10.6832
1945.89	6.35111
1947.41	9.1204
1948.92	4.05325
1950.44	7.9419
1951.96	18.7889
1953.48	12.3294
1955	7.4237
1956.52	15.0668
1958.03	2.59902
1959.55	13.353
1961.07	12.0253
1962.59	6.61987
1964.11	8.729
1965.63	5.72109
1967.14	11.3045
1968.66	14.2978
1970.18	8.45487
1971.7	12.8507
1973.22	6.18254
1974.74	12.4619
1976.25	7.69701
1977.77	15.3876
1979.29	14.0495
1980.81	10.2369
1982.33	13.2527
1983.85	4.82421
1985.36	13.0535
1986.88	9.22545
1988.4	10.6544
1989.92	5.78281
1991.44	14.6074
1992.96	9.61429
1994.47	13.8968
1995.99	16.6991
1997.51	10.1148
1999.03	16.262
2000.55	7.08447
2002.07	9.46203
2003.58	12.6416
2005.1	14.3779
2006.62	10.9004
2008.14	12.7899
2009.66	15.9168
2011.18	14.0593
2012.7	12.0194
2014.21	17.0991
2015.73	8.63711
2017.25	14.8693
2018.77	16.6987
2020.29	14.4752
2021.81	15.3469
2023.32	13.4927
2024.84	16.8828
2026.36	8.77972
2027.88	14.5585
2029.4	11.4877
2030.92	10.571
2032.43	12.1986
2033.95	17.1562
2035.47	15.4584
2036.99	15.3271
2038.51	13.6203
2040.03	8.31263
2041.54	14.6121
2043.06	17.2533
2044.58	12.4074
2046.1	12.3313
2047.62	15.3515
2049.14	14.0944
2050.65	18.9255
2052.17	12.9966
2053.69	11.0716
2055.21	14.3491
2056.73	14.0016
2058.25	14.1829
2059.76	12.5107
2061.28	11.1033
2062.8	17.0627
2064.32	14.5252
2065.84	10.1607
2067.36	20.4368
2068.87	11.3268
2070.39	20.1067
2071.91	11.6369
2073.43	18.2477
2074.95	9.8931
2076.47	20.4785
2077.98	10.441
2079.5	12.8874
2081.02	17.0938
2082.54	11.9424
2084.06	21.5308
2085.58	17.9207
2087.09	14.1283
2088.61	15.1213
2090.13	9.86561
2091.65	9.08403
2093.17	15.6644
2094.69	16.6941
2096.2	17.9894
2097.72	10.6072
2099.24	12.4144
2100	15.3749