File: Example Data/Raman/CNT - TIM/Raytheon/Al foil/2010/08-11-10/batch 13 _top.txt
1000	614.56
1001.96	582.304
1003.92	586.483
1005.88	630.041
1007.83	607.665
1009.79	615.607
1011.75	621.951
1013.71	587.921
1015.67	590.969
1017.63	618.1
1019.59	619.844
1021.55	593.331
1023.5	639.47
1025.46	639.189
1027.42	639.967
1029.38	601.275
1031.34	622.323
1033.3	627.619
1035.26	629.573
1037.21	617.15
1039.17	662.315
1041.13	665.725
1043.09	623.144
1045.05	631.076
1047.01	642.097
1048.97	652.532
1050.92	656.806
1052.88	637.425
1054.84	647.826
1056.8	652.286
1058.76	636.493
1060.72	634.222
1062.68	667.823
1064.64	661.641
1066.59	632.978
1068.55	659.22
1070.51	602.317
1072.47	653.197
1074.43	690.899
1076.39	670.065
1078.35	652.916
1080.3	633.736
1082.26	629.088
1084.22	647.391
1086.18	636.979
1088.14	627.739
1090.1	639.275
1092.06	657.732
1094.02	638.855
1095.97	641.992
1097.93	635.648
1099.89	669.997
1101.85	661.253
1103.81	653.826
1105.77	641.834
1107.73	682.815
1109.68	664.973
1111.64	703.727
1113.6	683.081
1115.56	676.242
1117.52	678.55
1119.48	637.768
1121.44	678.823
1123.4	684.798
1125.35	685.649
1127.31	671.239
1129.27	716.232
1131.23	719.262
1133.19	678.78
1135.15	712.378
1137.11	701.22
1139.06	691.961
1141.02	665.112
1142.98	681.73
1144.94	698.97
1146.9	734.936
1148.86	695.184
1150.82	706.294
1152.77	710.057
1154.73	694.018
1156.69	713.054
1158.65	745.573
1160.61	713.533
1162.57	690.576
1164.53	714.611
1166.49	695.33
1168.44	696.849
1170.4	710.586
1172.36	758.497
1174.32	734.968
1176.28	705.114
1178.24	705.204
1180.2	717.305
1182.15	723.621
1184.11	726.438
1186.07	722.662
1188.03	710.9
1189.99	707.078
1191.95	731.566
1193.91	732.008
1195.87	746.024
1197.82	720.996
1199.78	744.644
1201.74	776.455
1203.7	747.169
1205.66	752.836
1207.62	766.8125
1209.58	757.973
1211.53	758.703
1213.49	749.855
1215.45	805.775
1217.41	768.72
1219.37	767.553
1221.33	779.146
1223.29	757.343
1225.24	769.442
1227.2	803.221
1229.16	766.871
1231.12	766.056
1233.08	799.321
1235.04	816.168
1237	796.959
1238.96	817.751
1240.91	820.603
1242.87	858.525
1244.83	845.784
1246.79	836.929
1248.75	844.462
1250.71	837.59
1252.67	846.375
1254.62	866.503
1256.58	873.241
1258.54	893.624
1260.5	926.643
1262.46	886.268
1264.42	885.392
1266.38	835.036
1268.34	918.801
1270.29	934.241
1272.25	909.771
1274.21	916.894
1276.17	957.354
1278.13	957.416
1280.09	981.993
1282.05	946.534
1284	996.69
1285.96	1007.16
1287.92	1001.38
1289.88	1033.19
1291.84	1061.58
1293.8	1058.05
1295.76	1097.12
1297.71	1088.48
1299.67	1068.16
1301.63	1126.08
1303.59	1129.36
1305.55	1150.61
1307.51	1214.22
1309.47	1175.76
1311.43	1224.05
1313.38	1269.11
1315.34	1288.01
1317.3	1272.32
1319.26	1353.76
1321.22	1352.54
1323.18	1342.24
1325.14	1363.25
1327.09	1419.61
1329.05	1368.85
1331.01	1454.23
1332.97	1466.8
1334.93	1478.73
1336.89	1472.99
1338.85	1516.08
1340.81	1508.7
1342.76	1467.03
1344.72	1475.06
1346.68	1491.6
1348.64	1476.21
1350.6	1482.31
1352.56	1447.4
1354.52	1356.98
1356.47	1398.36
1358.43	1411.57
1360.39	1339.38
1362.35	1345.53
1364.31	1337.84
1366.27	1324.76
1368.23	1243.07
1370.18	1250.29
1372.14	1231.86
1374.1	1156.13
1376.06	1184.94
1378.02	1184.01
1379.98	1148.62
1381.94	1135.64
1383.9	1128.04
1385.85	1105.71
1387.81	1065.35
1389.77	1082.55
1391.73	1057.04
1393.69	1067.05
1395.65	1060.31
1397.61	1002.9
1399.56	1036.7
1401.52	990.32
1403.48	1014.69
1405.44	1007.51
1407.4	999.892
1409.36	972.156
1411.32	994.874
1413.28	947.11
1415.23	955.88
1417.19	961.63
1419.15	938.337
1421.11	910.832
1423.07	910.939
1425.03	947.934
1426.99	975.211
1428.94	915.285
1430.9	967.623
1432.86	903.983
1434.82	914.143
1436.78	927.873
1438.74	946.659
1440.7	904.44
1442.66	902.457
1444.61	907.98
1446.57	935.16
1448.53	874.748
1450.49	893.685
1452.45	934.305
1454.41	880.491
1456.37	878.362
1458.32	897.737
1460.28	896.968
1462.24	919.742
1464.2	933.495
1466.16	881.569
1468.12	884.0625
1470.08	947.688
1472.03	875.352
1473.99	956.682
1475.95	888.332
1477.91	914.407
1479.87	909.938
1481.83	921.841
1483.79	925.242
1485.75	882.626
1487.7	923.451
1489.66	926.182
1491.62	914.975
1493.58	905.904
1495.54	904.538
1497.5	935.446
1499.46	873.136
1501.41	932.815
1503.37	844.287
1505.33	926.304
1507.29	939.054
1509.25	973.357
1511.21	867.167
1513.17	920.008
1515.13	903.272
1517.08	879.211
1519.04	953.488
1521	924.318
1522.96	962.804
1524.92	943.011
1526.88	978.82
1528.84	923.38
1530.79	967.76
1532.75	992.605
1534.71	992.052
1536.67	945.442
1538.63	1017.4
1540.59	988.972
1542.55	1035.26
1544.5	1004.33
1546.46	1002.42
1548.42	1080.8
1550.38	1031.47
1552.34	1089.6
1554.3	1145.17
1556.26	1124.24
1558.22	1168.21
1560.17	1157.42
1562.13	1139.75
1564.09	1209.91
1566.05	1278.17
1568.01	1223.81
1569.97	1234.98
1571.93	1281.74
1573.88	1305.88
1575.84	1275.52
1577.8	1336.31
1579.76	1327.51
1581.72	1317.42
1583.68	1365.25
1585.64	1339.02
1587.6	1337.48
1589.55	1327.65
1591.51	1373.05
1593.47	1368.08
1595.43	1373.01
1597.39	1307.55
1599.35	1298.46
1601.31	1297.71
1603.26	1326.58
1605.22	1254.26
1607.18	1250.88
1609.14	1249.61
1611.1	1257.01
1613.06	1189.78
1615.02	1141.21
1616.97	1137.05
1618.93	1040.73
1620.89	1067.2
1622.85	1052.31
1624.81	1053.88
1626.77	1015.8
1628.73	970.134
1630.69	954.256
1632.64	949.811
1634.6	911.037
1636.56	883.836
1638.52	879.1
1640.48	871.343
1642.44	858.79
1644.4	809.055
1646.35	797.937
1648.31	783.56
1650.27	796.852
1652.23	788.341
1654.19	753.004
1656.15	747.89
1658.11	729
1660.07	713.811
1662.02	722.419
1663.98	693.223
1665.94	711.874
1667.9	672.667
1669.86	671.567
1671.82	663.317
1673.78	703.909
1675.73	684.93
1677.69	659.922
1679.65	669.197
1681.61	663.924
1683.57	653.898
1685.53	663.35
1687.49	661.37
1689.45	648.992
1691.4	644.396
1693.36	621.952
1695.32	636.037
1697.28	662.949
1699.24	651.235
1701.2	621.675
1703.16	636.049
1705.11	647.826
1707.07	615.901
1709.03	658.851
1710.99	630.516
1712.95	590.731
1714.91	638.854
1716.87	626.491
1718.82	626.706
1720.78	611.89
1722.74	586.564
1724.7	595.302
1726.66	625.641
1728.62	626.097
1730.58	615.329
1732.54	611.187
1734.49	618.247
1736.45	619.206
1738.41	631.584
1740.37	616.833
1742.33	594.044
1744.29	623.281
1746.25	624.165
1748.2	617.727
1750.16	636.613
1752.12	604.68
1754.08	592.694
1756.04	616.991
1758	594.235
1759.96	612.345
1761.92	590.29
1763.87	590.065
1765.83	582.712
1767.79	576.906
1769.75	584.819
1771.71	587.205
1773.67	629.777
1775.63	597.536
1777.58	594.891
1779.54	574.663
1781.5	604.278
1783.46	591.957
1785.42	636.249
1787.38	605.271
1789.34	610.455
1791.29	592.551
1793.25	604.942
1795.21	588.689
1797.17	619.798
1799.13	606.749
1801.09	618.794
1803.05	581.99
1805.01	578.565
1806.96	631.327
1808.92	590.764
1810.88	603.412
1812.84	604.385
1814.8	606.444
1816.76	591.371
1818.72	615.607
1820.67	632.713
1822.63	583.518
1824.59	596.563
1826.55	599.794
1828.51	631.219
1830.47	611.721
1832.43	608.407
1834.39	609.706
1836.34	593.529
1838.3	604.042
1840.26	584.929
1842.22	583.214
1844.18	614.65
1846.14	627.906
1848.1	634.605
1850.05	593.761
1852.01	622.974
1853.97	577.104
1855.93	604.825
1857.89	590.588
1859.85	620.413
1861.81	608.767
1863.77	562.705
1865.72	564.043
1867.68	611.418
1869.64	583.832
1871.6	577.871
1873.56	606.044
1875.52	615.657
1877.48	602.867
1879.43	591.774
1881.39	576.923
1883.35	599.547
1885.31	603.325
1887.27	625.925
1889.23	582.327
1891.19	618.888
1893.14	572.376
1895.1	594.971
1897.06	572.633
1899.02	568.843
1900.98	592.706
1902.94	617.422
1904.9	621.378
1906.86	603.269
1908.81	573.203
1910.77	586.927
1912.73	584.994
1914.69	603.075
1916.65	610.584
1918.61	603.254
1920.57	609.7
1922.52	589.065
1924.48	585.057
1926.44	577.089
1928.4	598.764
1930.36	621.784
1932.32	607.125
1934.28	611.408
1936.23	605.213
1938.19	572.744
1940.15	589.094
1942.11	589.199
1944.07	594.177
1946.03	583.268
1947.99	606.537
1949.95	592.451
1951.9	603.412
1953.86	597.858
1955.82	604.212
1957.78	574.978
1959.74	568.045
1961.7	598.359
1963.66	592.561
1965.61	616.505
1967.57	590.625
1969.53	567.387
1971.49	560.728
1973.45	581.689
1975.41	589.186
1977.37	571.543
1979.33	584.449
1981.28	601.687
1983.24	580.865
1985.2	576.464
1987.16	568.067
1989.12	597.303
1991.08	589.891
1993.04	588.521
1994.99	569.429
1996.95	572.727
1998.91	582.839
2000.87	606.992
2002.83	604.693
2004.79	571.386
2006.75	568.414
2008.71	570.391
2010.66	573.097
2012.62	602.808
2014.58	617.592
2016.54	590.045
2018.5	600.18
2020.46	584.516
2022.42	608.112
2024.37	582.13
2026.33	631.811
2028.29	644.186
2030.25	566.473
2032.21	580.899
2034.17	613.24
2036.13	576.519
2038.08	593.287
2040.04	589.19
2042	583.996
2043.96	575.842
2045.92	632.416
2047.88	586.131
2049.84	559.282
2051.8	614.707
2053.75	597.549
2055.71	605.511
2057.67	599.46
2059.63	584.853
2061.59	566.007
2063.55	628.773
2065.51	602.212
2067.46	584.42
2069.42	526.91
2071.38	586.09
2073.34	567.97
2075.3	581.69
2077.26	597.5
2079.22	553.49
2081.18	590.909
2083.13	550.885
2085.09	565.703
2087.05	588.669
2089.01	563.312
2090.97	595.52
2092.93	552.182
2094.89	609.223
2096.84	575.325
2098.8	580.862
2100.76	589.621
2102.72	565.17
2104.68	569.817
2106.64	561.977
2108.6	537.8
2110.55	563.502
2112.51	578.17
2114.47	575.048
2116.43	585.775
2118.39	582.838
2120.35	568.798
2122.31	589.951
2124.27	580.715
2126.22	615.271
2128.18	583.969
2130.14	571.198
2132.1	550.314
2134.06	561.628
2136.02	605.052
2137.98	585.39
2139.93	573.398
2141.89	584.593
2143.85	566.477
2145.81	559.079
2147.77	552.611
2149.73	586.316
2151.69	545.404
2153.65	567.439
2155.6	559.978
2157.56	562.973
2159.52	596.165
2161.48	581.757
2163.44	569.992
2165.4	567.989
2167.36	578.996
2169.31	569.81
2171.27	587.331
2173.23	585.271
2175.19	576.61
2177.15	576.729
2179.11	588.399
2181.07	571.628
2183.03	558.854
2184.98	570.242
2186.94	572.44
2188.9	576.699
2190.86	537.684
2192.82	579.071
2194.78	541.3
2196.74	559.883
2198.69	553.246
2200.65	596.816
2202.61	573.628
2204.57	586.206
2206.53	591.849
2208.49	587.712
2210.45	550.864
2212.4	564.985
2214.36	580.713
2216.32	590.896
2218.28	565.496
2220.24	590.43
2222.2	565.464
2224.16	555.474
2226.12	568.631
2228.07	561.865
2230.03	572.464
2231.99	559.882
2233.95	578.28
2235.91	604.748
2237.87	563.938
2239.83	543.572
2241.78	580.391
2243.74	584.976
2245.7	578.197
2247.66	563.985
2249.62	563.293
2251.58	591.712
2253.54	595.77
2255.5	576.613
2257.45	550.678
2259.41	566.914
2261.37	570.449
2263.33	573.977
2265.29	576.145
2267.25	571.061
2269.21	567.403
2271.16	576.108
2273.12	582.816
2275.08	568.751
2277.04	573.101
2279	579.703
2280.96	595.81
2282.92	588.976
2284.87	585.488
2286.83	584.283
2288.79	557.224
2290.75	580.899
2292.71	565.408
2294.67	602.241
2296.63	554.233
2298.59	577.287
2300.54	614.414
2302.5	564.932
2304.46	569.996
2306.42	575.758
2308.38	576.178
2310.34	566.429
2312.3	583.729
2314.25	564.125
2316.21	578.426
2318.17	587.038
2320.13	577.125
2322.09	555.74
2324.05	572.884
2326.01	580.357
2327.97	596.938
2329.92	616.6
2331.88	624.617
2333.84	580.58
2335.8	570.306
2337.76	592.774
2339.72	562.859
2341.68	584.508
2343.63	580.347
2345.59	570.439
2347.55	568.223
2349.51	555.313
2351.47	569.492
2353.43	567.528
2355.39	554.262
2357.34	555.783
2359.3	571.373
2361.26	576.563
2363.22	557.577
2365.18	571.573
2367.14	579.532
2369.1	571.791
2371.06	569.405
2373.01	565.977
2374.97	603.516
2376.93	538.312
2378.89	553.625
2380.85	573.739
2382.81	550.075
2384.77	573.851
2386.72	598.029
2388.68	555.308
2390.64	561.006
2392.6	599.917
2394.56	549.363
2396.52	591.747
2398.48	577
2400.44	590.898
2402.39	579.11
2404.35	549.063
2406.31	606.078
2408.27	570.979
2410.23	617.71
2412.19	587.997
2414.15	571.245
2416.1	580.521
2418.06	624.834
2420.02	576.657
2421.98	588.28
2423.94	567.767
2425.9	595.291
2427.86	568.876
2429.81	574.567
2431.77	583.269
2433.73	578.97
2435.69	607.581
2437.65	607.445
2439.61	607.45
2441.57	621.008
2443.53	579.646
2445.48	586.742
2447.44	578.469
2449.4	630.138
2451.36	604.545
2453.32	547.001
2455.28	569.001
2457.24	560.739
2459.19	561.138
2461.15	571.324
2463.11	588.592
2465.07	593.278
2467.03	567.282
2468.99	585.425
2470.95	556.583
2472.91	550.532
2474.86	599.395
2476.82	583.058
2478.78	537.253
2480.74	583.494
2482.7	545.13
2484.66	563.436
2486.62	565.133
2488.57	571.13
2490.53	607.075
2492.49	597.762
2494.45	587.836
2496.41	593.589
2498.37	576.585
2500.33	589.873
2502.29	567.76
2504.24	585.304
2506.2	570.426
2508.16	555.779
2510.12	609.961
2512.08	573.034
2514.04	568.036
2516	579.885
2517.95	587.24
2519.91	570.053
2521.87	533.954
2523.83	558.734
2525.79	592.199
2527.75	576.349
2529.71	566.923
2531.66	598.048
2533.62	585.417
2535.58	602.198
2537.54	601.242
2539.5	605.363
2541.46	582.385
2543.42	584.619
2545.38	578.97
2547.33	578.556
2549.29	577.764
2551.25	575.793
2553.21	601.169
2555.17	616.644
2557.13	640.095
2559.09	605.738
2561.04	604.603
2563	619.226
2564.96	579.269
2566.92	608.676
2568.88	577.35
2570.84	598.649
2572.8	610.522
2574.76	608.167
2576.71	633.634
2578.67	615.329
2580.63	638.533
2582.59	607.796
2584.55	603.035
2586.51	631.075
2588.47	615.263
2590.42	600.4
2592.38	636.489
2594.34	633.953
2596.3	656.299
2598.26	639.341
2600.22	625.389
2602.18	609.415
2604.14	637.957
2606.09	628.987
2608.05	648.029
2610.01	636.87
2611.97	665.744
2613.93	622.229
2615.89	652.829
2617.85	644.481
2619.8	622.602
2621.76	604.167
2623.72	665.52
2625.68	627.397
2627.64	650.283
2629.6	640.929
2631.56	700.557
2633.51	626.162
2635.47	673.87
2637.43	638.555
2639.39	662.087
2641.35	688.341
2643.31	714.004
2645.27	688.82
2647.23	650.587
2649.18	672.171
2651.14	655.259
2653.1	645.319
2655.06	707.537
2657.02	705.002
2658.98	677.714
2660.94	693.316
2662.89	686.729
2664.85	698.021
2666.81	668.239
2668.77	679.075
2670.73	705.477
2672.69	713.443
2674.65	730.902
2676.6	683.022
2678.56	692.447
2680.52	697.911
2682.48	667.075
2684.44	670.331
2686.4	712.288
2688.36	720.865
2690.32	684.18
2692.27	742.784
2694.23	677.479
2696.19	652.906
2698.15	680.516
2700.11	672.887
2702.07	701.286
2704.03	633.784
2705.98	660.381
2707.94	665.271
2709.9	673.428
2711.86	677.801
2713.82	643.596
2715.78	646.507
2717.74	632.99
2719.7	657.475
2721.65	659.531
2723.61	640.091
2725.57	676.984
2727.53	606.621
2729.49	644.625
2731.45	623.723
2733.41	633.878
2735.36	576.127
2737.32	625.744
2739.28	629.858
2741.24	656.778
2743.2	637.287
2745.16	618.272
2747.12	640.951
2749.08	584.314
2751.03	608.133
2752.99	632.61
2754.95	626.219
2756.91	596.611
2758.87	601.273
2760.83	598.302
2762.79	585.128
2764.74	573.094
2766.7	609.887
2768.66	602.425
2770.62	620.235
2772.58	631.73
2774.54	605.797
2776.5	605.639
2778.45	590.556
2780.41	577.786
2782.37	596
2784.33	558.229
2786.29	595.014
2788.25	587.296
2790.21	565.063
2792.17	608.724
2794.12	581.801
2796.08	573.066
2798.04	565.836
2800	578.364
2801.96	583.782
2803.92	580.639
2805.88	579.585
2807.83	592.286
2809.79	591.952
2811.75	606.238
2813.71	587.037
2815.67	575.062
2817.63	603.931
2819.59	585.817
2821.55	582.808
2823.5	565.973
2825.46	579.64
2827.42	585.932
2829.38	588.898
2831.34	562.612
2833.3	605.071
2835.26	611.836
2837.21	571.94
2839.17	579.971
2841.13	578.436
2843.09	627.941
2845.05	581.157
2847.01	569.831
2848.97	552.364
2850.92	589.588
2852.88	548.646
2854.84	562.738
2856.8	621.614
2858.76	598.296
2860.72	598.109
2862.68	601.643
2864.64	593.201
2866.59	595.199
2868.55	592.195
2870.51	580.745
2872.47	587.797
2874.43	594.727
2876.39	574.083
2878.35	605.693
2880.3	586.76
2882.26	591.43
2884.22	587.767
2886.18	576.038
2888.14	611.651
2890.1	605.706
2892.06	598.901
2894.02	607.318
2895.97	612.789
2897.93	579.353
2899.89	603.832
2901.85	607.321
2903.81	592.292
2905.77	600.512
2907.73	603.62
2909.68	579.832
2911.64	610.177
2913.6	582.442
2915.56	598.588
2917.52	605.078
2919.48	596.682
2921.44	606.564
2923.4	600.416
2925.35	627.136
2927.31	608.684
2929.27	580.704
2931.23	590.178
2933.19	559.768
2935.15	624.573
2937.11	582.67
2939.06	551.179
2941.02	585.09
2942.98	591.571
2944.94	583.718
2946.9	602.218
2948.86	635.551
2950.82	632.285
2952.77	598.78
2954.73	570.154
2956.69	557.523
2958.65	623.617
2960.61	542.156
2962.57	614.368
2964.53	567.309
2966.49	585.031
2968.44	554.629
2970.4	543.231
2972.36	557.177
2974.32	550.472
2976.28	534.799
2978.24	544.107
2980.2	521.945
2982.15	579.75
2984.11	526.615
2986.07	534.416
2988.03	510.064
2989.99	545.931
2991.95	558.899
2993.91	530.203
2995.86	532.303
2997.82	506.363
2999.78	550.384
3001.74	563.282
3003.7	545.079
3005.66	514.065
3007.62	570.96
3009.58	500.743
3011.53	517.014
3013.49	525.628
3015.45	506.05
3017.41	535.536
3019.37	553.015
3021.33	523.421
3023.29	520.737
3025.24	549.56
3027.2	507.526
3029.16	496.636
3031.12	491.129
3033.08	539.218
3035.04	510.306
3037	507.26
3038.96	540.469
3040.91	498.683
3042.87	501.329
3044.83	523.187
3046.79	533.986
3048.75	510.015
3050.71	530.882
3052.67	532.933
3054.62	510.225
3056.58	531.656
3058.54	512.551
3060.5	530.684
3062.46	505.441
3064.42	511.835
3066.38	517.829
3068.34	536.31
3070.29	497.749
3072.25	478.834
3074.21	527.899
3076.17	490.08
3078.13	476.237
3080.09	510.989
3082.05	519.668
3084	534.241
3085.96	501.152
3087.92	511.319
3089.88	478.698
3091.84	477.024
3093.8	522.993
3095.76	524.626
3097.71	507.801
3099.67	516.449
3101.63	506.942
3103.59	500.398
3105.55	511.783
3107.51	486.85
3109.47	498.822
3111.43	516.338
3113.38	508.596
3115.34	487.479
3117.3	516.033
3119.26	532.329
3121.22	496.136
3123.18	505.658
3125.14	490.593
3127.09	477.735
3129.05	489.93
3131.01	468.487
3132.97	479.705
3134.93	520.12
3136.89	505.531
3138.85	482.655
3140.81	496.515
3142.76	523.301
3144.72	493.124
3146.68	468.367
3148.64	482.184
3150.6	499.72
3152.56	522.532
3154.52	484.883
3156.47	490.971
3158.43	461.244
3160.39	467.741
3162.35	471.867
3164.31	477.78
3166.27	463.875
3168.23	485.241
3170.19	466.008
3172.14	473.288
3174.1	488.489
3176.06	475.276
3178.02	482.795
3179.98	480.521
3181.94	520.743
3183.9	506.328
3185.85	476.943
3187.81	465.693
3189.77	485.631
3191.73	490.33
3193.69	479.103
3195.65	463.806
3197.61	503.026
3199.56	489.756
3201.52	503.798
3203.48	471.065
3205.44	468.67
3207.4	489.729
3209.36	477.602
3211.32	506.195
3213.28	488.76
3215.23	489.406
3217.19	466.964
3219.15	487.927
3221.11	499.327
3223.07	511.549
3225.03	466.585
3226.99	522.169
3228.94	481.068
3230.9	457.6
3232.86	486.341
3234.82	474.566
3236.78	496.967
3238.74	477.593
3240.7	525.048
3242.66	476.596
3244.61	488.458
3246.57	456.222
3248.53	468.895
3250.49	454.625
3252.45	494.714
3254.41	459.812
3256.37	443.183
3258.32	443.889
3260.28	472.881
3262.24	494.714
3264.2	460.658
3266.16	435.232
3268.12	442.758
3270.08	448.39
3272.03	435.72
3273.99	490.002
3275.95	451.564
3277.91	469.296
3279.87	461.753
3281.83	449.599
3283.79	412.874
3285.75	438.537
3287.7	451.346
3289.66	444.468
3291.62	456.888
3293.58	469.425
3295.54	425.75
3297.5	432.536
3299.46	427.025
3301.41	446.044
3303.37	436.887
3305.33	447.954
3307.29	455.817
3309.25	447.548
3311.21	447.212
3313.17	413.575
3315.13	440.207
3317.08	444.609
3319.04	451.489
3321	435.23
3322.96	452.486
3324.92	435.903
3326.88	456.476
3328.84	436.836
3330.79	426.9
3332.75	412.465
3334.71	449.411
3336.67	430.404
3338.63	437.926
3340.59	425.302
3342.55	409.224
3344.5	429.955
3346.46	421.691
3348.42	440.811
3350.38	439.623
3352.34	412.25
3354.3	409.077
3356.26	423.113
3358.22	407.237
3360.17	427.875
3362.13	420.236
3364.09	417.271
3366.05	408.478
3368.01	420.431
3369.97	428.136
3371.93	430.729
3373.88	431.481
3375.84	381.633
3377.8	459.162
3379.76	423.414
3381.72	437.536
3383.68	435.524
3385.64	434.301
3387.6	430.043
3389.55	409.356
3391.51	411.032
3393.47	432.448
3395.43	416.335
3397.39	410.241
3399.35	415.293
3400	409.457