File: Example Data/Raman/CNT - TIM/Raytheon/Al foil/2010/08-11-10/batch 13 _bottom.txt
1000	552.502
1001.96	557.261
1003.92	547.512
1005.88	557.381
1007.83	556.413
1009.79	564.607
1011.75	554.847
1013.71	567.556
1015.67	585.037
1017.63	580.81
1019.59	571.195
1021.55	594.037
1023.5	589.737
1025.46	552.225
1027.42	573.347
1029.38	601.62
1031.34	614.85
1033.3	570.467
1035.26	599.987
1037.21	587.342
1039.17	608.815
1041.13	599.501
1043.09	578.184
1045.05	569.231
1047.01	582.089
1048.97	627.845
1050.92	609.553
1052.88	559.169
1054.84	571.064
1056.8	575.013
1058.76	606.011
1060.72	619.327
1062.68	622.946
1064.64	586.121
1066.59	559.115
1068.55	602.44
1070.51	603.84
1072.47	578.383
1074.43	633.624
1076.39	601.731
1078.35	626.47
1080.3	609.971
1082.26	603.308
1084.22	623.305
1086.18	563.562
1088.14	577.619
1090.1	609.909
1092.06	638.637
1094.02	593.131
1095.97	610.856
1097.93	642.585
1099.89	622.244
1101.85	639.72
1103.81	615.517
1105.77	619.328
1107.73	601.222
1109.68	609.389
1111.64	627.64
1113.6	621.081
1115.56	624.771
1117.52	626.63
1119.48	600.117
1121.44	618.024
1123.4	638.05
1125.35	609.551
1127.31	645.141
1129.27	637.116
1131.23	649.661
1133.19	610.323
1135.15	638.486
1137.11	648.89
1139.06	633.901
1141.02	642.116
1142.98	626.027
1144.94	629.317
1146.9	646.468
1148.86	685.065
1150.82	662.257
1152.77	673.678
1154.73	635.194
1156.69	656.189
1158.65	694.096
1160.61	669.987
1162.57	653.576
1164.53	675.238
1166.49	690.524
1168.44	639.943
1170.4	648.442
1172.36	655.098
1174.32	671.889
1176.28	697.284
1178.24	678.605
1180.2	674.386
1182.15	666.251
1184.11	674.22
1186.07	713.761
1188.03	693.259
1189.99	677.109
1191.95	636.699
1193.91	696.008
1195.87	665.219
1197.82	677.154
1199.78	703.436
1201.74	668.227
1203.7	658.441
1205.66	686
1207.62	694.109
1209.58	682.044
1211.53	715.549
1213.49	743.491
1215.45	723.538
1217.41	705.764
1219.37	713.869
1221.33	679.882
1223.29	707.029
1225.24	691.399
1227.2	736.344
1229.16	736.615
1231.12	698.014
1233.08	724.404
1235.04	714.413
1237	734.645
1238.96	719.939
1240.91	714.022
1242.87	734.524
1244.83	714.081
1246.79	735.575
1248.75	751.642
1250.71	746.705
1252.67	746.182
1254.62	798.217
1256.58	773.953
1258.54	788.059
1260.5	819.643
1262.46	812.146
1264.42	807.794
1266.38	785.054
1268.34	804.541
1270.29	789.335
1272.25	792.892
1274.21	813.362
1276.17	830.405
1278.13	839.21
1280.09	831.355
1282.05	832.396
1284	854.463
1285.96	835.222
1287.92	867.997
1289.88	876.574
1291.84	903.201
1293.8	902.224
1295.76	882.679
1297.71	903.13
1299.67	950.224
1301.63	940.767
1303.59	973.422
1305.55	946.602
1307.51	963.677
1309.47	1014.13
1311.43	989.698
1313.38	998.943
1315.34	1029.12
1317.3	1031.55
1319.26	1079.69
1321.22	1068.47
1323.18	1130.97
1325.14	1109.49
1327.09	1141.44
1329.05	1208.59
1331.01	1173.93
1332.97	1208.07
1334.93	1136.82
1336.89	1199.82
1338.85	1213.91
1340.81	1191.63
1342.76	1167.6
1344.72	1140.37
1346.68	1167
1348.64	1168.28
1350.6	1192.03
1352.56	1187.37
1354.52	1148.06
1356.47	1155.46
1358.43	1085.85
1360.39	1148.07
1362.35	1145.77
1364.31	1130.67
1366.27	1086.84
1368.23	1143.09
1370.18	1105.06
1372.14	1040.26
1374.1	1031.31
1376.06	1041.11
1378.02	1013.4
1379.98	980.408
1381.94	1006.68
1383.9	1010.85
1385.85	988.34
1387.81	955.71
1389.77	909.147
1391.73	931.355
1393.69	934.464
1395.65	926.359
1397.61	926.83
1399.56	842.972
1401.52	924.433
1403.48	896.694
1405.44	908.079
1407.4	847.643
1409.36	893.84
1411.32	862.992
1413.28	846.313
1415.23	853.72
1417.19	877.806
1419.15	845.616
1421.11	823.481
1423.07	791.853
1425.03	841.753
1426.99	842.942
1428.94	846.289
1430.9	804.367
1432.86	844.055
1434.82	792.743
1436.78	809.077
1438.74	864.467
1440.7	817.093
1442.66	841.047
1444.61	863.901
1446.57	848.429
1448.53	820.584
1450.49	807.848
1452.45	834.726
1454.41	821.116
1456.37	781.279
1458.32	789.481
1460.28	831.688
1462.24	792.406
1464.2	830.138
1466.16	823.853
1468.12	830.74
1470.08	829.905
1472.03	828.731
1473.99	822.801
1475.95	824.167
1477.91	825.463
1479.87	862.384
1481.83	806.365
1483.79	840.224
1485.75	842.95
1487.7	787.95
1489.66	792.099
1491.62	798.008
1493.58	816.179
1495.54	826.363
1497.5	852.466
1499.46	800.789
1501.41	795.848
1503.37	830.431
1505.33	828.079
1507.29	819.372
1509.25	865.923
1511.21	818.833
1513.17	828.996
1515.13	823.578
1517.08	829.297
1519.04	840.228
1521	844.738
1522.96	824.983
1524.92	873.283
1526.88	842.797
1528.84	837.063
1530.79	863.522
1532.75	838.605
1534.71	860
1536.67	858.867
1538.63	851.348
1540.59	830.753
1542.55	868.628
1544.5	885.645
1546.46	899.863
1548.42	903.577
1550.38	936.658
1552.34	977.221
1554.3	960.547
1556.26	944.045
1558.22	996.737
1560.17	1000.34
1562.13	1046.03
1564.09	978.151
1566.05	1014.14
1568.01	1050.5
1569.97	1060.41
1571.93	1086.09
1573.88	1085.46
1575.84	1112.99
1577.8	1109.02
1579.76	1075.55
1581.72	1122.71
1583.68	1145.17
1585.64	1136.76
1587.6	1165.23
1589.55	1131.28
1591.51	1156.35
1593.47	1118.23
1595.43	1153.84
1597.39	1185.53
1599.35	1151.51
1601.31	1119.93
1603.26	1104.81
1605.22	1103.53
1607.18	1100.5
1609.14	1089.54
1611.1	1079.29
1613.06	1005.24
1615.02	1041.19
1616.97	1033.18
1618.93	995.86
1620.89	993.106
1622.85	914.853
1624.81	928.869
1626.77	945.401
1628.73	872.576
1630.69	913.099
1632.64	889.9
1634.6	829.293
1636.56	864.025
1638.52	801.687
1640.48	803.466
1642.44	785.355
1644.4	813.046
1646.35	757.507
1648.31	741.061
1650.27	725.738
1652.23	736.732
1654.19	723.326
1656.15	699.281
1658.11	677.549
1660.07	686.008
1662.02	705.865
1663.98	681.739
1665.94	644.786
1667.9	679.242
1669.86	657.692
1671.82	632.632
1673.78	648
1675.73	638.795
1677.69	633.071
1679.65	605.721
1681.61	597.625
1683.57	620.986
1685.53	649.458
1687.49	621.946
1689.45	632.281
1691.4	657.865
1693.36	588.157
1695.32	622.779
1697.28	606.215
1699.24	618.13
1701.2	620.009
1703.16	571.887
1705.11	586.93
1707.07	599.11
1709.03	620.396
1710.99	577.76
1712.95	584.845
1714.91	593.565
1716.87	583.283
1718.82	590.339
1720.78	573.12
1722.74	606.156
1724.7	600.434
1726.66	614.291
1728.62	574.436
1730.58	605.903
1732.54	601.025
1734.49	586.805
1736.45	589.83
1738.41	564.06
1740.37	577.595
1742.33	588.431
1744.29	610.5
1746.25	604.269
1748.2	575.28
1750.16	568.203
1752.12	562.777
1754.08	604.319
1756.04	577.537
1758	591.55
1759.96	596.328
1761.92	553.268
1763.87	570.462
1765.83	601.942
1767.79	575.255
1769.75	610.186
1771.71	593.552
1773.67	574.07
1775.63	578.237
1777.58	537.287
1779.54	593.665
1781.5	595.448
1783.46	585.156
1785.42	570.703
1787.38	588.592
1789.34	552.677
1791.29	588.768
1793.25	575.709
1795.21	569.914
1797.17	570.417
1799.13	598.928
1801.09	576.5
1803.05	589.67
1805.01	572.513
1806.96	589.452
1808.92	599.519
1810.88	591.168
1812.84	570.577
1814.8	591.352
1816.76	567.405
1818.72	562.697
1820.67	577.702
1822.63	575.694
1824.59	593.747
1826.55	582.325
1828.51	564.383
1830.47	575.337
1832.43	565.526
1834.39	615.361
1836.34	550.248
1838.3	576.57
1840.26	562.866
1842.22	575.814
1844.18	548.269
1846.14	531.788
1848.1	541.71
1850.05	575.656
1852.01	573.725
1853.97	573.376
1855.93	607.498
1857.89	593.58
1859.85	613.278
1861.81	569.947
1863.77	585.103
1865.72	618.847
1867.68	581.282
1869.64	603.669
1871.6	590.154
1873.56	563.753
1875.52	559.816
1877.48	589.65
1879.43	533.226
1881.39	572.199
1883.35	579.51
1885.31	592.09
1887.27	598.7
1889.23	576.233
1891.19	572.191
1893.14	584.991
1895.1	574.781
1897.06	560.28
1899.02	565.285
1900.98	547.818
1902.94	578.619
1904.9	617.284
1906.86	604.181
1908.81	578.527
1910.77	556.848
1912.73	554.754
1914.69	607.82
1916.65	580.376
1918.61	582.276
1920.57	601.976
1922.52	579.364
1924.48	567.31
1926.44	589.568
1928.4	549.719
1930.36	590.181
1932.32	567.345
1934.28	559.245
1936.23	582.257
1938.19	579.495
1940.15	562.693
1942.11	576.734
1944.07	539.741
1946.03	589.072
1947.99	558.539
1949.95	572.802
1951.9	530.204
1953.86	565.069
1955.82	555.752
1957.78	561.633
1959.74	538.677
1961.7	556.592
1963.66	571.459
1965.61	541.866
1967.57	564.227
1969.53	530.883
1971.49	558.678
1973.45	566.888
1975.41	558.479
1977.37	563.622
1979.33	561.3
1981.28	552.338
1983.24	554.48
1985.2	562.969
1987.16	571.502
1989.12	598.22
1991.08	577.857
1993.04	583.42
1994.99	532.699
1996.95	601.258
1998.91	561.537
2000.87	562.492
2002.83	560.746
2004.79	588.535
2006.75	563.864
2008.71	555.63
2010.66	581.637
2012.62	575.554
2014.58	579.67
2016.54	586.944
2018.5	567.607
2020.46	557.276
2022.42	570.429
2024.37	573.384
2026.33	561.136
2028.29	570.525
2030.25	595.365
2032.21	552.375
2034.17	546.9
2036.13	569.279
2038.08	591.419
2040.04	557.415
2042	596.628
2043.96	593.114
2045.92	576.805
2047.88	521.44
2049.84	534.151
2051.8	554.996
2053.75	544.812
2055.71	570.268
2057.67	552.242
2059.63	578.96
2061.59	543.584
2063.55	538.063
2065.51	585.243
2067.46	539.038
2069.42	581.418
2071.38	546.603
2073.34	588.277
2075.3	549.534
2077.26	554.49
2079.22	581.319
2081.18	572.607
2083.13	537.88
2085.09	546.413
2087.05	537.307
2089.01	574.051
2090.97	542.274
2092.93	562.668
2094.89	572.868
2096.84	537.352
2098.8	552.667
2100.76	548.803
2102.72	550.956
2104.68	559.591
2106.64	533.177
2108.6	540.47
2110.55	557.15
2112.51	539.374
2114.47	548.127
2116.43	562.264
2118.39	571.984
2120.35	567.618
2122.31	523.811
2124.27	538.794
2126.22	520.464
2128.18	568.3
2130.14	531.345
2132.1	556.126
2134.06	541.52
2136.02	572.361
2137.98	585.466
2139.93	577.279
2141.89	550.923
2143.85	549.343
2145.81	551.06
2147.77	549.936
2149.73	535.847
2151.69	543.752
2153.65	550.577
2155.6	546.358
2157.56	537.963
2159.52	524.235
2161.48	557.464
2163.44	532.113
2165.4	527.765
2167.36	546.13
2169.31	547.506
2171.27	581.347
2173.23	549.034
2175.19	544.645
2177.15	581.912
2179.11	576.793
2181.07	534.654
2183.03	576.336
2184.98	541.604
2186.94	564.979
2188.9	540.372
2190.86	550.305
2192.82	579.636
2194.78	549.492
2196.74	559.575
2198.69	572.294
2200.65	558.029
2202.61	556.707
2204.57	553.789
2206.53	565.954
2208.49	555.847
2210.45	569.631
2212.4	540.232
2214.36	528.797
2216.32	571.284
2218.28	528.557
2220.24	551.601
2222.2	560.026
2224.16	560.262
2226.12	552.057
2228.07	543.898
2230.03	529.682
2231.99	542.009
2233.95	548.74
2235.91	510.659
2237.87	564.005
2239.83	558.032
2241.78	543.952
2243.74	575.81
2245.7	539.161
2247.66	509.358
2249.62	540.383
2251.58	551.08
2253.54	522.726
2255.5	549.738
2257.45	550.211
2259.41	556.802
2261.37	582.373
2263.33	571.623
2265.29	527.844
2267.25	538.422
2269.21	552.578
2271.16	534.085
2273.12	571.394
2275.08	519.093
2277.04	521.926
2279	514.95
2280.96	569.442
2282.92	543.731
2284.87	546.761
2286.83	539.267
2288.79	565.25
2290.75	553.353
2292.71	558.153
2294.67	537.915
2296.63	567.335
2298.59	570.192
2300.54	548.993
2302.5	532.772
2304.46	571.019
2306.42	540.091
2308.38	572.159
2310.34	548.193
2312.3	567.052
2314.25	536.723
2316.21	552.069
2318.17	572.166
2320.13	553.947
2322.09	559.798
2324.05	566.307
2326.01	572.128
2327.97	565.567
2329.92	593.46
2331.88	592.711
2333.84	544.769
2335.8	576.226
2337.76	542.337
2339.72	545.392
2341.68	528.005
2343.63	540.943
2345.59	554.924
2347.55	563.723
2349.51	533.858
2351.47	571.219
2353.43	542.846
2355.39	557.193
2357.34	545.03
2359.3	546.645
2361.26	551.15
2363.22	564.995
2365.18	566.373
2367.14	553.077
2369.1	563.592
2371.06	565.767
2373.01	554.22
2374.97	566.401
2376.93	564.449
2378.89	584.087
2380.85	544.975
2382.81	549.956
2384.77	542.952
2386.72	558.43
2388.68	560.66
2390.64	547.551
2392.6	565.77
2394.56	555.428
2396.52	541.17
2398.48	550.75
2400.44	568.303
2402.39	573.156
2404.35	604.118
2406.31	534.376
2408.27	556.95
2410.23	549.21
2412.19	599.719
2414.15	572.32
2416.1	591.516
2418.06	559.003
2420.02	549.347
2421.98	569.39
2423.94	541.417
2425.9	566.841
2427.86	541.023
2429.81	559.152
2431.77	583.424
2433.73	557.62
2435.69	574.364
2437.65	556.47
2439.61	541.521
2441.57	564.66
2443.53	569.528
2445.48	564.092
2447.44	520.623
2449.4	551.634
2451.36	548.158
2453.32	530.84
2455.28	543.483
2457.24	567.879
2459.19	565.7
2461.15	569.12
2463.11	569.163
2465.07	547.763
2467.03	585.41
2468.99	570.626
2470.95	549.96
2472.91	534.949
2474.86	547.597
2476.82	559.048
2478.78	578.478
2480.74	538.635
2482.7	572.968
2484.66	562.775
2486.62	550.95
2488.57	574.1
2490.53	554.093
2492.49	548.523
2494.45	564.506
2496.41	559.145
2498.37	551.341
2500.33	554.742
2502.29	531.591
2504.24	582.26
2506.2	533.125
2508.16	526.781
2510.12	566.504
2512.08	574.4
2514.04	548.78
2516	578.867
2517.95	543.914
2519.91	543.005
2521.87	525.142
2523.83	585.119
2525.79	552.452
2527.75	546.627
2529.71	587.824
2531.66	564.683
2533.62	582.241
2535.58	564.235
2537.54	604.298
2539.5	553.823
2541.46	545.98
2543.42	572.212
2545.38	556.658
2547.33	573.729
2549.29	564.875
2551.25	557.64
2553.21	566.947
2555.17	613.383
2557.13	561.753
2559.09	582.751
2561.04	581.647
2563	591.22
2564.96	577.569
2566.92	577.662
2568.88	557.327
2570.84	555.887
2572.8	562.512
2574.76	564.501
2576.71	586.171
2578.67	583.393
2580.63	611.194
2582.59	573.424
2584.55	585.176
2586.51	588.074
2588.47	564.329
2590.42	578.167
2592.38	602.556
2594.34	569.955
2596.3	612.23
2598.26	552.008
2600.22	597.921
2602.18	574.97
2604.14	583.604
2606.09	575.396
2608.05	602.717
2610.01	590.701
2611.97	617.144
2613.93	617.288
2615.89	592.594
2617.85	587.739
2619.8	594.82
2621.76	589.979
2623.72	598.838
2625.68	603.34
2627.64	598.701
2629.6	582.211
2631.56	564.883
2633.51	590.98
2635.47	612.409
2637.43	582.247
2639.39	614.667
2641.35	610.129
2643.31	625.737
2645.27	595.973
2647.23	637.328
2649.18	633.565
2651.14	618.407
2653.1	648.121
2655.06	625.839
2657.02	621.174
2658.98	615.996
2660.94	643.869
2662.89	640.551
2664.85	632.368
2666.81	627.856
2668.77	621.941
2670.73	595.232
2672.69	626.628
2674.65	637.193
2676.6	642.421
2678.56	646.048
2680.52	650.952
2682.48	640.176
2684.44	687.542
2686.4	633.657
2688.36	656.41
2690.32	626.591
2692.27	609.098
2694.23	625.007
2696.19	630.679
2698.15	616.964
2700.11	648.211
2702.07	652.253
2704.03	616.714
2705.98	622.997
2707.94	580.091
2709.9	625.786
2711.86	608.832
2713.82	610.292
2715.78	614.552
2717.74	647.769
2719.7	609.371
2721.65	607.693
2723.61	603.281
2725.57	582.214
2727.53	597.541
2729.49	586.835
2731.45	580.937
2733.41	603.213
2735.36	569.474
2737.32	605.501
2739.28	585.271
2741.24	577.947
2743.2	626.639
2745.16	600.816
2747.12	642.621
2749.08	592.309
2751.03	569.723
2752.99	570.504
2754.95	568.644
2756.91	576.334
2758.87	588.713
2760.83	578.696
2762.79	570.757
2764.74	566.181
2766.7	582.203
2768.66	598.561
2770.62	557.263
2772.58	597.054
2774.54	558.688
2776.5	598.664
2778.45	579.977
2780.41	540.699
2782.37	557.107
2784.33	560.513
2786.29	574.15
2788.25	541.558
2790.21	554.633
2792.17	604.86
2794.12	540.376
2796.08	553.668
2798.04	576.352
2800	568.52
2801.96	550.31
2803.92	563.282
2805.88	564.744
2807.83	540.599
2809.79	554.137
2811.75	549.095
2813.71	555.537
2815.67	530.762
2817.63	538.81
2819.59	535.846
2821.55	574.464
2823.5	568.146
2825.46	562.863
2827.42	563.289
2829.38	544.728
2831.34	548.211
2833.3	547.35
2835.26	550.25
2837.21	550.037
2839.17	564.072
2841.13	524.522
2843.09	538.015
2845.05	583.396
2847.01	547.583
2848.97	531.663
2850.92	537.471
2852.88	535.771
2854.84	566.966
2856.8	528.996
2858.76	550.879
2860.72	551.979
2862.68	540.762
2864.64	575.651
2866.59	557.095
2868.55	538.222
2870.51	546.49
2872.47	542.686
2874.43	542.398
2876.39	563.84
2878.35	554.033
2880.3	564.702
2882.26	556.916
2884.22	558.798
2886.18	541.826
2888.14	564.953
2890.1	561.339
2892.06	557.878
2894.02	555.289
2895.97	560.699
2897.93	572.49
2899.89	572.697
2901.85	557.638
2903.81	553.057
2905.77	549.092
2907.73	554.164
2909.68	564.411
2911.64	544.768
2913.6	551.089
2915.56	568.113
2917.52	552.26
2919.48	553.73
2921.44	540.057
2923.4	539.652
2925.35	557.273
2927.31	563.167
2929.27	544.856
2931.23	552.637
2933.19	564.081
2935.15	564.498
2937.11	573.493
2939.06	546.299
2941.02	567.452
2942.98	540.322
2944.94	546.225
2946.9	541.161
2948.86	538.955
2950.82	551.955
2952.77	565.295
2954.73	558.527
2956.69	542.634
2958.65	580.965
2960.61	552.884
2962.57	540.092
2964.53	519.748
2966.49	534.862
2968.44	545.606
2970.4	514.907
2972.36	524.937
2974.32	533.13
2976.28	561.117
2978.24	501.242
2980.2	520.095
2982.15	517.752
2984.11	508.535
2986.07	489.393
2988.03	520.955
2989.99	541.823
2991.95	496.399
2993.91	562.975
2995.86	510.155
2997.82	540.59
2999.78	514.184
3001.74	529.687
3003.7	534.801
3005.66	514.216
3007.62	492.779
3009.58	521.932
3011.53	526.57
3013.49	508.87
3015.45	494.764
3017.41	483.809
3019.37	484.246
3021.33	491.517
3023.29	480.366
3025.24	487.289
3027.2	495.295
3029.16	474.561
3031.12	529.909
3033.08	503.247
3035.04	484.44
3037	477.109
3038.96	523.774
3040.91	495.16
3042.87	495.283
3044.83	494.208
3046.79	487.544
3048.75	485.003
3050.71	475.439
3052.67	516.648
3054.62	478.41
3056.58	506.877
3058.54	479.179
3060.5	503.678
3062.46	498.66
3064.42	529.201
3066.38	521.037
3068.34	474.471
3070.29	490.505
3072.25	477.431
3074.21	509.031
3076.17	486.295
3078.13	493.645
3080.09	473.259
3082.05	508.757
3084	474.619
3085.96	483.436
3087.92	481.86
3089.88	477.393
3091.84	481.398
3093.8	488.464
3095.76	497.406
3097.71	493.147
3099.67	519.824
3101.63	494.811
3103.59	519.886
3105.55	487.701
3107.51	472.171
3109.47	472.882
3111.43	476.955
3113.38	489.51
3115.34	495.367
3117.3	466.522
3119.26	489.945
3121.22	494.075
3123.18	479.847
3125.14	472.149
3127.09	434.424
3129.05	497.242
3131.01	458.296
3132.97	458.948
3134.93	484.054
3136.89	477.016
3138.85	461.496
3140.81	469.055
3142.76	448.234
3144.72	435.236
3146.68	467.731
3148.64	481.423
3150.6	482.876
3152.56	472.756
3154.52	469.655
3156.47	500.326
3158.43	461.912
3160.39	475.691
3162.35	503.312
3164.31	454.109
3166.27	481.464
3168.23	480.898
3170.19	472.238
3172.14	485.754
3174.1	468.48
3176.06	519.037
3178.02	466.105
3179.98	449.897
3181.94	446.959
3183.9	497.706
3185.85	445.334
3187.81	496.404
3189.77	485.274
3191.73	452.08
3193.69	469.53
3195.65	445.946
3197.61	500.396
3199.56	462.092
3201.52	460.009
3203.48	449.961
3205.44	465.941
3207.4	417.794
3209.36	485.691
3211.32	443.35
3213.28	503.938
3215.23	447.309
3217.19	461.314
3219.15	490.687
3221.11	459.533
3223.07	474.779
3225.03	431.28
3226.99	479.846
3228.94	470.859
3230.9	466.286
3232.86	458.542
3234.82	453.509
3236.78	480.785
3238.74	465.382
3240.7	441.61
3242.66	474.253
3244.61	466.625
3246.57	455.741
3248.53	472.156
3250.49	458.07
3252.45	417.985
3254.41	447.512
3256.37	464.63
3258.32	454.921
3260.28	414.384
3262.24	457.802
3264.2	438.177
3266.16	445.647
3268.12	471.902
3270.08	482.778
3272.03	452.33
3273.99	449.907
3275.95	458.489
3277.91	451.979
3279.87	450.681
3281.83	462.744
3283.79	426.31
3285.75	440.545
3287.7	423.533
3289.66	453.461
3291.62	416.516
3293.58	438.684
3295.54	425.4
3297.5	434.519
3299.46	428.679
3301.41	435.342
3303.37	430.961
3305.33	427.575
3307.29	465.82
3309.25	433.404
3311.21	425.69
3313.17	439.096
3315.13	439.066
3317.08	412.897
3319.04	392.053
3321	409.481
3322.96	404.327
3324.92	421.15
3326.88	424.412
3328.84	437.596
3330.79	425.526
3332.75	445.753
3334.71	398.753
3336.67	406.4
3338.63	440.417
3340.59	415.715
3342.55	410.837
3344.5	410.412
3346.46	407.659
3348.42	424.332
3350.38	417.538
3352.34	429.051
3354.3	424.036
3356.26	391.818
3358.22	413.913
3360.17	424.867
3362.13	409.314
3364.09	436.077
3366.05	409.93
3368.01	407.176
3369.97	404.294
3371.93	419.513
3373.88	444.187
3375.84	393.638
3377.8	422.943
3379.76	387.49
3381.72	407.379
3383.68	435.268
3385.64	395.538
3387.6	419.735
3389.55	416.192
3391.51	394.823
3393.47	440.173
3395.43	417.165
3397.39	442.363
3399.35	390.145
3400	398.824