File: Example Data/Raman/CNT - TIM/Raytheon/Al foil/2010/08-11-10/batch 13 _bottom2.txt
1000	569.958
1001.96	550.522
1003.92	538.59
1005.88	556.367
1007.83	524.303
1009.79	532.887
1011.75	590.182
1013.71	534.031
1015.67	553.9
1017.63	537.269
1019.59	603.169
1021.55	582.134
1023.5	550.706
1025.46	557.895
1027.42	581.873
1029.38	563.921
1031.34	585.677
1033.3	575.25
1035.26	574.987
1037.21	529.539
1039.17	576.658
1041.13	565.456
1043.09	595.969
1045.05	559.77
1047.01	595.84
1048.97	589.476
1050.92	597.323
1052.88	577.952
1054.84	588.193
1056.8	568.597
1058.76	585.988
1060.72	574.283
1062.68	607.423
1064.64	590.743
1066.59	613.74
1068.55	571.323
1070.51	562.994
1072.47	598.074
1074.43	582.681
1076.39	587.097
1078.35	589.265
1080.3	577.645
1082.26	593.308
1084.22	590.719
1086.18	557.278
1088.14	584.382
1090.1	626.731
1092.06	595.453
1094.02	615.579
1095.97	603.824
1097.93	567.058
1099.89	612.162
1101.85	599.857
1103.81	605.729
1105.77	606.583
1107.73	611.742
1109.68	629.557
1111.64	612.95
1113.6	664.351
1115.56	612.471
1117.52	613.767
1119.48	605.242
1121.44	607.045
1123.4	590.301
1125.35	621.874
1127.31	617.263
1129.27	604.814
1131.23	608.504
1133.19	631.464
1135.15	622.244
1137.11	611.981
1139.06	655.862
1141.02	608.412
1142.98	642.324
1144.94	660.901
1146.9	640.269
1148.86	603.46
1150.82	632.642
1152.77	662.403
1154.73	634.097
1156.69	633.982
1158.65	659.452
1160.61	653.962
1162.57	654.479
1164.53	650.325
1166.49	650.694
1168.44	655.141
1170.4	618.89
1172.36	648.619
1174.32	629.731
1176.28	645.25
1178.24	668.739
1180.2	624.582
1182.15	644.379
1184.11	666.804
1186.07	674.796
1188.03	677.424
1189.99	646.969
1191.95	670.346
1193.91	609.855
1195.87	681.878
1197.82	707.537
1199.78	667
1201.74	677.439
1203.7	711.3
1205.66	708.993
1207.62	660.026
1209.58	708.779
1211.53	663.898
1213.49	699.17
1215.45	649.929
1217.41	702.776
1219.37	709.228
1221.33	712.945
1223.29	705.219
1225.24	705.619
1227.2	679.643
1229.16	708.82
1231.12	703.065
1233.08	720.579
1235.04	671.649
1237	739.322
1238.96	722.536
1240.91	723.009
1242.87	703.001
1244.83	700.943
1246.79	745.655
1248.75	744.436
1250.71	730.098
1252.67	744.282
1254.62	768.733
1256.58	767.682
1258.54	773.412
1260.5	762.025
1262.46	757.047
1264.42	785.28
1266.38	774.739
1268.34	754.402
1270.29	772.538
1272.25	811.478
1274.21	837.808
1276.17	791.683
1278.13	788.872
1280.09	846.195
1282.05	838.493
1284	844.114
1285.96	838.573
1287.92	839.959
1289.88	881.695
1291.84	891.84
1293.8	867.709
1295.76	879.357
1297.71	895.003
1299.67	889.383
1301.63	904.968
1303.59	923.031
1305.55	949.412
1307.51	1001.64
1309.47	965
1311.43	972.336
1313.38	1033.85
1315.34	1054.11
1317.3	1004.46
1319.26	1071.67
1321.22	1085.88
1323.18	1072.26
1325.14	1085.51
1327.09	1147.14
1329.05	1196.1
1331.01	1235.7
1332.97	1216.85
1334.93	1223.66
1336.89	1265.01
1338.85	1274.12
1340.81	1258.96
1342.76	1309.82
1344.72	1278.79
1346.68	1294.68
1348.64	1265.04
1350.6	1261.58
1352.56	1306.2
1354.52	1268.03
1356.47	1309.46
1358.43	1240.52
1360.39	1240.44
1362.35	1215.38
1364.31	1179.13
1366.27	1191.79
1368.23	1199.02
1370.18	1162.96
1372.14	1099.17
1374.1	1142.31
1376.06	1096.17
1378.02	1038.31
1379.98	1083.64
1381.94	1028.86
1383.9	1008.64
1385.85	1017.32
1387.81	1003.74
1389.77	996.554
1391.73	979.067
1393.69	978.838
1395.65	907.961
1397.61	964.794
1399.56	920.514
1401.52	916.19
1403.48	882.416
1405.44	909.131
1407.4	916.05
1409.36	881.2
1411.32	874.97
1413.28	863.555
1415.23	899.68
1417.19	880.101
1419.15	871.872
1421.11	855
1423.07	821
1425.03	818.929
1426.99	828.616
1428.94	848.502
1430.9	822.616
1432.86	855.481
1434.82	831.265
1436.78	830.198
1438.74	861.999
1440.7	831.129
1442.66	779.06
1444.61	794.944
1446.57	850.908
1448.53	817.432
1450.49	824.975
1452.45	802.428
1454.41	835.024
1456.37	824.979
1458.32	832.007
1460.28	813.62
1462.24	851.644
1464.2	864.024
1466.16	808.586
1468.12	835.26
1470.08	816.168
1472.03	782.499
1473.99	814.039
1475.95	846.779
1477.91	829.039
1479.87	771.954
1481.83	791.71
1483.79	816.952
1485.75	823.176
1487.7	789.95
1489.66	817.938
1491.62	806.963
1493.58	805.809
1495.54	810.935
1497.5	761.797
1499.46	816.62
1501.41	799.705
1503.37	761.295
1505.33	818.087
1507.29	803.187
1509.25	811.329
1511.21	789.836
1513.17	819.608
1515.13	803.483
1517.08	823.813
1519.04	844.967
1521	800.986
1522.96	814.977
1524.92	820.804
1526.88	834.046
1528.84	843.443
1530.79	844.161
1532.75	849.116
1534.71	842.209
1536.67	886.022
1538.63	874.116
1540.59	874.945
1542.55	895.035
1544.5	925.289
1546.46	891.574
1548.42	875.956
1550.38	906.165
1552.34	939.037
1554.3	923.796
1556.26	978.657
1558.22	1001.12
1560.17	993.392
1562.13	953.843
1564.09	1057.51
1566.05	1037.5
1568.01	1096.82
1569.97	1061.47
1571.93	1092.17
1573.88	1098.98
1575.84	1204.95
1577.8	1180.52
1579.76	1159.95
1581.72	1213.44
1583.68	1219.05
1585.64	1249.78
1587.6	1183.18
1589.55	1267.48
1591.51	1255.12
1593.47	1229.78
1595.43	1254.24
1597.39	1272.68
1599.35	1264.13
1601.31	1194.11
1603.26	1234.57
1605.22	1125.32
1607.18	1173.47
1609.14	1203.81
1611.1	1167.57
1613.06	1214.86
1615.02	1145.14
1616.97	1130.4
1618.93	1111.42
1620.89	1094.01
1622.85	1038.94
1624.81	1068.15
1626.77	1037.88
1628.73	985.965
1630.69	947.229
1632.64	915.459
1634.6	972.872
1636.56	929.545
1638.52	924.654
1640.48	853.896
1642.44	840.573
1644.4	845.158
1646.35	834.214
1648.31	789.81
1650.27	801.705
1652.23	792.326
1654.19	731.661
1656.15	716.451
1658.11	700.307
1660.07	692.322
1662.02	664.379
1663.98	697.556
1665.94	671.446
1667.9	695.575
1669.86	668.701
1671.82	634.737
1673.78	608.86
1675.73	647.425
1677.69	651.993
1679.65	609.197
1681.61	598.616
1683.57	608.029
1685.53	648.699
1687.49	626.73
1689.45	600.145
1691.4	612.49
1693.36	627.421
1695.32	601.305
1697.28	592.611
1699.24	601.623
1701.2	580.182
1703.16	597.095
1705.11	585.562
1707.07	589.858
1709.03	545.839
1710.99	582.235
1712.95	594.201
1714.91	601.146
1716.87	574.605
1718.82	588.234
1720.78	579.441
1722.74	565.123
1724.7	583.732
1726.66	583.445
1728.62	570.016
1730.58	596.862
1732.54	579.311
1734.49	597.367
1736.45	568.778
1738.41	578.6
1740.37	562.208
1742.33	569.414
1744.29	582.366
1746.25	593.598
1748.2	583.31
1750.16	595.992
1752.12	580.703
1754.08	590.379
1756.04	577.577
1758	590.566
1759.96	582.23
1761.92	597.208
1763.87	553.379
1765.83	578.989
1767.79	583.918
1769.75	594.461
1771.71	577.615
1773.67	572.791
1775.63	567.098
1777.58	598.721
1779.54	550.214
1781.5	565.531
1783.46	580.073
1785.42	587.997
1787.38	575.177
1789.34	596.732
1791.29	554.401
1793.25	539.611
1795.21	560.404
1797.17	586.459
1799.13	584.48
1801.09	548.598
1803.05	549.943
1805.01	565.869
1806.96	578.837
1808.92	551.693
1810.88	568.594
1812.84	548.52
1814.8	594.762
1816.76	598.716
1818.72	603.458
1820.67	526.035
1822.63	578.237
1824.59	571.301
1826.55	596.562
1828.51	586.837
1830.47	581.317
1832.43	586.952
1834.39	571.677
1836.34	555.891
1838.3	552.348
1840.26	561.01
1842.22	577.832
1844.18	586.322
1846.14	566.653
1848.1	579.866
1850.05	563.262
1852.01	558.88
1853.97	552.213
1855.93	569.91
1857.89	587.429
1859.85	582.464
1861.81	568.211
1863.77	569.179
1865.72	586.033
1867.68	585.85
1869.64	585.304
1871.6	569.24
1873.56	582.624
1875.52	525.356
1877.48	583.649
1879.43	577.95
1881.39	599.183
1883.35	577.386
1885.31	579.276
1887.27	579.594
1889.23	559.192
1891.19	578.486
1893.14	572.907
1895.1	593.107
1897.06	591.991
1899.02	571.025
1900.98	570.572
1902.94	583.791
1904.9	548.194
1906.86	562.571
1908.81	595.816
1910.77	574.631
1912.73	577.617
1914.69	582.818
1916.65	561.629
1918.61	568.734
1920.57	582.019
1922.52	579.468
1924.48	547.709
1926.44	562.543
1928.4	552.433
1930.36	569.726
1932.32	579.078
1934.28	561.283
1936.23	563.562
1938.19	557.906
1940.15	566.368
1942.11	542.754
1944.07	522.648
1946.03	583.757
1947.99	557.997
1949.95	563.966
1951.9	563.935
1953.86	589.923
1955.82	572.214
1957.78	563.775
1959.74	554.034
1961.7	561.402
1963.66	556.886
1965.61	597.309
1967.57	548.058
1969.53	541.585
1971.49	577.344
1973.45	564.849
1975.41	568.725
1977.37	557.668
1979.33	557.18
1981.28	561.102
1983.24	542.175
1985.2	533.893
1987.16	545.764
1989.12	590.584
1991.08	557.383
1993.04	574.029
1994.99	582.09
1996.95	590.057
1998.91	568.894
2000.87	556.271
2002.83	574.265
2004.79	563.059
2006.75	594.218
2008.71	588.839
2010.66	567.021
2012.62	562.684
2014.58	554.209
2016.54	564.838
2018.5	596.425
2020.46	588.209
2022.42	581.545
2024.37	571.162
2026.33	587.496
2028.29	561.868
2030.25	594.744
2032.21	551.725
2034.17	551.558
2036.13	576.962
2038.08	597.332
2040.04	575.369
2042	570.842
2043.96	574.223
2045.92	591.798
2047.88	566.881
2049.84	543.964
2051.8	568.59
2053.75	576.17
2055.71	574.203
2057.67	587.368
2059.63	550.05
2061.59	565.557
2063.55	545.344
2065.51	578.111
2067.46	562.914
2069.42	566.061
2071.38	543.444
2073.34	541.791
2075.3	547.022
2077.26	550.963
2079.22	560.412
2081.18	543.315
2083.13	564.19
2085.09	547.594
2087.05	555.999
2089.01	575.858
2090.97	544.102
2092.93	595.491
2094.89	577.279
2096.84	579.268
2098.8	542.735
2100.76	581.763
2102.72	555.136
2104.68	552.19
2106.64	567.594
2108.6	545.521
2110.55	564.699
2112.51	574.379
2114.47	570.729
2116.43	534.746
2118.39	578.368
2120.35	563.007
2122.31	546.566
2124.27	560.937
2126.22	549.302
2128.18	516.293
2130.14	557.04
2132.1	573.745
2134.06	552.504
2136.02	553.192
2137.98	539.823
2139.93	549.322
2141.89	546.092
2143.85	554.793
2145.81	554.903
2147.77	543.4
2149.73	555.008
2151.69	530.106
2153.65	574.051
2155.6	504.637
2157.56	558.02
2159.52	547.766
2161.48	551.668
2163.44	542.719
2165.4	585.569
2167.36	592.614
2169.31	560.352
2171.27	562.722
2173.23	575.419
2175.19	521.378
2177.15	562.026
2179.11	528.354
2181.07	533.955
2183.03	576.204
2184.98	545.905
2186.94	571.594
2188.9	536.899
2190.86	554.749
2192.82	564.067
2194.78	561.559
2196.74	552.109
2198.69	561.193
2200.65	534.67
2202.61	548.594
2204.57	555.529
2206.53	581.743
2208.49	526.177
2210.45	536.444
2212.4	538.031
2214.36	531.755
2216.32	558.732
2218.28	546.394
2220.24	564.132
2222.2	549.757
2224.16	549.779
2226.12	535.318
2228.07	543.034
2230.03	543.285
2231.99	551.537
2233.95	553.714
2235.91	514.555
2237.87	547.073
2239.83	540.026
2241.78	548.39
2243.74	532.726
2245.7	527.053
2247.66	545.262
2249.62	554.473
2251.58	566.203
2253.54	559.803
2255.5	548.17
2257.45	547.132
2259.41	545.231
2261.37	557.321
2263.33	582.215
2265.29	573.471
2267.25	512.445
2269.21	569.041
2271.16	561.82
2273.12	553.791
2275.08	573.367
2277.04	545.433
2279	548.961
2280.96	566.918
2282.92	551.811
2284.87	538.21
2286.83	548.146
2288.79	548.338
2290.75	532.165
2292.71	526.297
2294.67	596.351
2296.63	539.392
2298.59	555.419
2300.54	576.962
2302.5	571.187
2304.46	601.263
2306.42	553.507
2308.38	555.274
2310.34	523.924
2312.3	569.906
2314.25	557.362
2316.21	584.956
2318.17	541.851
2320.13	582.382
2322.09	569.574
2324.05	555.948
2326.01	567.217
2327.97	558.889
2329.92	618.9
2331.88	609.985
2333.84	558.894
2335.8	547.706
2337.76	539.139
2339.72	556.288
2341.68	558.296
2343.63	541.174
2345.59	546.993
2347.55	553.363
2349.51	554.362
2351.47	540.422
2353.43	535.165
2355.39	554.358
2357.34	536.901
2359.3	557.37
2361.26	548.989
2363.22	559.07
2365.18	567.082
2367.14	547.633
2369.1	539.698
2371.06	555.245
2373.01	562.027
2374.97	567.944
2376.93	560.757
2378.89	572.873
2380.85	559.853
2382.81	539.183
2384.77	545.977
2386.72	545.996
2388.68	563.429
2390.64	562.228
2392.6	571.21
2394.56	570.159
2396.52	551.341
2398.48	522.362
2400.44	557.104
2402.39	550.3
2404.35	542.866
2406.31	551.651
2408.27	576.974
2410.23	569.953
2412.19	554.891
2414.15	529.949
2416.1	555.971
2418.06	592.757
2420.02	592.094
2421.98	585.907
2423.94	549.516
2425.9	555.569
2427.86	571.214
2429.81	572.632
2431.77	594.302
2433.73	572.676
2435.69	582.764
2437.65	577.793
2439.61	540.717
2441.57	565.625
2443.53	594.27
2445.48	579.953
2447.44	565.299
2449.4	563.805
2451.36	573.395
2453.32	536.724
2455.28	591.377
2457.24	567.817
2459.19	589.188
2461.15	539.204
2463.11	556.999
2465.07	581.324
2467.03	564.009
2468.99	552.916
2470.95	587.269
2472.91	551.19
2474.86	599.948
2476.82	552.89
2478.78	588.406
2480.74	561.267
2482.7	595.885
2484.66	574.061
2486.62	571.767
2488.57	546.15
2490.53	533.428
2492.49	526.004
2494.45	573.649
2496.41	568.412
2498.37	582.652
2500.33	559.406
2502.29	598.651
2504.24	562.99
2506.2	520.231
2508.16	588.686
2510.12	563.47
2512.08	560.688
2514.04	603.201
2516	575.498
2517.95	563.917
2519.91	566.03
2521.87	532.912
2523.83	560.665
2525.79	567.317
2527.75	590.421
2529.71	580.391
2531.66	528.299
2533.62	597.496
2535.58	594.403
2537.54	585.724
2539.5	564.785
2541.46	565.776
2543.42	582.497
2545.38	555.976
2547.33	580.257
2549.29	579.131
2551.25	571.473
2553.21	601.113
2555.17	567.506
2557.13	583.046
2559.09	599.777
2561.04	571.033
2563	572.61
2564.96	559.123
2566.92	576.653
2568.88	579.083
2570.84	624.751
2572.8	534.941
2574.76	560.583
2576.71	567.802
2578.67	593.809
2580.63	557.704
2582.59	623.896
2584.55	543.985
2586.51	601.965
2588.47	555.554
2590.42	599.313
2592.38	576.419
2594.34	580.56
2596.3	593.773
2598.26	594.195
2600.22	593.502
2602.18	570.937
2604.14	605.389
2606.09	567.206
2608.05	606.376
2610.01	575.915
2611.97	593.064
2613.93	609.492
2615.89	577.716
2617.85	614.805
2619.8	639.648
2621.76	618.134
2623.72	616.526
2625.68	593.752
2627.64	601.286
2629.6	613.103
2631.56	613.123
2633.51	625.452
2635.47	628.753
2637.43	594.318
2639.39	643.139
2641.35	609.403
2643.31	620.109
2645.27	622.199
2647.23	617.426
2649.18	639.413
2651.14	673.764
2653.1	643.317
2655.06	685.924
2657.02	643.222
2658.98	687.87
2660.94	693.793
2662.89	696.746
2664.85	695.612
2666.81	694.583
2668.77	661.078
2670.73	694.111
2672.69	715.261
2674.65	689.281
2676.6	692.243
2678.56	678.948
2680.52	690.543
2682.48	672.178
2684.44	694.317
2686.4	701.542
2688.36	686.57
2690.32	719.669
2692.27	674.732
2694.23	686.631
2696.19	739.126
2698.15	680.359
2700.11	663.723
2702.07	704.545
2704.03	706.974
2705.98	659.517
2707.94	642.308
2709.9	661.771
2711.86	658.025
2713.82	665.495
2715.78	693.285
2717.74	646.826
2719.7	683.355
2721.65	676.328
2723.61	631.774
2725.57	699.105
2727.53	639.763
2729.49	640.358
2731.45	623.145
2733.41	648.206
2735.36	658.654
2737.32	606.228
2739.28	635.979
2741.24	614.905
2743.2	631.755
2745.16	604.142
2747.12	635.688
2749.08	555.85
2751.03	600.754
2752.99	602.131
2754.95	626.91
2756.91	611.07
2758.87	582.296
2760.83	585.12
2762.79	595.45
2764.74	590.75
2766.7	584.505
2768.66	614.427
2770.62	628.666
2772.58	568.178
2774.54	588.528
2776.5	579.789
2778.45	590.727
2780.41	576.255
2782.37	586.639
2784.33	589.469
2786.29	578.793
2788.25	582.796
2790.21	581.687
2792.17	588.292
2794.12	590.037
2796.08	564.701
2798.04	560.145
2800	611.668
2801.96	599.615
2803.92	546.192
2805.88	530.383
2807.83	539.07
2809.79	566.033
2811.75	563.651
2813.71	548.943
2815.67	581.119
2817.63	588.865
2819.59	542.443
2821.55	583.543
2823.5	564.303
2825.46	566.995
2827.42	558.955
2829.38	562.09
2831.34	547.278
2833.3	554.078
2835.26	568.942
2837.21	564.124
2839.17	554.518
2841.13	565.703
2843.09	571.416
2845.05	553.601
2847.01	541.225
2848.97	575.246
2850.92	575.733
2852.88	588.655
2854.84	540.653
2856.8	571.425
2858.76	557.023
2860.72	550.284
2862.68	553.626
2864.64	563.362
2866.59	547.469
2868.55	575.752
2870.51	549.87
2872.47	543.484
2874.43	560.92
2876.39	564.007
2878.35	594.334
2880.3	580.456
2882.26	557.198
2884.22	580.931
2886.18	557.224
2888.14	570.967
2890.1	563.792
2892.06	599.597
2894.02	591.388
2895.97	566.191
2897.93	577.907
2899.89	575.635
2901.85	577.12
2903.81	587.518
2905.77	561.018
2907.73	586.485
2909.68	568.191
2911.64	603.308
2913.6	595.935
2915.56	564.402
2917.52	562.733
2919.48	607.652
2921.44	573.524
2923.4	594.766
2925.35	549.43
2927.31	572.943
2929.27	584.376
2931.23	568.594
2933.19	589.41
2935.15	561.009
2937.11	595.083
2939.06	574.456
2941.02	581.965
2942.98	573.955
2944.94	570.624
2946.9	586.697
2948.86	566.578
2950.82	578.244
2952.77	588.288
2954.73	574.553
2956.69	581.79
2958.65	547.019
2960.61	578.799
2962.57	559.417
2964.53	553.383
2966.49	536.901
2968.44	578.734
2970.4	544.635
2972.36	555.165
2974.32	575.584
2976.28	573.054
2978.24	544.701
2980.2	520.104
2982.15	544.725
2984.11	530.519
2986.07	522.96
2988.03	550.183
2989.99	539.323
2991.95	512.659
2993.91	503.141
2995.86	518.05
2997.82	520.95
2999.78	536.888
3001.74	489.573
3003.7	547.686
3005.66	514.742
3007.62	540.5
3009.58	505.38
3011.53	524.051
3013.49	552.546
3015.45	519.27
3017.41	522.708
3019.37	533.932
3021.33	539.486
3023.29	506.693
3025.24	565.514
3027.2	515.825
3029.16	507.246
3031.12	486.82
3033.08	507.428
3035.04	527.659
3037	498.143
3038.96	529.25
3040.91	507.373
3042.87	529.494
3044.83	497.666
3046.79	492.768
3048.75	525.099
3050.71	510.034
3052.67	501.105
3054.62	491.207
3056.58	514.405
3058.54	529.091
3060.5	494.158
3062.46	531.847
3064.42	494.225
3066.38	517.353
3068.34	508.386
3070.29	500.825
3072.25	526.989
3074.21	515.895
3076.17	516.938
3078.13	512.186
3080.09	501.905
3082.05	516.995
3084	498.757
3085.96	501.671
3087.92	468.29
3089.88	498.568
3091.84	480.08
3093.8	527.884
3095.76	529.632
3097.71	501.655
3099.67	486.4
3101.63	513.28
3103.59	488.756
3105.55	482.437
3107.51	478.427
3109.47	479.495
3111.43	486.148
3113.38	528.712
3115.34	479.162
3117.3	513.901
3119.26	483.962
3121.22	507.938
3123.18	524.008
3125.14	461.352
3127.09	476.544
3129.05	487.423
3131.01	481.44
3132.97	473.775
3134.93	481.175
3136.89	484.123
3138.85	465.99
3140.81	509.623
3142.76	495.776
3144.72	485.396
3146.68	488.76
3148.64	470.604
3150.6	459.088
3152.56	478.134
3154.52	469.877
3156.47	488.286
3158.43	471.932
3160.39	445.356
3162.35	477.932
3164.31	458.086
3166.27	489.657
3168.23	482.828
3170.19	479.492
3172.14	473.988
3174.1	486.541
3176.06	494.213
3178.02	467.705
3179.98	512.323
3181.94	467.846
3183.9	478.023
3185.85	467.895
3187.81	474.606
3189.77	482.791
3191.73	498.155
3193.69	479.446
3195.65	475.714
3197.61	471.876
3199.56	460.476
3201.52	492.079
3203.48	486.515
3205.44	463.381
3207.4	443.776
3209.36	483.796
3211.32	481.673
3213.28	484.406
3215.23	486.47
3217.19	475.849
3219.15	482.251
3221.11	474.748
3223.07	419.264
3225.03	478.082
3226.99	477.823
3228.94	476.377
3230.9	462.04
3232.86	465.594
3234.82	476.85
3236.78	459.147
3238.74	455.171
3240.7	457.467
3242.66	451.346
3244.61	486.039
3246.57	464.255
3248.53	460.274
3250.49	467.717
3252.45	468.541
3254.41	483.826
3256.37	435.265
3258.32	473.454
3260.28	467.576
3262.24	445.128
3264.2	432.282
3266.16	476.917
3268.12	472.136
3270.08	453.519
3272.03	450.014
3273.99	481.954
3275.95	471.759
3277.91	434.323
3279.87	465.28
3281.83	442.724
3283.79	462.714
3285.75	443.785
3287.7	455.252
3289.66	428.256
3291.62	455.534
3293.58	463.168
3295.54	435.104
3297.5	428.691
3299.46	468.892
3301.41	427.727
3303.37	449.153
3305.33	440.49
3307.29	423.366
3309.25	433.049
3311.21	461.882
3313.17	437.316
3315.13	449.865
3317.08	415.762
3319.04	440.219
3321	411.842
3322.96	415.089
3324.92	446.927
3326.88	480.305
3328.84	457.866
3330.79	437.717
3332.75	466.428
3334.71	430.692
3336.67	418.572
3338.63	459.082
3340.59	417.035
3342.55	418.214
3344.5	448.47
3346.46	463.387
3348.42	401.76
3350.38	428.392
3352.34	417.49
3354.3	439.297
3356.26	415.364
3358.22	403.929
3360.17	415.542
3362.13	429.547
3364.09	411.911
3366.05	428.434
3368.01	409.085
3369.97	419.353
3371.93	401.803
3373.88	401.058
3375.84	428.278
3377.8	403.645
3379.76	417.813
3381.72	398.2
3383.68	415.674
3385.64	407.507
3387.6	402.758
3389.55	426.018
3391.51	422.085
3393.47	436.16
3395.43	437.124
3397.39	409.511
3399.35	388.908
3400	433.672