File: Example Data/Raman/CNT - TIM/Raytheon/Al foil/2010/08-11-10/Batch13_top2.txt
1000	562.938
1001.96	580.87
1003.92	585.838
1005.88	580.065
1007.83	602.11
1009.79	589.935
1011.75	602.97
1013.71	593.389
1015.67	571.518
1017.63	622.731
1019.59	597.039
1021.55	626.046
1023.5	616.325
1025.46	575.105
1027.42	632.918
1029.38	580.734
1031.34	605.194
1033.3	603.348
1035.26	609.77
1037.21	593.689
1039.17	602.435
1041.13	590.023
1043.09	629.607
1045.05	591.192
1047.01	628.009
1048.97	626.473
1050.92	621.553
1052.88	656.086
1054.84	669.706
1056.8	663.752
1058.76	627.993
1060.72	630.655
1062.68	621
1064.64	617.626
1066.59	637.991
1068.55	617.843
1070.51	618.347
1072.47	628.702
1074.43	641.667
1076.39	605.237
1078.35	643.609
1080.3	650.207
1082.26	621.055
1084.22	633.378
1086.18	649.412
1088.14	617.214
1090.1	677.363
1092.06	624.905
1094.02	613.454
1095.97	631.376
1097.93	648.259
1099.89	628.083
1101.85	648.377
1103.81	660.584
1105.77	686.676
1107.73	666.964
1109.68	621.114
1111.64	641.913
1113.6	635.001
1115.56	666.784
1117.52	619.193
1119.48	635.427
1121.44	646.411
1123.4	673.099
1125.35	652.067
1127.31	663.859
1129.27	695.326
1131.23	668.008
1133.19	685.271
1135.15	684.404
1137.11	662.846
1139.06	685.326
1141.02	662.094
1142.98	683.581
1144.94	697.158
1146.9	675.617
1148.86	717.683
1150.82	681.165
1152.77	701.378
1154.73	700.581
1156.69	697.847
1158.65	709.785
1160.61	710.035
1162.57	725.534
1164.53	684.556
1166.49	708.195
1168.44	709.292
1170.4	701.805
1172.36	702.294
1174.32	687.111
1176.28	701.261
1178.24	739.261
1180.2	717.516
1182.15	696.682
1184.11	706.878
1186.07	700.275
1188.03	710.576
1189.99	687.906
1191.95	698.409
1193.91	732.397
1195.87	729.976
1197.82	749.683
1199.78	724.216
1201.74	738.939
1203.7	759.7
1205.66	745.334
1207.62	738.161
1209.58	749.438
1211.53	780.501
1213.49	717.194
1215.45	761.449
1217.41	739.87
1219.37	734.046
1221.33	804.814
1223.29	769.012
1225.24	786.64
1227.2	780.471
1229.16	783.779
1231.12	801.993
1233.08	749.917
1235.04	782.762
1237	800.108
1238.96	770.226
1240.91	793.647
1242.87	807.311
1244.83	776.842
1246.79	820.301
1248.75	862.692
1250.71	835.319
1252.67	813.367
1254.62	768.296
1256.58	856.379
1258.54	874.104
1260.5	840.766
1262.46	849.047
1264.42	873.724
1266.38	862.928
1268.34	876.202
1270.29	878.654
1272.25	937.906
1274.21	882.275
1276.17	881.93
1278.13	907.907
1280.09	949.522
1282.05	935.658
1284	944.321
1285.96	967.708
1287.92	961.959
1289.88	967.878
1291.84	966.915
1293.8	961.468
1295.76	1000.66
1297.71	1011.02
1299.67	1016.61
1301.63	1032.59
1303.59	1053
1305.55	1080.58
1307.51	1125.61
1309.47	1103.75
1311.43	1117.7
1313.38	1148.55
1315.34	1175.6
1317.3	1228.96
1319.26	1252.25
1321.22	1229.43
1323.18	1254.13
1325.14	1266.5
1327.09	1277.05
1329.05	1257.39
1331.01	1354.69
1332.97	1360.2
1334.93	1348.72
1336.89	1338.37
1338.85	1341.79
1340.81	1372.39
1342.76	1365.31
1344.72	1392.58
1346.68	1328.7
1348.64	1417.52
1350.6	1337.75
1352.56	1313.65
1354.52	1342.46
1356.47	1292.55
1358.43	1303.95
1360.39	1295.49
1362.35	1263.22
1364.31	1228.71
1366.27	1229.86
1368.23	1194.81
1370.18	1181.2
1372.14	1182.78
1374.1	1193.4
1376.06	1146.02
1378.02	1127.88
1379.98	1115.34
1381.94	1081.32
1383.9	1098.49
1385.85	1071.87
1387.81	1056.42
1389.77	1080.24
1391.73	1052.48
1393.69	999.292
1395.65	1019.98
1397.61	969.714
1399.56	987.129
1401.52	983.691
1403.48	958.173
1405.44	973.536
1407.4	962.293
1409.36	948.402
1411.32	984.896
1413.28	933.357
1415.23	918.72
1417.19	878.388
1419.15	910.285
1421.11	987.924
1423.07	882.767
1425.03	919.101
1426.99	844.75
1428.94	877.749
1430.9	910.285
1432.86	902.213
1434.82	904.173
1436.78	862.368
1438.74	905.915
1440.7	873.869
1442.66	871.207
1444.61	872.228
1446.57	869.661
1448.53	909.632
1450.49	886.371
1452.45	871.466
1454.41	839.265
1456.37	859.65
1458.32	898.324
1460.28	889.492
1462.24	895.119
1464.2	923.024
1466.16	876.809
1468.12	887.195
1470.08	890.627
1472.03	851.979
1473.99	885.574
1475.95	888.5
1477.91	846.714
1479.87	871.631
1481.83	846.262
1483.79	917.064
1485.75	881.977
1487.7	880.75
1489.66	898.45
1491.62	854.119
1493.58	894.713
1495.54	886.981
1497.5	886.41
1499.46	890.48
1501.41	851.075
1503.37	885.448
1505.33	888.964
1507.29	932.473
1509.25	858.699
1511.21	878.169
1513.17	884.655
1515.13	929.456
1517.08	925.043
1519.04	894.777
1521	884.15
1522.96	915.653
1524.92	935.974
1526.88	935.813
1528.84	918.847
1530.79	935.078
1532.75	886.094
1534.71	937.367
1536.67	939.756
1538.63	914.182
1540.59	1000.03
1542.55	981.185
1544.5	991.282
1546.46	984.371
1548.42	995.834
1550.38	1028.96
1552.34	1049.89
1554.3	1098.17
1556.26	1055.91
1558.22	1090.5
1560.17	1109.07
1562.13	1135.17
1564.09	1134.09
1566.05	1168.72
1568.01	1188.69
1569.97	1158.06
1571.93	1170.34
1573.88	1176.63
1575.84	1217.99
1577.8	1273
1579.76	1252.39
1581.72	1250.22
1583.68	1307.77
1585.64	1298.13
1587.6	1303.06
1589.55	1270.72
1591.51	1271.4
1593.47	1261.89
1595.43	1287.34
1597.39	1276.37
1599.35	1283.1
1601.31	1240.81
1603.26	1223.12
1605.22	1162.38
1607.18	1211.82
1609.14	1156.89
1611.1	1205.16
1613.06	1133.02
1615.02	1162.37
1616.97	1088.92
1618.93	1105.56
1620.89	1014.06
1622.85	1030.15
1624.81	989.632
1626.77	958.714
1628.73	955.576
1630.69	972.471
1632.64	921.533
1634.6	912.658
1636.56	909.295
1638.52	886.829
1640.48	842.54
1642.44	827.435
1644.4	812.325
1646.35	812.038
1648.31	776.451
1650.27	793.279
1652.23	786.225
1654.19	762.651
1656.15	770.597
1658.11	706.719
1660.07	742.245
1662.02	698.65
1663.98	709.041
1665.94	683.764
1667.9	668.015
1669.86	670.701
1671.82	667.528
1673.78	639.538
1675.73	668.444
1677.69	662.338
1679.65	640.787
1681.61	608.607
1683.57	677.783
1685.53	595.024
1687.49	612.562
1689.45	619.073
1691.4	637.712
1693.36	610.523
1695.32	615.109
1697.28	598.291
1699.24	609.42
1701.2	628.108
1703.16	637.417
1705.11	627.238
1707.07	608.881
1709.03	616.978
1710.99	593.747
1712.95	621.558
1714.91	624.287
1716.87	616.65
1718.82	590.578
1720.78	614.149
1722.74	592.877
1724.7	617.802
1726.66	610.177
1728.62	616.109
1730.58	579.969
1732.54	596.046
1734.49	605.006
1736.45	597.892
1738.41	604.405
1740.37	573.036
1742.33	596.103
1744.29	603.897
1746.25	564.809
1748.2	614.123
1750.16	590.223
1752.12	619.18
1754.08	584.768
1756.04	589.336
1758	593.979
1759.96	566.024
1761.92	621.4
1763.87	597.177
1765.83	583.487
1767.79	609.984
1769.75	613.728
1771.71	580.025
1773.67	598.336
1775.63	564.254
1777.58	580.12
1779.54	609.978
1781.5	618.619
1783.46	603.333
1785.42	568.583
1787.38	583.693
1789.34	578.444
1791.29	583.335
1793.25	557.011
1795.21	614.799
1797.17	597.784
1799.13	592.645
1801.09	570.995
1803.05	612.606
1805.01	585.544
1806.96	603.135
1808.92	606.764
1810.88	583.842
1812.84	602.794
1814.8	588.24
1816.76	627.247
1818.72	591.164
1820.67	622.152
1822.63	625.552
1824.59	596.719
1826.55	605.206
1828.51	592.178
1830.47	586.878
1832.43	645.567
1834.39	635.679
1836.34	587.662
1838.3	575.918
1840.26	580.834
1842.22	599.26
1844.18	614.744
1846.14	609.951
1848.1	599.951
1850.05	585.257
1852.01	600.991
1853.97	594.306
1855.93	650.014
1857.89	581.309
1859.85	583.007
1861.81	595.75
1863.77	565.516
1865.72	579.506
1867.68	587.43
1869.64	593.218
1871.6	571.309
1873.56	609.513
1875.52	553.94
1877.48	617.914
1879.43	613.543
1881.39	581.44
1883.35	609.563
1885.31	576.418
1887.27	574.509
1889.23	596.95
1891.19	596.753
1893.14	600.463
1895.1	566.569
1897.06	562.283
1899.02	569.682
1900.98	588.415
1902.94	579.934
1904.9	596.743
1906.86	583.122
1908.81	589.86
1910.77	599.368
1912.73	570.551
1914.69	573.783
1916.65	592.131
1918.61	573.721
1920.57	572.125
1922.52	582.582
1924.48	596.62
1926.44	591.502
1928.4	559.154
1930.36	585.518
1932.32	586.229
1934.28	585.226
1936.23	598.6875
1938.19	578.676
1940.15	558.192
1942.11	610.787
1944.07	565.917
1946.03	574.813
1947.99	580.445
1949.95	603.096
1951.9	600.641
1953.86	593.781
1955.82	557.095
1957.78	553.398
1959.74	591.399
1961.7	585.804
1963.66	605.632
1965.61	566.852
1967.57	582.703
1969.53	561.788
1971.49	573.692
1973.45	560.549
1975.41	570.28
1977.37	585.638
1979.33	605.509
1981.28	571.008
1983.24	606.571
1985.2	550.541
1987.16	566.655
1989.12	565.356
1991.08	571.438
1993.04	542.514
1994.99	602.46
1996.95	561.584
1998.91	610.079
2000.87	598.216
2002.83	589.325
2004.79	581.959
2006.75	577.051
2008.71	574.461
2010.66	593.283
2012.62	613.767
2014.58	566.481
2016.54	598.541
2018.5	609.328
2020.46	602.017
2022.42	596.206
2024.37	609.458
2026.33	579.695
2028.29	633.493
2030.25	556.277
2032.21	575.13
2034.17	599.102
2036.13	590.498
2038.08	577.579
2040.04	613.74
2042	605.694
2043.96	572.589
2045.92	602.282
2047.88	579.24
2049.84	574.813
2051.8	592.938
2053.75	578.38
2055.71	595.077
2057.67	573.305
2059.63	595.207
2061.59	595.178
2063.55	558.718
2065.51	575.165
2067.46	559.353
2069.42	561.227
2071.38	631.751
2073.34	566.539
2075.3	542.513
2077.26	585.096
2079.22	570.753
2081.18	555.464
2083.13	572.942
2085.09	583.374
2087.05	562.595
2089.01	574.755
2090.97	541.012
2092.93	584.924
2094.89	561.178
2096.84	585.138
2098.8	564.051
2100.76	581.695
2102.72	558.22
2104.68	575.78
2106.64	584.942
2108.6	548.34
2110.55	590.889
2112.51	576.994
2114.47	577.1875
2116.43	546.034
2118.39	610.053
2120.35	549.765
2122.31	589.863
2124.27	544.459
2126.22	562.973
2128.18	598.369
2130.14	587.392
2132.1	570.862
2134.06	582.604
2136.02	595.736
2137.98	591.502
2139.93	559.467
2141.89	553.571
2143.85	582.91
2145.81	572.427
2147.77	590.017
2149.73	570.582
2151.69	553.607
2153.65	573.062
2155.6	570.821
2157.56	579.655
2159.52	548.458
2161.48	555.003
2163.44	577.829
2165.4	566.933
2167.36	549.711
2169.31	586.936
2171.27	581.893
2173.23	602.419
2175.19	586.834
2177.15	573.707
2179.11	561.336
2181.07	609.906
2183.03	564.966
2184.98	556.528
2186.94	542.757
2188.9	607.22
2190.86	590.637
2192.82	565.488
2194.78	552.148
2196.74	554.86
2198.69	579.57
2200.65	560.56
2202.61	585.874
2204.57	563.577
2206.53	576.389
2208.49	580.754
2210.45	563.512
2212.4	547.111
2214.36	553.57
2216.32	582.687
2218.28	541.422
2220.24	558.211
2222.2	578.698
2224.16	569.747
2226.12	565.253
2228.07	557.385
2230.03	581.569
2231.99	561.174
2233.95	566.545
2235.91	565.054
2237.87	564.346
2239.83	570.589
2241.78	569.841
2243.74	549.843
2245.7	540.752
2247.66	533.294
2249.62	562.991
2251.58	579.217
2253.54	562.667
2255.5	560.518
2257.45	592.688
2259.41	551.642
2261.37	579.91
2263.33	593.726
2265.29	577.898
2267.25	560.793
2269.21	564.092
2271.16	569.715
2273.12	541.78
2275.08	539.565
2277.04	540.351
2279	569.033
2280.96	579.756
2282.92	559.598
2284.87	538.794
2286.83	574.759
2288.79	550.254
2290.75	558.914
2292.71	544.025
2294.67	603.665
2296.63	585.482
2298.59	582.718
2300.54	563.613
2302.5	577.874
2304.46	567.294
2306.42	569.508
2308.38	562.74
2310.34	560.991
2312.3	551.149
2314.25	578.241
2316.21	564.706
2318.17	588.523
2320.13	586.121
2322.09	580.757
2324.05	593.276
2326.01	550.406
2327.97	582.178
2329.92	641.093
2331.88	642.209
2333.84	568.832
2335.8	590.626
2337.76	574.786
2339.72	563.362
2341.68	566.146
2343.63	550.686
2345.59	557.667
2347.55	568.231
2349.51	563.73
2351.47	572.782
2353.43	561.593
2355.39	545.775
2357.34	544.329
2359.3	597.469
2361.26	552.685
2363.22	560.666
2365.18	598.72
2367.14	559.175
2369.1	574.114
2371.06	545.983
2373.01	565.92
2374.97	578.58
2376.93	569.067
2378.89	576.878
2380.85	581.651
2382.81	566.679
2384.77	557.51
2386.72	583.983
2388.68	604.99
2390.64	578.326
2392.6	545.222
2394.56	573.417
2396.52	564.278
2398.48	551.861
2400.44	555.831
2402.39	579.123
2404.35	569.727
2406.31	590.656
2408.27	604.205
2410.23	577.595
2412.19	606.363
2414.15	593.544
2416.1	554.757
2418.06	600.153
2420.02	562.66
2421.98	584.322
2423.94	612.797
2425.9	575.367
2427.86	617.706
2429.81	554.455
2431.77	609.696
2433.73	559.936
2435.69	579.875
2437.65	595.763
2439.61	622.357
2441.57	603.78
2443.53	589.402
2445.48	582.233
2447.44	526.32
2449.4	568.478
2451.36	585.558
2453.32	569.915
2455.28	614.658
2457.24	569.987
2459.19	558.768
2461.15	564.594
2463.11	628.385
2465.07	575.204
2467.03	576.4
2468.99	565.615
2470.95	575.37
2472.91	568.575
2474.86	573.507
2476.82	582.654
2478.78	599.563
2480.74	578.747
2482.7	586.565
2484.66	570.811
2486.62	564.678
2488.57	602.1
2490.53	574.063
2492.49	579.822
2494.45	612.367
2496.41	584.031
2498.37	617.26
2500.33	574.98
2502.29	591.724
2504.24	572.24
2506.2	554.877
2508.16	580.987
2510.12	577.896
2512.08	568.978
2514.04	576.2
2516	554.38
2517.95	586.502
2519.91	603.957
2521.87	578.184
2523.83	568.252
2525.79	617.819
2527.75	600.517
2529.71	581.096
2531.66	607.259
2533.62	579.068
2535.58	615.371
2537.54	580.817
2539.5	565.475
2541.46	608.632
2543.42	609.504
2545.38	612.531
2547.33	573.255
2549.29	579.053
2551.25	572.211
2553.21	618.636
2555.17	590.256
2557.13	595.302
2559.09	608.404
2561.04	598.911
2563	583.313
2564.96	594.8
2566.92	604.507
2568.88	605.914
2570.84	575.101
2572.8	581.105
2574.76	598.189
2576.71	601.436
2578.67	612.654
2580.63	601.554
2582.59	640.617
2584.55	601.881
2586.51	588.315
2588.47	570.812
2590.42	639.683
2592.38	625.342
2594.34	594.552
2596.3	620.664
2598.26	604.721
2600.22	624.111
2602.18	603.682
2604.14	614.672
2606.09	631.989
2608.05	597.234
2610.01	641.963
2611.97	628.739
2613.93	631.126
2615.89	635.741
2617.85	595.586
2619.8	589.347
2621.76	643.306
2623.72	637.513
2625.68	634.74
2627.64	639.461
2629.6	626.345
2631.56	685.812
2633.51	650.581
2635.47	644.081
2637.43	643.338
2639.39	660.563
2641.35	637.757
2643.31	651.322
2645.27	636.542
2647.23	660.125
2649.18	667.001
2651.14	675.058
2653.1	683.185
2655.06	656.715
2657.02	659.797
2658.98	660.235
2660.94	676.063
2662.89	667.924
2664.85	674.857
2666.81	661.31
2668.77	661.872
2670.73	668.964
2672.69	704.414
2674.65	679.743
2676.6	689.922
2678.56	660.171
2680.52	674.289
2682.48	685.603
2684.44	712.381
2686.4	648.333
2688.36	686.356
2690.32	632.472
2692.27	642.058
2694.23	699.523
2696.19	661.389
2698.15	662.652
2700.11	650.954
2702.07	662.716
2704.03	682.656
2705.98	657.362
2707.94	682.69
2709.9	649.215
2711.86	642.838
2713.82	661.253
2715.78	648.206
2717.74	646.05
2719.7	662.403
2721.65	667.38
2723.61	652.325
2725.57	642.366
2727.53	638.008
2729.49	619.391
2731.45	641.861
2733.41	616.516
2735.36	626.27
2737.32	624.538
2739.28	619.205
2741.24	619.617
2743.2	612.318
2745.16	621.078
2747.12	648.497
2749.08	596.779
2751.03	629.389
2752.99	592.408
2754.95	603.642
2756.91	621.673
2758.87	589.006
2760.83	582.322
2762.79	599.109
2764.74	558.312
2766.7	616.146
2768.66	590.112
2770.62	598.521
2772.58	584.345
2774.54	610
2776.5	597.35
2778.45	599.997
2780.41	607.745
2782.37	543.659
2784.33	566.821
2786.29	586.604
2788.25	568.029
2790.21	580.195
2792.17	586.314
2794.12	562.244
2796.08	572.865
2798.04	587.565
2800	588.776
2801.96	582.211
2803.92	576.336
2805.88	595.767
2807.83	589.687
2809.79	589.384
2811.75	586.322
2813.71	569.686
2815.67	574.059
2817.63	568.778
2819.59	549.85
2821.55	604.028
2823.5	581.437
2825.46	582.879
2827.42	581.552
2829.38	571.765
2831.34	565.284
2833.3	543.525
2835.26	581.382
2837.21	594.354
2839.17	604.006
2841.13	578.986
2843.09	568.09
2845.05	566.563
2847.01	571.576
2848.97	573.82
2850.92	577.9
2852.88	572.686
2854.84	569.34
2856.8	592.171
2858.76	597.074
2860.72	569.494
2862.68	571.022
2864.64	597.883
2866.59	589.744
2868.55	580.449
2870.51	583.325
2872.47	590.182
2874.43	586.305
2876.39	577.413
2878.35	566.607
2880.3	574.039
2882.26	581.153
2884.22	585.805
2886.18	592.462
2888.14	603.092
2890.1	570.829
2892.06	595.942
2894.02	604.736
2895.97	604.667
2897.93	607.707
2899.89	595.483
2901.85	590.303
2903.81	579.11
2905.77	595.189
2907.73	577.001
2909.68	582.48
2911.64	578.983
2913.6	596.183
2915.56	572.564
2917.52	607.12
2919.48	597.652
2921.44	602.148
2923.4	591.269
2925.35	570.998
2927.31	582.258
2929.27	581.907
2931.23	606.68
2933.19	589.788
2935.15	553.149
2937.11	612.569
2939.06	595.448
2941.02	566.719
2942.98	562.406
2944.94	595.962
2946.9	592.014
2948.86	568.984
2950.82	575.232
2952.77	570.172
2954.73	589.764
2956.69	559.699
2958.65	578.723
2960.61	584.159
2962.57	577.637
2964.53	586.0625
2966.49	560.484
2968.44	553.305
2970.4	533.058
2972.36	567.318
2974.32	545.906
2976.28	533.917
2978.24	544.628
2980.2	589.035
2982.15	537.612
2984.11	552.195
2986.07	524.708
2988.03	563.9
2989.99	541.01
2991.95	534.46
2993.91	537.616
2995.86	531.524
2997.82	544.867
2999.78	536.374
3001.74	522.186
3003.7	512.208
3005.66	564.287
3007.62	551.412
3009.58	511.942
3011.53	503.209
3013.49	526.269
3015.45	525.289
3017.41	525.044
3019.37	558.009
3021.33	507.156
3023.29	502.821
3025.24	536.413
3027.2	500.489
3029.16	529.114
3031.12	512.394
3033.08	520.61
3035.04	522.606
3037	530.331
3038.96	513.228
3040.91	479.581
3042.87	516.343
3044.83	515.094
3046.79	512.347
3048.75	497.491
3050.71	555.309
3052.67	504.043
3054.62	486.702
3056.58	504.464
3058.54	519.701
3060.5	523.898
3062.46	546.626
3064.42	525.541
3066.38	498.047
3068.34	500
3070.29	501.393
3072.25	533.92
3074.21	515.629
3076.17	514.598
3078.13	526.092
3080.09	507.754
3082.05	505.64
3084	525.277
3085.96	508.69
3087.92	539.385
3089.88	471.228
3091.84	481.429
3093.8	496.358
3095.76	508.393
3097.71	485.548
3099.67	483.826
3101.63	518.92
3103.59	502.362
3105.55	496.227
3107.51	489.199
3109.47	516.772
3111.43	489.252
3113.38	516.519
3115.34	520.525
3117.3	509.795
3119.26	496.983
3121.22	482.629
3123.18	473.179
3125.14	509.996
3127.09	475.373
3129.05	512.375
3131.01	492.164
3132.97	481.196
3134.93	448.286
3136.89	478.896
3138.85	522.291
3140.81	510.226
3142.76	495.787
3144.72	499.535
3146.68	475.996
3148.64	483.693
3150.6	508.972
3152.56	457.881
3154.52	498.488
3156.47	445.505
3158.43	485.653
3160.39	483.924
3162.35	481.159
3164.31	493.193
3166.27	484.597
3168.23	521.367
3170.19	484.957
3172.14	489.932
3174.1	500.964
3176.06	473.355
3178.02	519.545
3179.98	489.719
3181.94	494.137
3183.9	481.946
3185.85	493.241
3187.81	495.906
3189.77	483.789
3191.73	478.962
3193.69	476.651
3195.65	495.266
3197.61	501.345
3199.56	512.865
3201.52	504.962
3203.48	467.818
3205.44	462.666
3207.4	505.562
3209.36	507.878
3211.32	505.626
3213.28	438.872
3215.23	487.485
3217.19	489.637
3219.15	475.988
3221.11	495.955
3223.07	471.1
3225.03	455.524
3226.99	476.828
3228.94	463.245
3230.9	472.865
3232.86	493.72
3234.82	493.082
3236.78	465.45
3238.74	496.401
3240.7	475.431
3242.66	492.322
3244.61	471.326
3246.57	471.257
3248.53	461.773
3250.49	479.493
3252.45	460.901
3254.41	457.45
3256.37	452.805
3258.32	448.67
3260.28	460.423
3262.24	463.457
3264.2	476.05
3266.16	437.84
3268.12	451.846
3270.08	473.275
3272.03	438.94
3273.99	462.585
3275.95	466.668
3277.91	476.148
3279.87	475.337
3281.83	469.352
3283.79	455.366
3285.75	452.753
3287.7	438.681
3289.66	441.386
3291.62	459.277
3293.58	442.459
3295.54	470.714
3297.5	463.927
3299.46	441.249
3301.41	431.437
3303.37	452.527
3305.33	457.585
3307.29	421.739
3309.25	451.744
3311.21	423.697
3313.17	405.303
3315.13	435.823
3317.08	451.564
3319.04	451.667
3321	424.603
3322.96	438.957
3324.92	438.885
3326.88	421.052
3328.84	438.213
3330.79	434.964
3332.75	415.509
3334.71	457.584
3336.67	454.497
3338.63	433.554
3340.59	419.08
3342.55	436.744
3344.5	435.175
3346.46	415.343
3348.42	433.069
3350.38	428.518
3352.34	431.029
3354.3	445.215
3356.26	418.262
3358.22	385.175
3360.17	455.49
3362.13	411.665
3364.09	422.434
3366.05	440.765
3368.01	416.792
3369.97	426.75
3371.93	441.645
3373.88	410.306
3375.84	413.938
3377.8	409.305
3379.76	431.389
3381.72	420.77
3383.68	408.449
3385.64	438.512
3387.6	439.23
3389.55	434.662
3391.51	448.15
3393.47	436.246
3395.43	395.149
3397.39	428.732
3399.35	430.689
3400	396.627