File: Example Data/Raman/Kara/12-20-10/Si-Graphene/6bulk/SGbulk.txt
300	2101.16
302.53	2151.18
305.06	2207.16
307.589	2250.06
310.119	2331.33
312.649	2382.84
315.179	2447.75
317.708	2508.02
320.238	2549.88
322.768	2649.86
325.298	2679.48
327.827	2737.92
330.357	2821.57
332.887	2901.71
335.417	2930.06
337.946	2941.31
340.476	2951.37
343.006	2946.83
345.536	2934.33
348.065	2941.9
350.595	2953.58
353.125	2954.46
355.655	2948.41
358.185	2930.8
360.714	2905.59
363.244	2966.2
365.774	2937.52
368.304	2907.17
370.833	2894.53
373.363	2902.21
375.893	2930.36
378.423	2931.95
380.952	2949.14
383.482	2955.5
386.012	2932.08
388.542	2880.55
391.071	2953.24
393.601	2946.78
396.131	2943.55
398.661	2953.97
401.19	2959.35
403.72	2952.99
406.25	2949.73
408.78	2977.71
411.31	2993.77
413.839	2997.04
416.369	3058.27
418.899	3030.81
421.429	3024.74
423.958	3029.23
426.488	3035.61
429.018	3039.7
431.548	3051.98
434.077	3078.73
436.607	3079.77
439.137	3066.46
441.667	3059.68
444.196	3079.17
446.726	3097.22
449.256	3121.98
451.786	3142.56
454.315	3168.01
456.845	3205.51
459.375	3221.28
461.905	3240.88
464.435	3287.24
466.964	3340.3
469.494	3387.97
472.024	3432.05
474.554	3473.85
477.083	3549.18
479.613	3658.38
482.143	3754.18
484.673	3834.89
487.202	4015.84
489.732	4174.79
492.262	4380.68
494.792	4636.53
497.321	4938.14
499.851	5249.61
502.381	5424.42
504.911	5437.68
507.44	5326.8
509.97	5091.5
512.5	4749.19
515.03	4345.21
517.56	4009.64
520.089	3763.21
522.619	3578.52
525.149	3428.86
527.679	3314.86
530.208	3270.15
532.738	3243.16
535.268	3204.34
537.798	3137.77
540.327	3106.1
542.857	3122.04
545.387	3069.04
547.917	3057.76
550.446	3083
552.976	3086.26
555.506	3082.51
558.036	3094.48
560.565	3090.83
563.095	3140.81
565.625	3130
568.155	3122.12
570.685	3119.77
573.214	3121.87
575.744	3201.13
578.274	3145.71
580.804	3136.9
583.333	3146.34
585.863	3156.1
588.393	3163.21
590.923	3179.89
593.452	3171.86
595.982	3178.48
598.512	3190.89
601.042	3195.79
603.571	3190.96
606.101	3203.49
608.631	3168.32
611.161	3173.48
613.69	3214.38
616.22	3240.54
618.75	3218.6
621.28	3193.97
623.81	3228.12
626.339	3231.94
628.869	3238.4
631.399	3230.69
633.929	3210.43
636.458	3234.94
638.988	3233.43
641.518	3252.58
644.048	3265.14
646.577	3265.49
649.107	3266.89
651.637	3290.68
654.167	3298.91
656.696	3292
659.226	3307.69
661.756	3308.6
664.286	3300.22
666.815	3316.26
669.345	3291.36
671.875	3315.94
674.405	3282.68
676.935	3261.44
679.464	3290.97
681.994	3341.54
684.524	3300.22
687.054	3345.76
689.583	3316.44
692.113	3327.23
694.643	3330.2
697.173	3309.22
699.702	3349.88
702.232	3343.63
704.762	3351.66
707.292	3364.44
709.821	3370.1
712.351	3373.49
714.881	3382.58
717.411	3372.94
719.94	3367.3
722.47	3394.92
725	3413.04
727.53	3428.44
730.06	3444.14
732.589	3437.13
735.119	3482.92
737.649	3484.95
740.179	3502.49
742.708	3507.62
745.238	3500.08
747.768	3511.11
750.298	3570
752.827	3534.49
755.357	3593.54
757.887	3579.95
760.417	3546.97
762.946	3564.01
765.476	3615.32
768.006	3597.79
770.536	3582.21
773.065	3564.98
775.595	3583.5
778.125	3613.44
780.655	3623.58
783.185	3623.27
785.714	3628.73
788.244	3620.32
790.774	3631.08
793.304	3649.01
795.833	3658.71
798.363	3658.42
800.893	3665.62
803.423	3658.96
805.952	3680.32
808.482	3676.25
811.012	3685.49
813.542	3708.72
816.071	3716.55
818.601	3708.5
821.131	3740.03
823.661	3752.68
826.19	3755.72
828.72	3765.23
831.25	3780.93
833.78	3794.48
836.31	3810.42
838.839	3806.13
841.369	3831.46
843.899	3842.69
846.429	3849.56
848.958	3862.42
851.488	3868.96
854.018	3837.61
856.548	3885.08
859.077	3881.76
861.607	3865.77
864.137	3904.66
866.667	3932.58
869.196	3910.29
871.726	3975.52
874.256	3979.31
876.786	3943.65
879.315	3963.33
881.845	3990.67
884.375	4008.51
886.905	4021.11
889.435	4029.67
891.964	4046.07
894.494	4045.43
897.024	4061.01
899.554	4064.42
902.083	4089.98
904.613	4125.08
907.143	4125.56
909.673	4159.88
912.202	4140.85
914.732	4130.4
917.262	4152.63
919.792	4189.81
922.321	4196.25
924.851	4171.45
927.381	4194.68
929.911	4219.31
932.44	4180.5
934.97	4217.47
937.5	4227.18
940.03	4249.8
942.56	4269.39
945.089	4217.53
947.619	4225.19
950.149	4193.03
952.679	4215.64
955.208	4238.29
957.738	4261.95
960.268	4249.63
962.798	4192.71
965.327	4162.18
967.857	4224.22
970.387	4233.96
972.917	4198.49
975.446	4167.23
977.976	4168.13
980.506	4172.46
983.036	4158.35
985.565	4172.86
988.095	4223.86
990.625	4208.625
993.155	4228.53
995.685	4223.84
998.214	4195.01
1000.74	4200.61
1003.27	4250.4
1005.8	4236.11
1008.33	4216.51
1010.86	4224.75
1013.39	4253.49
1015.92	4277.36
1018.45	4309.01
1020.98	4337.97
1023.51	4331.65
1026.04	4290.98
1028.57	4333.26
1031.1	4380.74
1033.63	4357.76
1036.16	4379.99
1038.69	4402.28
1041.22	4390.49
1043.75	4377.84
1046.28	4412.04
1048.81	4444.51
1051.34	4455.25
1053.87	4440.6
1056.4	4422.8
1058.93	4443.6
1061.46	4450.43
1063.99	4448.46
1066.52	4497.66
1069.05	4462.24
1071.58	4469.3
1074.11	4443.74
1076.64	4421.01
1079.17	4444.9
1081.7	4484.11
1084.23	4502.27
1086.76	4489.72
1089.29	4463.84
1091.82	4516.55
1094.35	4492.85
1096.875	4496.12
1099.4	4542.18
1101.93	4543.78
1104.46	4535.03
1106.99	4566.45
1109.52	4594.68
1112.05	4546.33
1114.58	4573.1
1117.11	4651.12
1119.64	4666.98
1122.17	4663.96
1124.7	4658.59
1127.23	4680.09
1129.76	4721.13
1132.29	4731.52
1134.82	4720.51
1137.35	4744.51
1139.88	4697.03
1142.41	4765.2
1144.94	4806.59
1147.47	4824.84
1150	4839.79
1152.53	4853.75
1155.06	4855.6
1157.59	4811.88
1160.12	4859.64
1162.65	4892.26
1165.18	4852.84
1167.71	4892.72
1170.24	4938.89
1172.77	4929.2
1175.3	4919.25
1177.83	4952.22
1180.36	4917.93
1182.89	4982.85
1185.42	4951.37
1187.95	4961.91
1190.48	4991.98
1193.01	4994.69
1195.54	5010.87
1198.07	5055.42
1200.6	5081.03
1203.125	5062.68
1205.65	5069.82
1208.18	5079.14
1210.71	5047.89
1213.24	5110.75
1215.77	5147.31
1218.3	5156.98
1220.83	5149.18
1223.36	5163.75
1225.89	5215.37
1228.42	5221.91
1230.95	5273.9
1233.48	5322.45
1236.01	5324.67
1238.54	5329.97
1241.07	5329.21
1243.6	5309.05
1246.13	5327.15
1248.66	5390.61
1251.19	5416.48
1253.72	5383.71
1256.25	5406.74
1258.78	5457.23
1261.31	5457.4
1263.84	5439.52
1266.37	5429.72
1268.9	5450.27
1271.43	5505.81
1273.96	5534.49
1276.49	5499.65
1279.02	5494.15
1281.55	5550.99
1284.08	5500.86
1286.61	5515.73
1289.14	5563.29
1291.67	5554.86
1294.2	5569.06
1296.73	5612.71
1299.26	5594.77
1301.79	5546.25
1304.32	5597.63
1306.85	5645
1309.375	5672.9
1311.9	5680.89
1314.43	5658.47
1316.96	5717.12
1319.49	5733.74
1322.02	5783.28
1324.55	5819.26
1327.08	5820.97
1329.61	5839.01
1332.14	5880.65
1334.67	5928.96
1337.2	5916.8
1339.73	5905.5
1342.26	5999.79
1344.79	5948.8
1347.32	5990.74
1349.85	6004.71
1352.38	6062.02
1354.91	6126.07
1357.44	6126.65
1359.97	6150.46
1362.5	6182.34
1365.03	6177.24
1367.56	6220
1370.09	6191
1372.62	6223.4
1375.15	6209.78
1377.68	6213.17
1380.21	6248.03
1382.74	6273.97
1385.27	6305.53
1387.8	6331.19
1390.33	6288.18
1392.86	6297.36
1395.39	6296.3
1397.92	6305.84
1400.45	6381.73
1402.98	6370.19
1405.51	6366.81
1408.04	6360.47
1410.57	6415.11
1413.1	6427.8
1415.625	6401.07
1418.15	6429.16
1420.68	6440.79
1423.21	6421.41
1425.74	6518.09
1428.27	6480.93
1430.8	6531.53
1433.33	6657.98
1435.86	6677.82
1438.39	6687.64
1440.92	6700.19
1443.45	6756.06
1445.98	6794.66
1448.51	6787.86
1451.04	6800.5
1453.57	6838.01
1456.1	6912.67
1458.63	6871.5
1461.16	6916.41
1463.69	6957.7
1466.22	6962.97
1468.75	6988.68
1471.28	6948.82
1473.81	6976.28
1476.34	7004.56
1478.87	7024.83
1481.4	7044.45
1483.93	7024.22
1486.46	7008.54
1488.99	7022.46
1491.52	7066.17
1494.05	7085.7
1496.58	7128.41
1499.11	7085.52
1501.64	7142.7
1504.17	7096.77
1506.7	7142.5
1509.23	7168.48
1511.76	7141.16
1514.29	7156.14
1516.82	7181.78
1519.35	7143.94
1521.875	7122.88
1524.4	7152.67
1526.93	7192.51
1529.46	7141.68
1531.99	7181
1534.52	7246.16
1537.05	7241.83
1539.58	7238.1
1542.11	7279.8
1544.64	7290.65
1547.17	7303.23
1549.7	7271.25
1552.23	7273.79
1554.76	7313.12
1557.29	7306.21
1559.82	7345.16
1562.35	7335.75
1564.88	7376.38
1567.41	7431.66
1569.94	7462
1572.47	7513.57
1575	7461.88
1577.53	7512.67
1580.06	7524.18
1582.59	7496.38
1585.12	7539.77
1587.65	7563.94
1590.18	7568.12
1592.71	7611.46
1595.24	7641.57
1597.77	7638.12
1600.3	7677.01
1602.83	7713.52
1605.36	7736.76
1607.89	7753.37
1610.42	7726.73
1612.95	7733.51
1615.48	7776.16
1618.01	7748.74
1620.54	7741.07
1623.07	7790.71
1625.6	7785.09
1628.125	7809.11
1630.65	7853.05
1633.18	7866.59
1635.71	7871.67
1638.24	7861.19
1640.77	7837.05
1643.3	7879.7
1645.83	7929.45
1648.36	7880.23
1650.89	7907.39
1653.42	7937.97
1655.95	7966.81
1658.48	7928.35
1661.01	7928.77
1663.54	8001.53
1666.07	8034.81
1668.6	8013.42
1671.13	8041.67
1673.66	8006.23
1676.19	8021.69
1678.72	8071.94
1681.25	8058.13
1683.78	8045.71
1686.31	8105.39
1688.84	8149.2
1691.37	8146.28
1693.9	8190.36
1696.43	8192.4
1698.96	8210.77
1701.49	8244.59
1704.02	8192.22
1706.55	8219.29
1709.08	8254.53
1711.61	8291.07
1714.14	8299.43
1716.67	8349.09
1719.2	8411.41
1721.73	8453.85
1724.26	8400.74
1726.79	8405.16
1729.32	8456.72
1731.85	8461.4
1734.375	8468.16
1736.9	8495.15
1739.43	8495.06
1741.96	8508.13
1744.49	8538.69
1747.02	8551.75
1749.55	8630.66
1752.08	8619.98
1754.61	8579.14
1757.14	8647.33
1759.67	8604.6
1762.2	8566.17
1764.73	8709.95
1767.26	8708.73
1769.79	8743.76
1772.32	8731.86
1774.85	8772.53
1777.38	8788.81
1779.91	8783.56
1782.44	8833.57
1784.97	8869.44
1787.5	8875.19
1790.03	8891.49
1792.56	8897.95
1795.09	8908.44
1797.62	8961.46
1800.15	9037.74
1802.68	9068.07
1805.21	9050.84
1807.74	9040.5
1810.27	9053.96
1812.8	9114.13
1815.33	9104.64
1817.86	9092.03
1820.39	9141.85
1822.92	9167.65
1825.45	9166
1827.98	9206.82
1830.51	9279.62
1833.04	9280.57
1835.57	9320.44
1838.1	9336.9
1840.625	9347.12
1843.15	9428.1
1845.68	9434.2
1848.21	9361.79
1850.74	9433.5
1853.27	9474.09
1855.8	9472.58
1858.33	9513.93
1860.86	9568.12
1863.39	9567.25
1865.92	9597.58
1868.45	9616.22
1870.98	9606.34
1873.51	9651.38
1876.04	9680.37
1878.57	9709.41
1881.1	9708.53
1883.63	9684.09
1886.16	9742.14
1888.69	9767.875
1891.22	9775.71
1893.75	9726.25
1896.28	9686.71
1898.81	9811.16
1901.34	9851.2
1903.87	9886.93
1906.4	9816.1
1908.93	9808.44
1911.46	9859.33
1913.99	9912.46
1916.52	9950.44
1919.05	9942.26
1921.58	9951.33
1924.11	9931.3
1926.64	9986.12
1929.17	9990.87
1931.7	10040.6
1934.23	10033.5
1936.76	10062.1
1939.29	10092.5
1941.82	10093.9
1944.35	10059.5
1946.875	10110.5
1949.4	10164.4
1951.93	10191.4
1954.46	10194.9
1956.99	10225.8
1959.52	10213.1
1962.05	10279.5
1964.58	10337.4
1967.11	10357.8
1969.64	10322.9
1972.17	10325.3
1974.7	10414.4
1977.23	10421.6
1979.76	10456.2
1982.29	10444.1
1984.82	10530.5
1987.35	10573
1989.88	10606.8
1992.41	10661.9
1994.94	10698.6
1997.47	10729.1
2000	10748.4
2002.53	10762.2
2005.06	10815.8
2007.59	10864.7
2010.12	10878.5
2012.65	10894
2015.18	10919.4
2017.71	10980.2
2020.24	10975.4
2022.77	10964.4
2025.3	11063.2
2027.83	11160.6
2030.36	11202.5
2032.89	11168
2035.42	11164.5
2037.95	11196.2
2040.48	11208.75
2043.01	11239
2045.54	11289.8
2048.07	11307.7
2050.6	11323.8
2053.125	11370.4
2055.65	11377.1
2058.18	11354.6
2060.71	11345.1
2063.24	11390.1
2065.77	11421.7
2068.3	11446.3
2070.83	11474.8
2073.36	11493
2075.89	11476.8
2078.42	11509.2
2080.95	11617.8
2083.48	11659
2086.01	11671.3
2088.54	11675.2
2091.07	11698.7
2093.6	11765.6
2096.13	11808
2098.66	11762
2101.19	11807.3
2103.72	11824.2
2106.25	11840.6
2108.78	11867.3
2111.31	11875.5
2113.84	11875.5
2116.37	11906.7
2118.9	11950.2
2121.43	12003.2
2123.96	12054.8
2126.49	12063.4
2129.02	12141
2131.55	12194.5
2134.08	12209.2
2136.61	12241.7
2139.14	12300.3
2141.67	12403.1
2144.2	12440.3
2146.73	12458.7
2149.26	12433.3
2151.79	12438.3
2154.32	12507.1
2156.85	12543.6
2159.375	12585.9
2161.9	12608.9
2164.43	12665.6
2166.96	12711.2
2169.49	12744.2
2172.02	12806.4
2174.55	12820.6
2177.08	12856
2179.61	12895.1
2182.14	12919
2184.67	12961.3
2187.2	12962.3
2189.73	13019
2192.26	13040.1
2194.79	13065.5
2197.32	13116.3
2199.85	13166.2
2202.38	13196.3
2204.91	13222.7
2207.44	13222
2209.97	13226.9
2212.5	13288.2
2215.03	13295
2217.56	13355.7
2220.09	13386
2222.62	13424.7
2225.15	13414.7
2227.68	13477.5
2230.21	13478.5
2232.74	13544.4
2235.27	13580.6
2237.8	13629.7
2240.33	13681
2242.86	13717.2
2245.39	13756.3
2247.92	13758.5
2250.45	13873.7
2252.98	13877.4
2255.51	14002.4
2258.04	14017.9
2260.57	14061.1
2263.1	14094.9
2265.625	14140.8
2268.15	14169.4
2270.68	14247.6
2273.21	14329.7
2275.74	14331.3
2278.27	14365
2280.8	14431.7
2283.33	14465.6
2285.86	14520.3
2288.39	14590.3
2290.92	14619.9
2293.45	14639.8
2295.98	14734.1
2298.51	14822
2301.04	14832.3
2303.57	14823
2306.1	14894.4
2308.63	14894.1
2311.16	14937.9
2313.69	15037.7
2316.22	15035.4
2318.75	15053.9
2321.28	15140.3
2323.81	15159.6
2326.34	15200.1
2328.87	15195
2331.4	15253.9
2333.93	15262.3
2336.46	15252.3
2338.99	15284.3
2341.52	15298.5
2344.05	15339.9
2346.58	15362
2349.11	15404.9
2351.64	15474.5
2354.17	15481.8
2356.7	15422.4
2359.23	15562.1
2361.76	15644.7
2364.29	15587.5
2366.82	15606.9
2369.35	15725.8
2371.875	15766.1
2374.4	15835.7
2376.93	15832.9
2379.46	15837
2381.99	15843.1
2384.52	15911.7
2387.05	16040.4
2389.58	16046.8
2392.11	16116.1
2394.64	16143.7
2397.17	16162.5
2399.7	16266.9
2402.23	16294.9
2404.76	16361
2407.29	16361
2409.82	16461.7
2412.35	16494
2414.88	16526.9
2417.41	16565.4
2419.94	16648.4
2422.47	16722.6
2425	16723
2427.53	16768.1
2430.06	16852.7
2432.59	16901.1
2435.12	16969.2
2437.65	16965.625
2440.18	17019.1
2442.71	17058
2445.24	17131.4
2447.77	17176.4
2450.3	17181.5
2452.83	17217.4
2455.36	17246.3
2457.89	17254.1
2460.42	17252.2
2462.95	17356.3
2465.48	17388.8
2468.01	17379
2470.54	17409.8
2473.07	17496.4
2475.6	17483.3
2478.125	17538.1
2480.65	17590.8
2483.18	17642.6
2485.71	17636.6
2488.24	17686.2
2490.77	17705.7
2493.3	17710
2495.83	17779.9
2498.36	17850.7
2500.89	17987.2
2503.42	17993.7
2505.95	18019.7
2508.48	18073.5
2511.01	18077
2513.54	18120.5
2516.07	18198.7
2518.6	18242.1
2521.13	18373.1
2523.66	18391.3
2526.19	18417.3
2528.72	18496.8
2531.25	18542.1
2533.78	18627
2536.31	18679.2
2538.84	18718.6
2541.37	18793.8
2543.9	18803
2546.43	18937.8
2548.96	18974.6
2551.49	18998
2554.02	19022.4
2556.55	19049.7
2559.08	19163.8
2561.61	19238.1
2564.14	19246.8
2566.67	19358.3
2569.2	19354.9
2571.73	19408.1
2574.26	19531.3
2576.79	19517.9
2579.32	19521
2581.85	19530.6
2584.375	19618.8
2586.9	19666.9
2589.43	19692.2
2591.96	19768.4
2594.49	19715.8
2597.02	19858.4
2599.55	19838.9
2602.08	19905.8
2604.61	19900.2
2607.14	19950.5
2609.67	20006.7
2612.2	20014.5
2614.73	20064.9
2617.26	20158.6
2619.79	20183.2
2622.32	20281.8
2624.85	20269
2627.38	20304.1
2629.91	20352.1
2632.44	20367.9
2634.97	20406.8
2637.5	20551.6
2640.03	20473.7
2642.56	20567.5
2645.09	20682.3
2647.62	20794
2650.15	20871.5
2652.68	20921.2
2655.21	20939.8
2657.74	20964
2660.27	21008.6
2662.8	21099.8
2665.33	21075.4
2667.86	21226.8
2670.39	21299.8
2672.92	21396.3
2675.45	21476.7
2677.98	21469.2
2680.51	21576.7
2683.04	21659.4
2685.57	21750.1
2688.1	21819
2690.625	21831.6
2693.15	21863.7
2695.68	21925.6
2698.21	21980.1
2700.74	22033
2703.27	22194
2705.8	22253.9
2708.33	22287.3
2710.86	22331.5
2713.39	22445.5
2715.92	22463.5
2718.45	22489.8
2720.98	22519.4
2723.51	22527.6
2726.04	22669.1
2728.57	22705.5
2731.1	22826.6
2733.63	22798.4
2736.16	22879.4
2738.69	22887.4
2741.22	22962.4
2743.75	23066
2746.28	23132.3
2748.81	23145.5
2751.34	23154.5
2753.87	23206.1
2756.4	23273.5
2758.93	23413.1
2761.46	23412.3
2763.99	23613.6
2766.52	23591.6
2769.05	23595.1
2771.58	23648.9
2774.11	23682.6
2776.64	23752.8
2779.17	23849.6
2781.7	23907.7
2784.23	23978.4
2786.76	23992.9
2789.29	24016.8
2791.82	24204
2794.35	24160.4
2796.875	24269.2
2799.4	24409
2801.93	24383.5
2804.46	24413.3
2806.99	24477.4
2809.52	24502.5
2812.05	24527.3
2814.58	24654.7
2817.11	24757.4
2819.64	24797.6
2822.17	24836.2
2824.7	24960.2
2827.23	24970.4
2829.76	25064.4
2832.29	25136.9
2834.82	25213.3
2837.35	25289.9
2839.88	25321.125
2842.41	25402.2
2844.94	25392.9
2847.47	25531.7
2850	25678.9
2852.53	25804.9
2855.06	25782.9
2857.59	25847.8
2860.12	25980.2
2862.65	26123.4
2865.18	26136
2867.71	26155.4
2870.24	26266.9
2872.77	26431.5
2875.3	26472.9
2877.83	26502.9
2880.36	26657.8
2882.89	26735.3
2885.42	26881.6
2887.95	27002.9
2890.48	27060.9
2893.01	27131.8
2895.54	27107.6
2898.07	27223.4
2900.6	27472.8
2903.125	27516.3
2905.65	27522.2
2908.18	27718.7
2910.71	27858.9
2913.24	27851.1
2915.77	27896
2918.3	28032.7
2920.83	28008.4
2923.36	28163
2925.89	28293.9
2928.42	28211.7
2930.95	28461.4
2933.48	28515.6
2936.01	28569.7
2938.54	28668.3
2941.07	28739
2943.6	28896
2946.13	28879.2
2948.66	28744.7
2951.19	28899.4
2953.72	28933.4
2956.25	29050.5
2958.78	29126.1
2961.31	29203.8
2963.84	29128.5
2966.37	29285.4
2968.9	29257.3
2971.43	29387.7
2973.96	29460.4
2976.49	29400.2
2979.02	29506.7
2981.55	29560.6
2984.08	29609.1
2986.61	29785.7
2989.14	29857.1
2991.67	29849.2
2994.2	29845.8
2996.73	29975.7
2999.26	30022.6
3001.79	30100.1
3004.32	30206.8
3006.85	30182.4
3009.375	30415.8
3011.9	30377
3014.43	30507.9
3016.96	30628.4
3019.49	30728
3022.02	30709.6
3024.55	30828.2
3027.08	30916.5
3029.61	31050.8
3032.14	31198.9
3034.67	31283.3
3037.2	31418.3
3039.73	31501.1
3042.26	31696.7
3044.79	31750.8
3047.32	31841.7
3049.85	32016.5
3052.38	31994.2
3054.91	32403.7
3057.44	32313.5
3059.97	32526.5
3062.5	32666.1
3065.03	32660.4
3067.56	32710.6
3070.09	32821.6
3072.62	32778.4
3075.15	33027.3
3077.68	33175.1
3080.21	33317.1
3082.74	33383.6
3085.27	33429.7
3087.8	33470.9
3090.33	33510.8
3092.86	33636
3095.39	33763.2
3097.92	33752.9
3100.45	33899.6
3102.98	34109.3
3105.51	34143.1
3108.04	34069.7
3110.57	34314.2
3113.1	34210.9
3115.625	34324.1
3118.15	34385.7
3120.68	34506.875
3123.21	34485.9
3125.74	34760
3128.27	34610.6
3130.8	34749.2
3133.33	34807.6
3135.86	34979.7
3138.39	35147.4
3140.92	35188.7
3143.45	35057.2
3145.98	35259
3148.51	35440
3151.04	35515.9
3153.57	35522
3156.1	35447.2
3158.63	35713.8
3161.16	35736.9
3163.69	35936.6
3166.22	35987.4
3168.75	36109.125
3171.28	36319.6
3173.81	36344.8
3176.34	36523.1
3178.87	36548.7
3181.4	36788.4
3183.93	36798.8
3186.46	36831.8
3188.99	36945.4
3191.52	37227.9
3194.05	37366.2
3196.58	37483
3199.11	37512
3201.64	37582.6
3204.17	37803.8
3206.7	37915.3
3209.23	38063.4
3211.76	38138.3
3214.29	38406.6
3216.82	38481
3219.35	38514.6
3221.875	38654.5
3224.4	38742.3
3226.93	38902.6
3229.46	39000
3231.99	39204
3234.52	39285.4
3237.05	39283.7
3239.58	39398.6
3242.11	39651.7
3244.64	39822.1
3247.17	39903.1
3249.7	39866.4
3252.23	40048.125
3254.76	40181.9
3257.29	40293.6
3259.82	40315.9
3262.35	40385.6
3264.88	40469.4
3267.41	40487.9
3269.94	40767.5
3272.47	40902.6
3275	41058.9
3277.53	41195.75
3280.06	41109.7
3282.59	41175.9
3285.12	41265.7
3287.65	41383
3290.18	41605.4
3292.71	41654.7
3295.24	41777.9
3297.77	41876.7
3300.3	41879.4
3302.83	41976.7
3305.36	42029.375
3307.89	42086.7
3310.42	42312.1
3312.95	42466.75
3315.48	42533
3318.01	42548.2
3320.54	42610.1
3323.07	42734
3325.6	42854.6
3328.125	42905.9
3330.65	42968.1
3333.18	43072.8
3335.71	43101.3
3338.24	43365.6
3340.77	43427
3343.3	43548.3
3345.83	43587.2
3348.36	43761.8
3350.89	43874.7
3353.42	44043.4
3355.95	44138
3358.48	44129.4
3361.01	44200.2
3363.54	44257.5
3366.07	44289.7
3368.6	44518.7
3371.13	44641.8
3373.66	44724
3376.19	44790.1
3378.72	44997.3
3381.25	45020.3
3383.78	44943.9
3386.31	45226.9
3388.84	45414.3
3391.37	45522.3
3393.9	45692
3396.43	45695.8
3398.96	45816.1
3401.49	45996.5
3404.02	46203.25
3406.55	46402.5
3409.08	46564.375
3411.61	46530.3
3414.14	46670.7
3416.67	46804.4
3419.2	47025.6
3421.73	47059
3424.26	47042.4
3426.79	47218.5
3429.32	47372
3431.85	47390.7
3434.375	47725.6
3436.9	47584.2
3439.43	47923.7
3441.96	48157.5
3444.49	48290.9
3447.02	48369
3449.55	48567.2
3452.08	48732.7
3454.61	48717.1
3457.14	48914.9
3459.67	48956.4
3462.2	49076.5
3464.73	49160.7
3467.26	49225.6
3469.79	49404.1
3472.32	49506.5
3474.85	49516.9
3477.38	49572.5
3479.91	49728.8
3482.44	49832.5
3484.97	50051.8
3487.5	50099.25
3490.03	50368.3
3492.56	50407.3
3495.09	50375.9
3497.62	50582.5
3500.15	50706.1
3502.68	50922.2
3505.21	50916.9
3507.74	51196.7
3510.27	51119.4
3512.8	51243.9
3515.33	51466.8
3517.86	51463.8
3520.39	51539.7
3522.92	51642.4
3525.45	51995
3527.98	52076
3530.51	52310.1
3533.04	52407.9
3535.57	52450.4
3538.1	52520.7
3540.625	52691.2
3543.15	52811.4
3545.68	53083.2
3548.21	53105.1
3550.74	53350.4
3553.27	53377.6
3555.8	53608.8
3558.33	53690.9
3560.86	53878.2
3563.39	54141.6
3565.92	54147.1
3568.45	54255
3570.98	54378.3
3573.51	54482.9
3576.04	54641.7
3578.57	55101.7
3581.1	55106.9
3583.63	55225.3
3586.16	55340.7
3588.69	55410.8
3591.22	55506.375
3593.75	55757.2
3596.28	55875.7
3598.81	56236.2
3601.34	56127.7
3603.87	56189.4
3606.4	56412
3608.93	56578.3
3611.46	56830.7
3613.99	56915.2
3616.52	56886.8
3619.05	56998.8
3621.58	57055.2
3624.11	57275.5
3626.64	57339.8
3629.17	57504.6
3631.7	57566.9
3634.23	57545.4
3636.76	57832.7
3639.29	57789.8
3641.82	57848.4
3644.35	58047.9
3646.875	58062.6
3649.4	58217.3
3651.93	58226.1
3654.46	58538.3
3656.99	58400.4
3659.52	58627.9
3662.05	58805.8
3664.58	58907.7
3667.11	58929.9
3669.64	59047.75
3672.17	58908.8
3674.7	59049.7
3677.23	58992.7
3679.76	59268.7
3682.29	59298
3684.82	59305.2
3687.35	59411.5
3689.88	59433.7
3692.41	59493.7
3694.94	59492.1
3697.47	59622.5
3700	59665