File: Example Data/Raman/Kara/12-20-10/Si-Graphene/6bulk/SGbulk_7.txt
300	166.856
302.53	184.305
305.06	205.558
307.589	220.993
310.119	225.517
312.649	218.517
315.179	207.982
317.708	202.615
320.238	206.49
322.768	204.225
325.298	209.684
327.827	219.01
330.357	219.36
332.887	210.131
335.417	219.041
337.946	199.959
340.476	203.692
343.006	203.82
345.536	197.303
348.065	208.747
350.595	198.849
353.125	195.384
355.655	191.23
358.185	187.307
360.714	186.813
363.244	178.851
365.774	180.763
368.304	183.14
370.833	179.427
373.363	169.25
375.893	166.158
378.423	164.3
380.952	164.269
383.482	159.466
386.012	152.49
388.542	155.339
391.071	164.303
393.601	155.161
396.131	154.842
398.661	158.728
401.19	155.262
403.72	163.264
406.25	167.706
408.78	153.819
411.31	151.628
413.839	167.193
416.369	163.771
418.899	161.318
421.429	159.639
423.958	161.502
426.488	164.513
429.018	164.68
431.548	163.698
434.077	168.766
436.607	172.495
439.137	173.171
441.667	171.564
444.196	170.617
446.726	171.437
449.256	164.892
451.786	163.695
454.315	164.825
456.845	161.744
459.375	162.73
461.905	158.677
464.435	168.994
466.964	180.38
469.494	186.334
472.024	192.354
474.554	216.876
477.083	220.74
479.613	236.967
482.143	253.802
484.673	264.963
487.202	300.89
489.732	319.178
492.262	342.065
494.792	378.717
497.321	427.606
499.851	482.538
502.381	544.111
504.911	630.285
507.44	753.369
509.97	964.524
512.5	1329.81
515.03	1958.22
517.56	3305.6
520.089	5469.27
522.619	6744.93
525.149	6238.66
527.679	4253.35
530.208	2386.7
532.738	1401.69
535.268	880.533
537.798	597.168
540.327	435.855
542.857	333.801
545.387	272.908
547.917	224.463
550.446	189.545
552.976	166.563
555.506	146.898
558.036	127.874
560.565	126.213
563.095	106.23
565.625	93.2035
568.155	79.9109
570.685	73.4886
573.214	76.6469
575.744	62.6596
578.274	62.073
580.804	60.6999
583.333	60
585.863	58.7334
588.393	55.609
590.923	53.4407
593.452	51.1094
595.982	49.6866
598.512	52.4149
601.042	57.9253
603.571	61.5828
606.101	57.2389
608.631	61.8377
611.161	67.5809
613.69	72.9986
616.22	76.9401
618.75	78.4555
621.28	76.8777
623.81	84.0761
626.339	78.1568
628.869	74.175
631.399	73.887
633.929	70.6944
636.458	55.8398
638.988	61.541
641.518	59.5507
644.048	58.1795
646.577	59.171
649.107	60.9541
651.637	61.1048
654.167	64.8024
656.696	62.201
659.226	61.7901
661.756	61.6833
664.286	60.5113
666.815	58.7934
669.345	55.7651
671.875	56.5547
674.405	58.9683
676.935	60.008
679.464	58.382
681.994	55.2679
684.524	54.5568
687.054	49.8335
689.583	44.9726
692.113	40.9401
694.643	40.375
697.173	42.1482
699.702	40.3324
702.232	37.1241
704.762	33.1533
707.292	34.4202
709.821	33.4783
712.351	31.3463
714.881	33.4299
717.411	32.4145
719.94	28.3972
722.47	31.0028
725	32.0725
727.53	31.6749
730.06	31.1339
732.589	28.9107
735.119	30.2673
737.649	37.2872
740.179	32.4045
742.708	29.2944
745.238	33.1024
747.768	38.2961
750.298	38.7809
752.827	37.0817
755.357	37.3672
757.887	39.0535
760.417	38.972
762.946	37.6677
765.476	39.9513
768.006	47.2698
770.536	43.373
773.065	44.7917
775.595	45.6903
778.125	44.958
780.655	44.0233
783.185	43.8989
785.714	49.697
788.244	46.9283
790.774	44.9879
793.304	43.2331
795.833	47.1659
798.363	57.5102
800.893	58.703
803.423	56.9943
805.952	55.4365
808.482	61.495
811.012	61.3873
813.542	59.3184
816.071	65.2515
818.601	66.1875
821.131	61.0478
823.661	65.4892
826.19	65.7471
828.72	62.858
831.25	60.4082
833.78	59.2904
836.31	55.8724
838.839	52.7845
841.369	56.008
843.899	60.1302
846.429	57.6836
848.958	55.1622
851.488	60.8629
854.018	63.8902
856.548	50.99
859.077	53.7422
861.607	54.2471
864.137	58.5837
866.667	60.2487
869.196	54.1262
871.726	55.1166
874.256	61.3207
876.786	57.823
879.315	53.1175
881.845	55.4641
884.375	61.3899
886.905	63.4703
889.435	60.5437
891.964	64.8606
894.494	61.4897
897.024	60.1003
899.554	61.8298
902.083	62.3723
904.613	61.7032
907.143	65.3318
909.673	75.525
912.202	72.7559
914.732	76.3229
917.262	86.6617
919.792	102.233
922.321	117.394
924.851	131.962
927.381	156.491
929.911	183.197
932.44	196.269
934.97	207.354
937.5	224.922
940.03	238.527
942.56	242.377
945.089	241.525
947.619	235.308
950.149	243.477
952.679	249.184
955.208	242.642
957.738	242.601
960.268	244.737
962.798	237.103
965.327	223.685
967.857	218.631
970.387	228.995
972.917	225.286
975.446	218.887
977.976	213.012
980.506	198.883
983.036	179.182
985.565	176.951
988.095	152.149
990.625	136.319
993.155	122.64
995.685	102.818
998.214	90.9812
1000.74	86.2353
1003.27	78.8402
1005.8	74.3005
1008.33	63.9718
1010.86	62.7559
1013.39	57.5575
1015.92	54.5261
1018.45	53.6108
1020.98	47.5988
1023.51	34.9446
1026.04	28.8066
1028.57	30.5612
1031.1	25.2758
1033.63	19.5381
1036.16	16.3247
1038.69	15.2028
1041.22	14.7025
1043.75	14.9029
1046.28	16.0115
1048.81	9.38692
1051.34	8.15468
1053.87	10.7698
1056.4	6.40082
1058.93	6.57046
1061.46	6.15666
1063.99	2.44341
1066.52	4.31256
1069.05	5.96642
1071.58	8.61118
1074.11	2.73638
1076.64	1.82125
1079.17	3.98768
1081.7	2.03415
1084.23	0.164901
1086.76	3.00313
1089.29	1.3657
1091.82	8.58986
1094.35	3.99099
1096.875	3.09158
1099.4	-1.32668
1101.93	-0.465126
1104.46	2.2
1106.99	1.57679
1109.52	0.555585
1112.05	1.93302
1114.58	1.22389
1117.11	1.2
1119.64	-0.138865
1122.17	-0.34759
1124.7	-0.303698
1127.23	-0.724963
1129.76	-0.376346
1132.29	1.16229
1134.82	-0.913333
1137.35	-2.3353
1139.88	-6.6457
1142.41	-5.0368
1144.94	-6.46078
1147.47	-4.48642
1150	-1.80775
1152.53	-1.68434
1155.06	-1.3241
1157.59	-7.11187
1160.12	-8.35931
1162.65	-4.08591
1165.18	-3.4
1167.71	-5.46935
1170.24	-3.25851
1172.77	-1.17623
1175.3	-3.43124
1177.83	-5.26077
1180.36	-3.04409
1182.89	-6.58357
1185.42	-3.18567
1187.95	-5.17735
1190.48	-5.11298
1193.01	-5.4979
1195.54	-4.18927
1198.07	-2.27439
1200.6	-2.34647
1203.125	-2.72332
1205.65	-5.53027
1208.18	-7.5026
1210.71	-5.38354
1213.24	-3.65092
1215.77	-4.49353
1218.3	-4.43849
1220.83	-2.03438
1223.36	-0.886174
1225.89	-3.57055
1228.42	-5.10014
1230.95	-3.2
1233.48	-3.2
1236.01	2.63462
1238.54	-0.891967
1241.07	-2.8532
1243.6	-0.760921
1246.13	0.158939
1248.66	-1.2
1251.19	-1.10573
1253.72	-0.827365
1256.25	-1.16816
1258.78	-5.1355
1261.31	-5.73695
1263.84	2.09364
1266.37	1.56422
1268.9	-2.29094
1271.43	0.444478
1273.96	3.65955
1276.49	0.42494
1279.02	1.27806
1281.55	-3.2489
1284.08	-1.25812
1286.61	-1.37563
1289.14	3.30088
1291.67	2.25848
1294.2	1.08112
1296.73	1.90049
1299.26	2.23106
1301.79	1.52523
1304.32	1.84398
1306.85	2.25319
1309.375	4.1228
1311.9	7.39069
1314.43	4.54237
1316.96	6.27262
1319.49	7
1322.02	7.45991
1324.55	9.54224
1327.08	11.5572
1329.61	11.6791
1332.14	11.6969
1334.67	12.5556
1337.2	10.8261
1339.73	11.5546
1342.26	13.9917
1344.79	12.1039
1347.32	13.972
1349.85	17.0834
1352.38	18.4
1354.91	17.7385
1357.44	17.5822
1359.97	20.5367
1362.5	24.6786
1365.03	23.779
1367.56	20.6728
1370.09	17.3852
1372.62	17.3229
1375.15	12.2049
1377.68	10.2
1380.21	12.9586
1382.74	14.6397
1385.27	14.5356
1387.8	14.2651
1390.33	12.2013
1392.86	14.1107
1395.39	12.0656
1397.92	9.49694
1400.45	10.2824
1402.98	11.6804
1405.51	10.4195
1408.04	9.8
1410.57	8.13531
1413.1	5.09409
1415.625	3.51427
1418.15	5.31006
1420.68	7.55133
1423.21	5.18764
1425.74	4.28781
1428.27	7.96763
1430.8	0.880678
1433.33	5.87021
1435.86	5.64057
1438.39	5.47076
1440.92	5.24072
1443.45	2.395
1445.98	2.48337
1448.51	3.91566
1451.04	0.537378
1453.57	-0.0902165
1456.1	1.99031
1458.63	2.9612
1461.16	-0.735108
1463.69	0.108123
1466.22	4.03318
1468.75	0.553543
1471.28	-2.71365
1473.81	-0.190372
1476.34	0.28831
1478.87	-2.0301
1481.4	-1.99281
1483.93	-0.588453
1486.46	-2.30318
1488.99	-5.62508
1491.52	-1.66517
1494.05	-0.347377
1496.58	1.69522
1499.11	-2.42653
1501.64	-3.80949
1504.17	-5.3289
1506.7	-4.46465
1509.23	-5.11363
1511.76	-5.89462
1514.29	-5.25124
1516.82	-2.19633
1519.35	-1.58189
1521.875	-6.95354
1524.4	-1.94898
1526.93	0.954965
1529.46	0.457459
1531.99	-2.52378
1534.52	-0.418986
1537.05	-4.91287
1539.58	-1.46178
1542.11	-3.31543
1544.64	-4.21496
1547.17	-0.546047
1549.7	-0.243344
1552.23	-3.02204
1554.76	-3.64838
1557.29	-3.08593
1559.82	-0.804065
1562.35	4.07402
1564.88	4.83706
1567.41	7.59733
1569.94	1.04255
1572.47	-1.41959
1575	4.12576
1577.53	4.67789
1580.06	4.74859
1582.59	6.1614
1585.12	6.05701
1587.65	2.25364
1590.18	3.37458
1592.71	4.9335
1595.24	3.05075
1597.77	6.43856
1600.3	8.62324
1602.83	5.2645
1605.36	7.75564
1607.89	6.2769
1610.42	7.30255
1612.95	12.5726
1615.48	3.42577
1618.01	5.0997
1620.54	8.58562
1623.07	7.36059
1625.6	4.18278
1628.125	2.26221
1630.65	3.25205
1633.18	0.885463
1635.71	-1.70808
1638.24	0.80561
1640.77	-0.418984
1643.3	-5.96695
1645.83	-2.61953
1648.36	-3.43791
1650.89	-9.67443
1653.42	-4.36431
1655.95	-6.77692
1658.48	-4.50325
1661.01	-5.84642
1663.54	-6.8513
1666.07	-8.75752
1668.6	-8.15462
1671.13	-9.88586
1673.66	-13.6331
1676.19	-12.9482
1678.72	-10.8581
1681.25	-9.6137
1683.78	-10.9166
1686.31	-13.4436
1688.84	-12.6536
1691.37	-10.8991
1693.9	-10.7075
1696.43	-15.0893
1698.96	-13.479
1701.49	-11.6585
1704.02	-12.21
1706.55	-12.4066
1709.08	-14.8827
1711.61	-12.2756
1714.14	-9.58738
1716.67	-9.68894
1719.2	-10.2613
1721.73	-10.2553
1724.26	-8.70851
1726.79	-10.0252
1729.32	-12.7291
1731.85	-12.0604
1734.375	-11.2987
1736.9	-12.4548
1739.43	-12.0131
1741.96	-12.0713
1744.49	-13.3652
1747.02	-11.5348
1749.55	-12.4876
1752.08	-9.75831
1754.61	-10.5871
1757.14	-11.7829
1759.67	-12.9667
1762.2	-10.0701
1764.73	-12.1817
1767.26	-11.2488
1769.79	-13.5685
1772.32	-11.5338
1774.85	-14.3617
1777.38	-11.9879
1779.91	-13.1606
1782.44	-12.9415
1784.97	-14.7676
1787.5	-12.0916
1790.03	-11.8055
1792.56	-12.6613
1795.09	-13.0329
1797.62	-12.4216
1800.15	-12.6544
1802.68	-13.0615
1805.21	-12.1185
1807.74	-12.6279
1810.27	-11.2987
1812.8	-11.6244
1815.33	-10.0367
1817.86	-12.067
1820.39	-13.6232
1822.92	-9.75767
1825.45	-14.1217
1827.98	-11.7408
1830.51	-11.091
1833.04	-13.1893
1835.57	-12.0279
1838.1	-11.433
1840.625	-11.7654
1843.15	-9.68283
1845.68	-13.4884
1848.21	-10.7511
1850.74	-10.4745
1853.27	-12.2735
1855.8	-11.4845
1858.33	-11.4211
1860.86	-12.1382
1863.39	-12.5288
1865.92	-14.0774
1868.45	-14.4125
1870.98	-13.2163
1873.51	-10.5774
1876.04	-10.0115
1878.57	-11.1044
1881.1	-11.4516
1883.63	-11.6597
1886.16	-11.5993
1888.69	-10.4812
1891.22	-8.78369
1893.75	-11.1293
1896.28	-12.5945
1898.81	-13.0443
1901.34	-8.05003
1903.87	-12.3885
1906.4	-14.6436
1908.93	-14.7368
1911.46	-10.6748
1913.99	-9.83913
1916.52	-8.82237
1919.05	-9.288
1921.58	-12.1453
1924.11	-11.4188
1926.64	-11.7321
1929.17	-9.20967
1931.7	-10.9729
1934.23	-11.3862
1936.76	-13.6697
1939.29	-16.0229
1941.82	-13.1163
1944.35	-11.2016
1946.875	-13.0878
1949.4	-14.422
1951.93	-11.9324
1954.46	-10.5836
1956.99	-10.8794
1959.52	-12.4074
1962.05	-12.8
1964.58	-13.6989
1967.11	-16.1998
1969.64	-13.2691
1972.17	-10.8169
1974.7	-11.0875
1977.23	-15.0322
1979.76	-15.0886
1982.29	-14.3288
1984.82	-14.9041
1987.35	-15.6935
1989.88	-12.1349
1992.41	-11.4921
1994.94	-13.1471
1997.47	-12.9471
2000	-11.4913
2002.53	-11.903
2005.06	-12.3619
2007.59	-12.2167
2010.12	-11.3754
2012.65	-11.7
2015.18	-12.318
2017.71	-10.1512
2020.24	-9.93019
2022.77	-10.8306
2025.3	-11.76
2027.83	-11.3521
2030.36	-11.1597
2032.89	-12.6552
2035.42	-11.8654
2037.95	-13.434
2040.48	-13.3632
2043.01	-12.8774
2045.54	-12.5119
2048.07	-14.3013
2050.6	-13.4812
2053.125	-9.95824
2055.65	-10.1405
2058.18	-12.9211
2060.71	-13.3676
2063.24	-12.1572
2065.77	-13.1612
2068.3	-11.9168
2070.83	-13.6513
2073.36	-12.2961
2075.89	-12.2358
2078.42	-13.252
2080.95	-11.6363
2083.48	-10.6239
2086.01	-13.2023
2088.54	-12.0276
2091.07	-14.3817
2093.6	-11.149
2096.13	-10.7687
2098.66	-12.7477
2101.19	-11.1553
2103.72	-10.1025
2106.25	-12.3605
2108.78	-11.1669
2111.31	-12.3195
2113.84	-11.4339
2116.37	-11.139
2118.9	-12.5644
2121.43	-14.5925
2123.96	-14.5009
2126.49	-12.472
2129.02	-10.6771
2131.55	-11.4401
2134.08	-8.75606
2136.61	-8.95871
2139.14	-13.0876
2141.67	-15.83
2144.2	-12.3827
2146.73	-10.9795
2149.26	-12.68
2151.79	-13.0242
2154.32	-10.6036
2156.85	-10.2256
2159.375	-11.1344
2161.9	-11.0533
2164.43	-10.5163
2166.96	-10.3777
2169.49	-12.5116
2172.02	-11.5772
2174.55	-10.2541
2177.08	-9.63486
2179.61	-7.61379
2182.14	-8.27948
2184.67	-11.0592
2187.2	-11.5741
2189.73	-12.8454
2192.26	-11.1935
2194.79	-11.8289
2197.32	-11.7206
2199.85	-12.4352
2202.38	-12.1652
2204.91	-10.046
2207.44	-9.29431
2209.97	-12.5807
2212.5	-9.58004
2215.03	-7.55496
2217.56	-10.8592
2220.09	-10.9795
2222.62	-12.5839
2225.15	-11.6542
2227.68	-10.9261
2230.21	-9.46238
2232.74	-11.2101
2235.27	-10.6446
2237.8	-10.2045
2240.33	-9.48979
2242.86	-9.3467
2245.39	-8.25048
2247.92	-10.3834
2250.45	-10.0544
2252.98	-10.8017
2255.51	-12.3658
2258.04	-10.6462
2260.57	-10.3285
2263.1	-10.3754
2265.625	-11.1837
2268.15	-8.79519
2270.68	-11.1494
2273.21	-9.6265
2275.74	-10.6436
2278.27	-11.4875
2280.8	-11.4829
2283.33	-10.8874
2285.86	-9.24065
2288.39	-9.65918
2290.92	-12.033
2293.45	-10.7968
2295.98	-8.87973
2298.51	-8.66142
2301.04	-8.8222
2303.57	-10.1017
2306.1	-12.4705
2308.63	-11.1991
2311.16	-9.54291
2313.69	-9.20445
2316.22	-10.9392
2318.75	-10.6515
2321.28	-10.8216
2323.81	-12.0764
2326.34	-9.65392
2328.87	-8.94564
2331.4	-6.22402
2333.93	-3.88631
2336.46	-2.6247
2338.99	-5.2837
2341.52	-9.60885
2344.05	-9.35017
2346.58	-10.1017
2349.11	-8.85912
2351.64	-8.31799
2354.17	-9.45494
2356.7	-8.59291
2359.23	-12.716
2361.76	-10.8517
2364.29	-6.51831
2366.82	-9.4808
2369.35	-7.86185
2371.875	-9.02183
2374.4	-7.11896
2376.93	-8.14745
2379.46	-8.07362
2381.99	-9.0316
2384.52	-9.19789
2387.05	-9.72161
2389.58	-9.77077
2392.11	-7.65643
2394.64	-6.80287
2397.17	-8.92011
2399.7	-8.84011
2402.23	-7.50929
2404.76	-6.90729
2407.29	-8.78455
2409.82	-8.1072
2412.35	-3.83267
2414.88	-5.55427
2417.41	-3.63934
2419.94	-1.21647
2422.47	-2.83667
2425	-2.59175
2427.53	0.667434
2430.06	3.28614
2432.59	6.48425
2435.12	3.11884
2437.65	7.40823
2440.18	10.3766
2442.71	10.8772
2445.24	12.2566
2447.77	9.75937
2450.3	6.67281
2452.83	4.42503
2455.36	1.40909
2457.89	-3.06464
2460.42	-1.65274
2462.95	-1.8474
2465.48	-3.20337
2468.01	-1.08557
2470.54	1.41361
2473.07	-3.44704
2475.6	-3.8263
2478.125	-3.72796
2480.65	-4.61457
2483.18	-4.97112
2485.71	-6.57548
2488.24	-6.09838
2490.77	-4.94004
2493.3	-4.48142
2495.83	-6.00152
2498.36	-6.14867
2500.89	-5.57505
2503.42	-3.70655
2505.95	-5.04152
2508.48	-5.67906
2511.01	-5.06475
2513.54	-5.33351
2516.07	0.0882475
2518.6	-4.10234
2521.13	-4.60998
2523.66	-3.03453
2526.19	-3.15327
2528.72	-4.92516
2531.25	-4.52031
2533.78	-2.99136
2536.31	-5.3388
2538.84	-5.84793
2541.37	-4.92196
2543.9	-5.42137
2546.43	-3.32555
2548.96	-3.05522
2551.49	-1.48994
2554.02	-4.03887
2556.55	-5.13981
2559.08	-3.82336
2561.61	-4.8546
2564.14	-4.60825
2566.67	-4.81463
2569.2	-7.50361
2571.73	-7.07281
2574.26	-5.86162
2576.79	-3.95909
2579.32	-6.77023
2581.85	-5.3868
2584.375	-5.5314
2586.9	-3.23481
2589.43	-3.47476
2591.96	-3.38429
2594.49	-2.81108
2597.02	-5.52885
2599.55	-2.57885
2602.08	-4.70874
2604.61	-3.9664
2607.14	-6.93445
2609.67	-5.96567
2612.2	-4.24731
2614.73	-6.29669
2617.26	-5.00687
2619.79	0.826991
2622.32	-0.672305
2624.85	-3.51769
2627.38	-4.05468
2629.91	-4.65052
2632.44	-1.24516
2634.97	-3.32414
2637.5	-3.04035
2640.03	-4.57876
2642.56	-4.69248
2645.09	-1.18537
2647.62	-1.9089
2650.15	-1.55011
2652.68	-4.15337
2655.21	-5.17441
2657.74	-3.60343
2660.27	-2.09201
2662.8	-2.63765
2665.33	-4.38381
2667.86	-3.67954
2670.39	-4.04957
2672.92	-1.46722
2675.45	-2.36399
2677.98	-2.9473
2680.51	-1.78402
2683.04	-2.25087
2685.57	-2.53296
2688.1	-2.10502
2690.625	-0.463561
2693.15	-2.72627
2695.68	-3.58039
2698.21	-2.30365
2700.74	-4.61831
2703.27	0.0919435
2705.8	-3.83038
2708.33	-3.72866
2710.86	-1.68835
2713.39	-1.91687
2715.92	-1.64689
2718.45	-1.54082
2720.98	-1.71391
2723.51	0.284088
2726.04	-2.84468
2728.57	-4.20369
2731.1	-0.10946
2733.63	-1.69163
2736.16	-1.59282
2738.69	-1.67405
2741.22	-1.55062
2743.75	-1.16177
2746.28	-1.05941
2748.81	-1.33538
2751.34	-0.397402
2753.87	-0.526687
2756.4	1.27521
2758.93	-1.5307
2761.46	0.664748
2763.99	-3.95516
2766.52	-0.818887
2769.05	-2.56285
2771.58	-2.84286
2774.11	-3.78284
2776.64	-1.23105
2779.17	-0.319626
2781.7	-2.22741
2784.23	-2.66502
2786.76	1.93365
2789.29	-1.99274
2791.82	1.21495
2794.35	-3.14357
2796.875	0.805299
2799.4	-0.683283
2801.93	-0.683608
2804.46	0.303613
2806.99	-0.275646
2809.52	0.16485
2812.05	-0.603062
2814.58	-2.79158
2817.11	-2.08288
2819.64	0.0675904
2822.17	-3.60677
2824.7	-0.748779
2827.23	2.49721
2829.76	-0.474092
2832.29	-1.28407
2834.82	-1.14573
2837.35	-0.908503
2839.88	-2.66684
2842.41	-0.27494
2844.94	-4.99147
2847.47	-0.198576
2850	-2.02194
2852.53	-0.193848
2855.06	-1.21734
2857.59	-0.326382
2860.12	0.244859
2862.65	-0.252042
2865.18	0.259099
2867.71	-2.0232
2870.24	-0.418691
2872.77	1.59573
2875.3	0.61471
2877.83	1.50249
2880.36	0.767458
2882.89	2.64871
2885.42	1.83323
2887.95	0.863878
2890.48	0.127139
2893.01	1.63817
2895.54	-0.409666
2898.07	-0.407209
2900.6	3.69144
2903.125	3.46911
2905.65	-0.180258
2908.18	2.35234
2910.71	0.330975
2913.24	0.751319
2915.77	1.35935
2918.3	10.0093
2920.83	513.84
2923.36	186.613
2925.89	11.4781
2928.42	1.49887
2930.95	1.00119
2933.48	1.86767
2936.01	-1.29278
2938.54	-0.270301
2941.07	0.655851
2943.6	4.78745
2946.13	-1.8574
2948.66	5.47645
2951.19	4.95635
2953.72	5.10836
2956.25	5.37387
2958.78	4.76831
2961.31	4.26899
2963.84	2.92028
2966.37	1.20235
2968.9	2.01392
2971.43	-0.665449
2973.96	0.840317
2976.49	-1.94533
2979.02	0.537226
2981.55	0.0498998
2984.08	0.499797
2986.61	0.189081
2989.14	2.86153
2991.67	-0.102519
2994.2	-1.64741
2996.73	0.00275679
2999.26	73.0433
3001.79	160.811
3004.32	223.458
3006.85	44.5923
3009.375	-1.0619
3011.9	-3.0449
3014.43	-1.54052
3016.96	0.0964794
3019.49	-2.38106
3022.02	-3.36251
3024.55	-2.90301
3027.08	-4.97274
3029.61	-0.234282
3032.14	0.633532
3034.67	-1.51991
3037.2	-3.32136
3039.73	-2.52547
3042.26	-0.915761
3044.79	-4.21499
3047.32	-3.52283
3049.85	-2.73186
3052.38	-4.89298
3054.91	-0.704939
3057.44	-3.28224
3059.97	-2.04242
3062.5	-1.36521
3065.03	-3.41888
3067.56	-2.2228
3070.09	0.939999
3072.62	-3.13538
3075.15	0.161355
3077.68	-4.02865
3080.21	-0.779927
3082.74	-0.692685
3085.27	0.982786
3087.8	0.350846
3090.33	1.49572
3092.86	-2.44019
3095.39	-2.16757
3097.92	-5.5834
3100.45	-3.01008
3102.98	0.300937
3105.51	-2.8651
3108.04	-2.39804
3110.57	0.107848
3113.1	-5.149
3115.625	-6.09745
3118.15	-3.28973
3120.68	-0.670385
3123.21	-2.26532
3125.74	0.177215
3128.27	1.91056
3130.8	-2.21472
3133.33	0.132611
3135.86	-2.23748
3138.39	-4.55514
3140.92	-5.23263
3143.45	-2.38835
3145.98	-1.87338
3148.51	-0.664982
3151.04	-0.985168
3153.57	-2.36591
3156.1	-1.16121
3158.63	-0.391104
3161.16	-3.48303
3163.69	-1.29293
3166.22	-1.36546
3168.75	-2.38462
3171.28	-0.230468
3173.81	0.293775
3176.34	-0.347293
3178.87	-1.73343
3181.4	1.24535
3183.93	3.34155
3186.46	-1.9897
3188.99	-3.03264
3191.52	0.158329
3194.05	-1.25662
3196.58	-2.45894
3199.11	-3.72627
3201.64	-2.55919
3204.17	-4.62009
3206.7	-3.52904
3209.23	-0.35308
3211.76	-1.65428
3214.29	-2.49497
3216.82	-4.20938
3219.35	-3.93722
3221.875	-3.1375
3224.4	-0.768878
3226.93	0.768947
3229.46	-0.912879
3231.99	-2.78329
3234.52	0.848189
3237.05	-0.927428
3239.58	-0.11069
3242.11	-0.906835
3244.64	3.25107
3247.17	2.04465
3249.7	-2.65601
3252.23	-1.13312
3254.76	-2.55365
3257.29	0.0185995
3259.82	-1.14565
3262.35	-0.918427
3264.88	-3.69745
3267.41	-3.01115
3269.94	-0.223987
3272.47	-1.45536
3275	-0.0143805
3277.53	1.46267
3280.06	0.383448
3282.59	3.76203
3285.12	-0.258884
3287.65	-0.710375
3290.18	-4.20492
3292.71	-2.19827
3295.24	-0.835067
3297.77	1.2616
3300.3	-1.29745
3302.83	-2.22543
3305.36	-2.15061
3307.89	3.58819
3310.42	1.95482
3312.95	-0.346813
3315.48	-0.791168
3318.01	-0.577299
3320.54	-2.65425
3323.07	0.808749
3325.6	-0.523267
3328.125	-2.51919
3330.65	2.63961
3333.18	-0.25924
3335.71	-1.42831
3338.24	-1.10666
3340.77	0.113256
3343.3	-6.29766
3345.83	-2.47602
3348.36	1.37421
3350.89	-1.06168
3353.42	-1.89828
3355.95	2.38219
3358.48	3.03856
3361.01	0.738778
3363.54	1.08313
3366.07	-4.00369
3368.6	1.66956
3371.13	-1.15867
3373.66	1.66747
3376.19	-0.697448
3378.72	-1.76986
3381.25	-0.773763
3383.78	-2.69745
3386.31	-1.41752
3388.84	1.21134
3391.37	-0.163502
3393.9	-1.71459
3396.43	0.655482
3398.96	-1.27815
3401.49	-0.489125
3404.02	2.09389
3406.55	-1.69342
3409.08	-0.997107
3411.61	2.71625
3414.14	0.353638
3416.67	0.902552
3419.2	1.58688
3421.73	-1.57831
3424.26	3.94801
3426.79	4.79988
3429.32	1.918
3431.85	-0.813348
3434.375	-1.50991
3436.9	-0.703659
3439.43	-1.18405
3441.96	2.59414
3444.49	1.95077
3447.02	-3.3577
3449.55	-1.27891
3452.08	-2.60175
3454.61	-0.501915
3457.14	1.14525
3459.67	1.30842
3462.2	-0.722431
3464.73	-1.09745
3467.26	-0.402867
3469.79	4.20224
3472.32	4.05028
3474.85	-2.90478
3477.38	-0.324607
3479.91	0.935312
3482.44	3.11457
3484.97	2.2702
3487.5	2.10871
3490.03	-1.62683
3492.56	0.545507
3495.09	2.12124
3497.62	-0.257811
3500.15	4.3343
3502.68	4.09341
3505.21	0.864305
3507.74	4.83627
3510.27	2.44042
3512.8	0.118783
3515.33	2.98129
3517.86	-4.55211
3520.39	1.86237
3522.92	-1.75196
3525.45	2.87809
3527.98	1.89293
3530.51	0.191379
3533.04	3.17333
3535.57	2.84823
3538.1	-0.576067
3540.625	3.98799
3543.15	0.526414
3545.68	1.9032
3548.21	1.01358
3550.74	0.817766
3553.27	0.650245
3555.8	1.17158
3558.33	1.29239
3560.86	0.352094
3563.39	1.04675
3565.92	0.6429
3568.45	1.69309
3570.98	-1.1916
3573.51	3.28915
3576.04	4.21732
3578.57	-0.340362
3581.1	3.34354
3583.63	1.6775
3586.16	4.31996
3588.69	3.88241
3591.22	4.00541
3593.75	1.3439
3596.28	1.50323
3598.81	0.33688
3601.34	3.42991
3603.87	4.25313
3606.4	3.79034
3608.93	4.11353
3611.46	5.15845
3613.99	0.79825
3616.52	2.95569
3619.05	5.48645
3621.58	4.30971
3624.11	-0.564228
3626.64	4.43316
3629.17	4.07531
3631.7	2.95476
3634.23	2.70255
3636.76	2.37463
3639.29	0.479699
3641.82	0.318935
3644.35	3.23456
3646.875	3.65918
3649.4	0.714187
3651.93	4.34314
3654.46	0.440864
3656.99	-1.99026
3659.52	1.70754
3662.05	2.88233
3664.58	5.91793
3667.11	0.335692
3669.64	4.40266
3672.17	3.63744
3674.7	3.70019
3677.23	3.53582
3679.76	6.25215
3682.29	4.06792
3684.82	2.57514
3687.35	1.50573
3689.88	3.28227
3692.41	1.72158
3694.94	2.4086
3697.47	3.69358
3700	0.966384