File: Example Data/Raman/Kara/12-20-10/Si-Graphene/6bulk/SGbulk_8.txt
200	39.6788
202.544	38.4112
205.087	30.5186
207.631	27.2069
210.174	31.5431
212.718	34.3336
215.262	35.4897
217.805	34.6919
220.349	32.4714
222.892	39.2302
225.436	36.9412
227.98	38.0199
230.523	41.5851
233.067	42.3278
235.61	39.5884
238.154	43.6271
240.698	46.3961
243.241	48.5965
245.785	51.0733
248.328	45.7519
250.872	51.9998
253.416	52.9019
255.959	52.4813
258.503	54.8322
261.047	56.1249
263.59	48.5876
266.134	50.1874
268.677	54.259
271.221	57.2334
273.765	62.5694
276.308	59.3814
278.852	59.2141
281.395	57.8199
283.939	57.5504
286.483	64.1087
289.026	55.0324
291.57	57.7881
294.113	61.1416
296.657	61.8839
299.201	60.5804
301.744	60.4181
304.288	63.2846
306.831	65.3596
309.375	64.9571
311.919	61.7805
314.462	57.555
317.006	61.1585
319.549	62.2
322.093	65.4748
324.637	68.4619
327.18	62.4951
329.724	64.6128
332.267	66.3307
334.811	69.0149
337.355	70.9057
339.898	69.6975
342.442	65.9457
344.985	64.7118
347.529	66.1783
350.073	65.8902
352.616	65.4448
355.16	75.9763
357.703	71.4043
360.247	65.6808
362.791	64.9103
365.334	66.9823
367.878	66.5438
370.422	67.8519
372.965	67.2743
375.509	67.3263
378.052	66.5855
380.596	64.6913
383.14	64.2001
385.683	67.3132
388.227	67.1061
390.77	68.7076
393.314	68.6954
395.858	62.5154
398.401	65.1394
400.945	65.5479
403.488	66.7207
406.032	65.0813
408.576	61.4871
411.119	63.3566
413.663	61.8771
416.206	67.0796
418.75	71.2719
421.294	70.3567
423.837	65.5439
426.381	68.834
428.924	75.0979
431.468	75.4683
434.012	79.3198
436.555	86.3085
439.099	88.1528
441.642	85.5146
444.186	82.7304
446.73	86.5409
449.273	91.9808
451.817	95.2052
454.36	97.8839
456.904	106.472
459.448	110.717
461.991	115.033
464.535	117.269
467.078	116.852
469.622	122.309
472.166	125.654
474.709	122.811
477.253	119.488
479.797	122.508
482.34	133.325
484.884	134.153
487.427	131.854
489.971	123.62
492.515	112.015
495.058	103.346
497.602	102.226
500.145	94.0898
502.689	85.196
505.233	76.4618
507.776	71.7791
510.32	69.5388
512.863	64.0519
515.407	58.5667
517.951	52.4796
520.494	49.7912
523.038	48.5443
525.581	45.6624
528.125	39.4212
530.669	37.4219
533.212	32.1624
535.756	31.5479
538.299	31.3407
540.843	28.3034
543.387	23.8568
545.93	26.692
548.474	21.1966
551.017	20.821
553.561	22.4141
556.105	22.651
558.648	21.1445
561.192	16.6311
563.735	19.6788
566.279	17.2446
568.823	13.2552
571.366	14.4967
573.91	22.7567
576.453	15.8915
578.997	18.8212
581.541	20.1692
584.084	18.0433
586.628	16.5986
589.172	19.6886
591.715	17.6759
594.259	17.2771
596.802	18.2342
599.346	18.0228
601.89	16.8747
604.433	16.3982
606.977	17.4069
609.52	18.4153
612.064	17.5014
614.608	15.8398
617.151	14.579
619.695	14.1581
622.238	14.1859
624.782	17.216
627.326	16.5706
629.869	15.6222
632.413	16.7138
634.956	19.0633
637.5	19.736
640.044	19.2302
642.587	13.8069
645.131	16.7323
647.674	19.8736
650.218	19.5586
652.762	16.7194
655.305	13.4205
657.849	14.604
660.392	16.2111
662.936	17.5714
665.48	16.9305
668.023	15.1944
670.567	15.7464
673.11	15.2386
675.654	13.0089
678.198	11.8962
680.741	13.8892
683.285	17.0485
685.828	17.4702
688.372	13.0692
690.916	15.9538
693.459	15.3956
696.003	15.4528
698.547	15.4682
701.09	14.4189
703.634	12.6863
706.177	11.8365
708.721	14.7291
711.265	13.8065
713.808	14.4407
716.352	15.9461
718.895	16.4164
721.439	17.2947
723.983	18.4868
726.526	16.7499
729.07	15.9508
731.613	15.7049
734.157	15.2061
736.701	13.8571
739.244	11.4746
741.788	13.3516
744.331	18.3396
746.875	21.4271
749.419	18.8991
751.962	14.5394
754.506	14.9668
757.049	18.0885
759.593	24.0727
762.137	23.5547
764.68	20.5706
767.224	18.4526
769.767	16.4903
772.311	13.5344
774.855	17.8045
777.398	19.0045
779.942	20.3476
782.485	16.6622
785.029	14.3781
787.573	17.488
790.116	22.3628
792.66	20.9689
795.203	16.6746
797.747	20.0554
800.291	23.5826
802.834	21.0186
805.378	17.2691
807.922	19.4538
810.465	15.7752
813.009	22.483
815.552	19.3869
818.096	19.2084
820.64	22.048
823.183	22.6998
825.727	19.6906
828.27	21.5772
830.814	17.7858
833.358	13.9911
835.901	17.3348
838.445	21.3013
840.988	22.2909
843.532	21.082
846.076	19.8729
848.619	18.6633
851.163	17.6166
853.706	20.9572
856.25	23.5878
858.794	23.6553
861.337	23.6039
863.881	25.1325
866.424	18.8297
868.968	21.4293
871.512	22.3941
874.055	24.9145
876.599	26.0194
879.142	22.6514
881.686	16.6212
884.23	15.7445
886.773	21.8179
889.317	19.4329
891.86	20.7099
894.404	20.939
896.948	20.5679
899.491	21.1466
902.035	21.7466
904.578	20.228
907.122	14.8328
909.666	18.3466
912.209	16.9187
914.753	16.928
917.297	16.2705
919.84	13.403
922.384	15.7408
924.927	19.5772
927.471	16.6541
930.015	15.018
932.558	11.4205
935.102	12.7904
937.645	15.1138
940.189	13.767
942.733	16.9377
945.276	16.4133
947.82	15.7184
950.363	12.8398
952.907	13.603
955.451	14.1337
957.994	14.5234
960.538	15.5582
963.081	11.755
965.625	9.65285
968.169	15.2375
970.712	14.1544
973.256	14.1287
975.799	13.3413
978.343	10.7717
980.887	7.64533
983.43	5.13539
985.974	9.17639
988.517	9.89842
991.061	9.39885
993.605	11.3423
996.148	10.0532
998.692	7.6
1001.24	8.61929
1003.78	11.5184
1006.32	12.0009
1008.87	5.83974
1011.41	7.09494
1013.95	8.53852
1016.5	6.24355
1019.04	4.34619
1021.58	5.11475
1024.13	5.6425
1026.67	5
1029.22	5
1031.76	3.98714
1034.3	2.49099
1036.85	5.41803
1039.39	5.13058
1041.93	2.37325
1044.48	3.25853
1047.02	5.74442
1049.56	-0.381517
1052.11	0.149524
1054.65	2.924
1057.19	6.07226
1059.74	5.71139
1062.28	1.8502
1064.83	0.940924
1067.37	4.56915
1069.91	1.84704
1072.46	2.20093
1075	2.37841
1077.54	0.217036
1080.09	-1.46794
1082.63	-0.777794
1085.17	-0.599019
1087.72	-1.4005
1090.26	-0.246906
1092.81	1.95546
1095.35	-1.60095
1097.89	-3.38022
1100.44	-0.635904
1102.98	-0.470172
1105.52	-1.58477
1108.07	-2.2903
1110.61	-1.98867
1113.15	-0.45142
1115.7	1.69901
1118.24	-0.368248
1120.78	1.23729
1123.33	-0.20466
1125.87	-1.2949
1128.42	-2.1876
1130.96	-1.06116
1133.5	-0.897791
1136.05	-3.02467
1138.59	-1.96754
1141.13	-1.98022
1143.68	-4.84374
1146.22	-6.18476
1148.76	-2.39799
1151.31	-2.78241
1153.85	-2.94806
1156.4	-2.88527
1158.94	-1.91919
1161.48	1.24887
1164.03	-1.75342
1166.57	-4.35513
1169.11	-1.66462
1171.66	-2.85695
1174.2	-4.04883
1176.74	-4.76334
1179.29	-2.4798
1181.83	-0.3222
1184.375	0.346513
1186.92	2.07565
1189.46	-1.96152
1192.01	-5.19962
1194.55	-3.21957
1197.09	-4.1207
1199.64	-3.69895
1202.18	-3.88147
1204.72	-4.09942
1207.27	-2.70652
1209.81	-0.616529
1212.35	-1.32191
1214.9	-5.57793
1217.44	-5.38472
1219.99	-4.3016
1222.53	-2.72618
1225.07	-1.38909
1227.62	-1.62547
1230.16	-4.75329
1232.7	-5.46508
1235.25	-3.60551
1237.79	-4.10897
1240.33	-2.66812
1242.88	0.167901
1245.42	-3.81773
1247.97	-0.716321
1250.51	-0.662244
1253.05	-4.18291
1255.6	-7.08318
1258.14	-5.74409
1260.68	-3.4
1263.23	-4.00965
1265.77	-3.95314
1268.31	0.964702
1270.86	-2.31512
1273.4	-5.95013
1275.94	-3.99903
1278.49	-2.39075
1281.03	-5.99189
1283.58	-5.58454
1286.12	-4.18787
1288.66	-3.02075
1291.21	-1.33296
1293.75	-2.35129
1296.29	-0.178266
1298.84	-1.47743
1301.38	-3.30071
1303.92	-3.4
1306.47	-4.01956
1309.01	-1.5898
1311.56	-1.84
1314.1	-2.49206
1316.64	-1.85882
1319.19	-1.19602
1321.73	-0.292586
1324.27	0.763598
1326.82	-1.46617
1329.36	-2.19779
1331.9	0.7187
1334.45	-0.324397
1336.99	1.48103
1339.53	3.64952
1342.08	2.44451
1344.62	1.68821
1347.17	-0.37641
1349.71	-1.99205
1352.25	3.14551
1354.8	3.50385
1357.34	2.70452
1359.88	-0.785253
1362.43	-1.3485
1364.97	0.599321
1367.51	-0.50451
1370.06	-1.40275
1372.6	0.881091
1375.15	0.761331
1377.69	-0.827598
1380.23	-0.45949
1382.78	-0.0370277
1385.32	0.78537
1387.86	2.30879
1390.41	1.47185
1392.95	-1.84683
1395.49	-1.47222
1398.04	-4.92894
1400.58	-1.16178
1403.125	-1.47258
1405.67	-2.37164
1408.21	-2.59551
1410.76	-2.58186
1413.3	-1.72627
1415.84	-1.78624
1418.39	-3.3618
1420.93	-3.06097
1423.47	-2.13107
1426.02	-5.09426
1428.56	-5.55706
1431.1	-2.81685
1433.65	-2.49792
1436.19	-1.39091
1438.74	-0.8
1441.28	0.357254
1443.82	0.583487
1446.37	-1.31478
1448.91	-2.73816
1451.45	-3.40837
1454	-6.06649
1456.54	-6.05647
1459.08	-2.78053
1461.63	-2.03669
1464.17	1.71377
1466.72	0.897542
1469.26	-0.889064
1471.8	-3.15492
1474.35	-3.51525
1476.89	-4.05982
1479.43	-3.4865
1481.98	-3.28266
1484.52	-5.39961
1487.06	-6.01218
1489.61	-6.08515
1492.15	-3.84267
1494.69	-2.72267
1497.24	-1.60231
1499.78	-1.04081
1502.33	-3.4253
1504.87	-1.71829
1507.41	-2.52368
1509.96	-3
1512.5	-4.5748
1515.04	-3.86803
1517.59	-2.30459
1520.13	-2.77847
1522.67	-4.15931
1525.22	-4.11165
1527.76	-1.31047
1530.31	-1
1532.85	-0.842283
1535.39	0.430188
1537.94	-3.88492
1540.48	-3.26938
1543.02	-2.68852
1545.57	-4.02459
1548.11	-4.98446
1550.65	-5.2
1553.2	-4.5896
1555.74	-2.21734
1558.28	-1.09162
1560.83	-2.11899
1563.37	-1.60465
1565.92	0.210967
1568.46	-0.0973681
1571	-0.436247
1573.55	-3.50865
1576.09	-6.13213
1578.63	-1.05858
1581.18	-3.1341
1583.72	-0.641629
1586.26	-0.743058
1588.81	-0.319205
1591.35	-1.69139
1593.9	0.285741
1596.44	0.256002
1598.98	0.877998
1601.53	-1.88565
1604.07	-1.89306
1606.61	1.38139
1609.16	0.72699
1611.7	0.6
1614.24	-0.125117
1616.79	-1.99323
1619.33	-1.10739
1621.875	-0.497817
1624.42	0.138257
1626.96	-4.79338
1629.51	-1.95576
1632.05	-3.77363
1634.59	-4.16928
1637.14	-0.536354
1639.68	1.29571
1642.22	-1.88262
1644.77	-0.940081
1647.31	-0.437558
1649.85	-2.64876
1652.4	-3.29844
1654.94	-1.96589
1657.49	-2.01079
1660.03	-3.27157
1662.57	-3.77251
1665.12	-4.81081
1667.66	-5.01013
1670.2	-3.73635
1672.75	-4.52456
1675.29	-5.44736
1677.83	-5.86796
1680.38	-2.04809
1682.92	-6.33892
1685.47	-5.16191
1688.01	-4.14534
1690.55	-6.108
1693.1	-4.45184
1695.64	-6.84039
1698.18	-5.00424
1700.73	-4.11049
1703.27	-5.71046
1705.81	-4.60745
1708.36	-2.4884
1710.9	-1.53
1713.44	-2.62899
1715.99	-6.11892
1718.53	-7.78292
1721.08	-6.75431
1723.62	-5.71955
1726.16	-4.49087
1728.71	-4.83762
1731.25	-5.02975
1733.79	-4.8925
1736.34	-2.65793
1738.88	-5.98671
1741.42	-5.60172
1743.97	-3.49284
1746.51	-5.79421
1749.06	-8.82745
1751.6	-4.62549
1754.14	-3.96221
1756.69	-4.61977
1759.23	-4.06094
1761.77	-3.09617
1764.32	-4.13689
1766.86	-6.06716
1769.4	-3.20476
1771.95	-1.2521
1774.49	-1.91859
1777.03	-2.49831
1779.58	-1.50093
1782.12	-0.948276
1784.67	-2.2
1787.21	-3.51792
1789.75	-4.59753
1792.3	-2.86493
1794.84	-3.91259
1797.38	-3.41461
1799.93	-6.04174
1802.47	-5.98614
1805.01	-5.17813
1807.56	-5.84471
1810.1	-3.35963
1812.65	-4.97632
1815.19	-4.53981
1817.73	-2.59925
1820.28	-2.21068
1822.82	-5.79112
1825.36	-5.44941
1827.91	-5.4
1830.45	-5.91792
1832.99	-6.66893
1835.54	-5.66615
1838.08	-2.57939
1840.625	-1.1938
1843.17	-1.58557
1845.71	-3.77901
1848.26	-3.37227
1850.8	-6.08611
1853.34	-4.88871
1855.89	-3.44363
1858.43	-2.31188
1860.97	-1.73713
1863.52	-2.64637
1866.06	-4.95433
1868.6	-6.40255
1871.15	-3.37077
1873.69	-3.70808
1876.24	-7.4004
1878.78	-6.03005
1881.32	-5.66345
1883.87	-6.54624
1886.41	-7.07623
1888.95	-6.42896
1891.5	-4.55001
1894.04	-5.97167
1896.58	-5.49163
1899.13	-3.99532
1901.67	-7.36847
1904.22	-7.5821
1906.76	-4.61582
1909.3	-7.75201
1911.85	-6.18431
1914.39	-3.36923
1916.93	-0.131836
1919.48	-3.82204
1922.02	-4.18925
1924.56	-6.01576
1927.11	-6.12337
1929.65	-4.95142
1932.19	-4.0137
1934.74	-4.31096
1937.28	-0.0234202
1939.83	-3.96964
1942.37	-2.43316
1944.91	-2.4
1947.46	-1.63741
1950	-1.6
1952.54	-4.38717
1955.09	-5.51741
1957.63	-5.41878
1960.17	-3.60991
1962.72	-1.27773
1965.26	-6.4178
1967.81	-6.16358
1970.35	-6
1972.89	-4.48028
1975.44	-5.36908
1977.98	-5.10433
1980.52	-2.54765
1983.07	-6.69281
1985.61	-5.55706
1988.15	-5
1990.7	-5.3146
1993.24	-3.99714
1995.78	-0.198753
1998.33	-4.25957
2000.87	-3.97511
2003.42	-3.70197
2005.96	-3.65011
2008.5	-2.11624
2011.05	-4.82134
2013.59	-5.35946
2016.13	-3.86475
2018.68	-5.50904
2021.22	-6.86032
2023.76	-4.96172
2026.31	-3.95194
2028.85	-2.27714
2031.4	-2.43368
2033.94	-4.67632
2036.48	-3.898
2039.03	-1.93645
2041.57	-4.54237
2044.11	-6.22741
2046.66	-2.13935
2049.2	-3.76844
2051.74	-5.32948
2054.29	-3.17413
2056.83	-2.57103
2059.375	-4.45912
2061.92	-4.00763
2064.46	-6.36173
2067.01	-5.00917
2069.55	-7.16444
2072.09	-6.45102
2074.64	-3.99649
2077.18	-5.26858
2079.72	-6.42965
2082.27	-4.98597
2084.81	-6.05047
2087.35	-5.38308
2089.9	-5.24724
2092.44	-3.40237
2094.99	-3.96362
2097.53	-4.62144
2100.07	-4.63173
2102.62	-5.20483
2105.16	-3.91524
2107.7	-5.55594
2110.25	-1.71354
2112.79	-3.42169
2115.33	-4.7694
2117.88	-5.04804
2120.42	-3.28021
2122.97	-3.64971
2125.51	-2.77013
2128.05	-6.00563
2130.6	-3.3153
2133.14	-1.49275
2135.68	-4.13662
2138.23	-4.42626
2140.77	-3.42608
2143.31	-3.27537
2145.86	-2.87803
2148.4	-4.37126
2150.94	-3.04797
2153.49	-5.08713
2156.03	-4.34974
2158.58	-1.13998
2161.12	-2.84659
2163.66	-5.45472
2166.21	-3.85202
2168.75	-4.75147
2171.29	-1.91254
2173.84	-1.44002
2176.38	-4.41182
2178.92	-3.53398
2181.47	-3.9961
2184.01	-3.18058
2186.56	-3.04127
2189.1	-6.2624
2191.64	-5.36498
2194.19	-5.75722
2196.73	-5.30072
2199.27	-6.01088
2201.82	-7.28914
2204.36	-5.17753
2206.9	-2.91562
2209.45	-4.96502
2211.99	-5.72074
2214.53	-5.84001
2217.08	-4.35454
2219.62	-4.81002
2222.17	-4.64641
2224.71	-2.50603
2227.25	-3.57487
2229.8	-3.80356
2232.34	-3.2464
2234.88	-3.42605
2237.43	-5.74696
2239.97	-4.06229
2242.51	-3.67816
2245.06	-3.55892
2247.6	-4.344
2250.15	-4.35437
2252.69	-3.44738
2255.23	-4.55075
2257.78	-3.71542
2260.32	-4.2252
2262.86	-3.2525
2265.41	-1.52269
2267.95	-3.80294
2270.49	-2.72032
2273.04	-2.97044
2275.58	-2.16328
2278.125	-2.59683
2280.67	-4.07803
2283.21	-5.21731
2285.76	-4.30938
2288.3	-4.50544
2290.84	-3.40377
2293.39	-3.81184
2295.93	-2.46091
2298.47	-4.11608
2301.02	-2.40455
2303.56	-3.10025
2306.1	-2.82125
2308.65	-2.09996
2311.19	-2.85216
2313.74	-3.93581
2316.28	-2.66333
2318.82	-2.34627
2321.37	-3.42532
2323.91	-2.53792
2326.45	-2.78508
2329	-1.35348
2331.54	-1.03931
2334.08	3.57092
2336.63	3.84924
2339.17	-0.0514052
2341.72	-2.89032
2344.26	-3.59023
2346.8	0.650799
2349.35	-0.752347
2351.89	1.56349
2354.43	-4.00138
2356.98	-3.71107
2359.52	-1.17709
2362.06	-1.66181
2364.61	-2.05193
2367.15	-1.15314
2369.69	0.30377
2372.24	-0.994146
2374.78	-1.50795
2377.33	-0.97139
2379.87	0.545581
2382.41	0.400033
2384.96	0.073569
2387.5	-1.77115
2390.04	-0.964448
2392.59	0.886786
2395.13	2.04655
2397.67	0.063637
2400.22	-0.321998
2402.76	-0.782899
2405.31	4.62696
2407.85	4.07971
2410.39	3.91774
2412.94	4.00361
2415.48	5.26183
2418.02	3.67574
2420.57	8.20976
2423.11	8.92735
2425.65	11.134
2428.2	12.7694
2430.74	15.0686
2433.28	20.9237
2435.83	27.2651
2438.37	33.3252
2440.92	39.2267
2443.46	35.4641
2446	32.9402
2448.55	30.4044
2451.09	25.5461
2453.63	19.6052
2456.18	15.7083
2458.72	16.5027
2461.26	13.8161
2463.81	11.1192
2466.35	9.92024
2468.9	9.836
2471.44	7.80939
2473.98	6.69496
2476.53	7.4049
2479.07	3.51645
2481.61	7.6465
2484.16	6.49881
2486.7	5.71515
2489.24	5.85035
2491.79	6.35438
2494.33	6.06606
2496.875	4.9834
2499.42	5.41397
2501.96	5.86058
2504.51	4.45289
2507.05	3.50879
2509.59	4.65517
2512.14	3.57077
2514.68	5.5528
2517.22	5.5458
2519.77	4.72462
2522.31	5.73944
2524.85	4.47006
2527.4	3.0602
2529.94	8.16002
2532.49	4.93505
2535.03	4.96501
2537.57	7.1444
2540.12	5.17233
2542.66	4.56782
2545.2	4.15167
2547.75	3.12547
2550.29	3.9487
2552.83	3.57365
2555.38	4.71673
2557.92	2.00659
2560.47	2.37804
2563.01	2.35479
2565.55	3.91147
2568.1	1.19638
2570.64	1.08973
2573.18	0.823535
2575.73	0.868818
2578.27	2.90498
2580.81	1.4587
2583.36	2.69945
2585.9	3.77
2588.44	3.57068
2590.99	2.54615
2593.53	4.85446
2596.08	4.01949
2598.62	3.94668
2601.16	4.09169
2603.71	1.11401
2606.25	1.99283
2608.79	4.47037
2611.34	2.52169
2613.88	3.56608
2616.42	3.02172
2618.97	3.62724
2621.51	2.29584
2624.06	3.58708
2626.6	3.46058
2629.14	1.02159
2631.69	0.394388
2634.23	1.89937
2636.77	3.03619
2639.32	1.79139
2641.86	3.30523
2644.4	6.36061
2646.95	4.69702
2649.49	2.38846
2652.03	1.11716
2654.58	2.01753
2657.12	3.72124
2659.67	4.75549
2662.21	2.67423
2664.75	1.79853
2667.3	1.83108
2669.84	3.28314
2672.38	2.02449
2674.93	4.48125
2677.47	5.11895
2680.01	4.29609
2682.56	2.60568
2685.1	3.99288
2687.65	5.43476
2690.19	5.89048
2692.73	5.10478
2695.28	2.8825
2697.82	5.77701
2700.36	4.99031
2702.91	5.01239
2705.45	4.56891
2707.99	3.79944
2710.54	4.88354
2713.08	4.49373
2715.625	4.50161
2718.17	4.12658
2720.71	3.04065
2723.26	4.24325
2725.8	4.21924
2728.34	5.56629
2730.89	5.16222
2733.43	1.86786
2735.97	4.17935
2738.52	2.33683
2741.06	3.13217
2743.6	7.77515
2746.15	6.30793
2748.69	2.89483
2751.24	1.46485
2753.78	3.28188
2756.32	5.77867
2758.87	5.21097
2761.41	4.06557
2763.95	2.65126
2766.5	1.83242
2769.04	6.0045
2771.58	6.00204
2774.13	2.27727
2776.67	3.82783
2779.22	6.6081
2781.76	5.69186
2784.3	6.88687
2786.85	3.40018
2789.39	5.79074
2791.93	4.69578
2794.48	5.01468
2797.02	7.17185
2799.56	6.97304
2802.11	4.8847
2804.65	6.9674
2807.19	5.23017
2809.74	4.81157
2812.28	4.33108
2814.83	5.0836
2817.37	6.63049
2819.91	2.90972
2822.46	3.74562
2825	3.57704
2827.54	4.2498
2830.09	1.77839
2832.63	4.58281
2835.17	6.84807
2837.72	6.17798
2840.26	7.42992
2842.81	7.14633
2845.35	4.40909
2847.89	5.67051
2850.44	2.18858
2852.98	5.25951
2855.52	6.08254
2858.07	2.96688
2860.61	2.64444
2863.15	7.50477
2865.7	8.07897
2868.24	6.60443
2870.78	5.7578
2873.33	1.29573
2875.87	5.91681
2878.42	2.19665
2880.96	2.18848
2883.5	4.80937
2886.05	5.19053
2888.59	6.83928
2891.13	2.97808
2893.68	3.23852
2896.22	5.79364
2898.76	7.76546
2901.31	3.53057
2903.85	3.24016
2906.4	4.55084
2908.94	4.43534
2911.48	7.20384
2914.03	4.38964
2916.57	5.51818
2919.11	5.10391
2921.66	4.98531
2924.2	5.04282
2926.74	5.8845
2929.29	5.17297
2931.83	6.90827
2934.375	5.85307
2936.92	7.42272
2939.46	4.29122
2942.01	7.19695
2944.55	7.41464
2947.09	6.97131
2949.64	8.56286
2952.18	8.29331
2954.72	7.48452
2957.27	8.18677
2959.81	11.7168
2962.35	6.21413
2964.9	5.74231
2967.44	5.4157
2969.99	6.5832
2972.53	5.80354
2975.07	8.11966
2977.62	7.60415
2980.16	5.35998
2982.7	3.79609
2985.25	3.48644
2987.79	5.85497
2990.33	5.8815
2992.88	2.89637
2995.42	4.38205
2997.97	5.95746
3000.51	3.99913
3003.05	5.89673
3005.6	3.52188
3008.14	3.09316
3010.68	2.35875
3013.23	0.780319
3015.77	2.0912
3018.31	1.84762
3020.86	-0.26643
3023.4	3.31159
3025.94	6.2998
3028.49	4.492
3031.03	2.9638
3033.58	4.70475
3036.12	6.52304
3038.66	2.84564
3041.21	1.23883
3043.75	5.08112
3046.29	3.99077
3048.84	1.31347
3051.38	4.88834
3053.92	4.71653
3056.47	6.0894
3059.01	7.3724
3061.56	2.77053
3064.1	1.83132
3066.64	1.49907
3069.19	3.54893
3071.73	4.3333
3074.27	4.61074
3076.82	6.81314
3079.36	7.3783
3081.9	4.9428
3084.45	7.3073
3086.99	4.84068
3089.53	4.83206
3092.08	5.05377
3094.62	6.31235
3097.17	5.43966
3099.71	4.60487
3102.25	3.50116
3104.8	0.366592
3107.34	1.88327
3109.88	3.83132
3112.43	3.6628
3114.97	4.81395
3117.51	6.28309
3120.06	6.24878
3122.6	4.31224
3125.15	4.71887
3127.69	5.74809
3130.23	5.28996
3132.78	4.23183
3135.32	4.16829
3137.86	3.74295
3140.41	6.78327
3142.95	8.05405
3145.49	5.10178
3148.04	4.89161
3150.58	2.23132
3153.125	2.23132
3155.67	2.56275
3158.21	4.29043
3160.76	3.66239
3163.3	4.03973
3165.84	6.48532
3168.39	3.20145
3170.93	4.50972
3173.47	3.53315
3176.02	5.17384
3178.56	5.21402
3181.1	9.61839
3183.65	3.2268
3186.19	2.99665
3188.74	8.41861
3191.28	3.16977
3193.82	2.59759
3196.37	7.12582
3198.91	6.14717
3201.45	5.50154
3204	4.73053
3206.54	6.14981
3209.08	4.56102
3211.63	4.44468
3214.17	6.06729
3216.72	4.63132
3219.26	4.26874
3221.8	3.69928
3224.35	6.58909
3226.89	7.55806
3229.43	5.0668
3231.98	9.02152
3234.52	6.69107
3237.06	3.22973
3239.61	5.11188
3242.15	5.71191
3244.69	2.93453
3247.24	4.79352
3249.78	3.35081
3252.33	4.09414
3254.87	3.84796
3257.41	5.23763
3259.96	3.14872
3262.5	9.4742
3265.04	6.43425
3267.59	6.75625
3270.13	6.5602
3272.67	4.67082
3275.22	5.73641
3277.76	4.65687
3280.31	8.47153
3282.85	6.27744
3285.39	6.04945
3287.94	2.83192
3290.48	7.92714
3293.02	6.20401
3295.57	3.1758
3298.11	4.8903
3300.65	6.51585
3303.2	7.48947
3305.74	5.58803
3308.28	7.34766
3310.83	5.6755
3313.37	6.85979
3315.92	7.40339
3318.46	10.6644
3321	7.0484
3323.55	5.29464
3326.09	2.8933
3328.63	5.35675
3331.18	5.34813
3333.72	5.47866
3336.26	10.9638
3338.81	7.09793
3341.35	6.08531
3343.9	5.32615
3346.44	6.92575
3348.98	4.43823
3351.53	6.69894
3354.07	7.1824
3356.61	7.12493
3359.16	8.21803
3361.7	4.00984
3364.24	5.96956
3366.79	8.98333
3369.33	6.08843
3371.875	7.66323
3374.42	6.63132
3376.96	6.27094
3379.51	3.99526
3382.05	8.15934
3384.59	9.21521
3387.14	10.2071
3389.68	6.12962
3392.22	12.1505
3394.77	8.26338
3397.31	7.47202
3399.85	7.3488
3402.4	8.985
3404.94	3.63322
3407.49	7.28254
3410.03	7.93629
3412.57	8.13978
3415.12	8.40887
3417.66	6.55524
3420.2	12.8377
3422.75	14.0005
3425.29	10.7272
3427.83	7.4591
3430.38	9.51971
3432.92	11.6814
3435.47	8.72234
3438.01	10.6524
3440.55	9.96366
3443.1	8.10064
3445.64	5.10407
3448.18	7.88306
3450.73	7.50622
3453.27	10.5832
3455.81	8.32477
3458.36	8.12487
3460.9	9.73088
3463.44	8.16833
3465.99	7.15206
3468.53	6.92031
3471.08	7.44181
3473.62	7.27622
3476.16	5.77569
3478.71	9.83648
3481.25	9.47825
3483.79	10.3205
3486.34	11.1502
3488.88	9.07764
3491.42	7.15031
3493.97	6.4553
3496.51	7.53388
3499.06	8.39824
3501.6	7.93083
3504.14	7.46797
3506.69	7.77804
3509.23	8.94931
3511.77	10.3527
3514.32	7.58367
3516.86	7.50192
3519.4	6.53603
3521.95	5.99894
3524.49	7.91297
3527.03	6.77248
3529.58	5.96981
3532.12	10.2209
3534.67	7.39935
3537.21	7.80195
3539.75	6.84099
3542.3	9.27211
3544.84	4.92622
3547.38	6.17503
3549.93	6.9238
3552.47	9.67889
3555.01	5.43056
3557.56	8.12039
3560.1	5.94516
3562.65	5.89087
3565.19	7.65524
3567.73	12.201
3570.28	8.54075
3572.82	7.07494
3575.36	8.81619
3577.91	8.84252
3580.45	8.68808
3582.99	6.52877
3585.54	6.36796
3588.08	5.84485
3590.625	8.77866
3593.17	7.85182
3595.71	7.00515
3598.26	7.78781
3600.8	9.15625
3603.34	11.3148
3605.89	9.46444
3608.43	12.9449
3610.97	8.77894
3613.52	6.03448
3616.06	6.98423
3618.6	8.2201
3621.15	10.2785
3623.69	11.2581
3626.24	10.36
3628.78	8.7393
3631.32	9.08056
3633.87	7.92132
3636.41	12.8562
3638.95	9.34172
3641.5	9.02386
3644.04	9.90505
3646.58	5.01069
3649.13	12.5904
3651.67	11.1842
3654.22	9.95338
3656.76	8.0019
3659.3	9.14476
3661.85	7.37696
3664.39	7.75101
3666.93	6.99847
3669.48	11.4225
3672.02	12.3299
3674.56	9.61908
3677.11	9.69958
3679.65	11.6121
3682.19	10.131
3684.74	10.5159
3687.28	9.63193
3689.83	12.7014
3692.37	9.99029
3694.91	10.4543
3697.46	11.9165
3700	11.3055