File: Example Data/Raman/Kara/12-20-10/Si-Graphene/6bulk/SGbulk_2.txt
300	1868.47
302.53	1907.03
305.06	1945.68
307.589	2019.94
310.119	2051.44
312.649	2133.72
315.179	2168.71
317.708	2197.97
320.238	2267.11
322.768	2270.83
325.298	2349.17
327.827	2406.07
330.357	2446.69
332.887	2483.54
335.417	2512.05
337.946	2549.13
340.476	2571.51
343.006	2564.61
345.536	2541.11
348.065	2540.26
350.595	2550.32
353.125	2561.54
355.655	2555.49
358.185	2556.44
360.714	2589.47
363.244	2529.51
365.774	2566.18
368.304	2560.13
370.833	2546.08
373.363	2558.82
375.893	2529.69
378.423	2506.41
380.952	2520.66
383.482	2546.91
386.012	2549.61
388.542	2498.03
391.071	2556.86
393.601	2555.57
396.131	2547.67
398.661	2536.23
401.19	2521.16
403.72	2585.67
406.25	2578.41
408.78	2581.5
411.31	2600.05
413.839	2625.49
416.369	2644.99
418.899	2627.83
421.429	2613.36
423.958	2609.72
426.488	2632.9
429.018	2680.17
431.548	2639.08
434.077	2650.94
436.607	2644.89
439.137	2645.18
441.667	2672.28
444.196	2717.55
446.726	2675.88
449.256	2687.2
451.786	2698.17
454.315	2710.42
456.845	2744.27
459.375	2792.58
461.905	2834.79
464.435	2862.26
466.964	2899.7
469.494	2954.07
472.024	3013.49
474.554	3112.73
477.083	3155.03
479.613	3258.9
482.143	3367.35
484.673	3442.69
487.202	3588.54
489.732	3796.87
492.262	3997.33
494.792	4263.8
497.321	4586.45
499.851	4901.47
502.381	5130.26
504.911	5229.31
507.44	5133.34
509.97	4865
512.5	4489.7
515.03	4094.41
517.56	3742.96
520.089	3428.71
522.619	3195.25
525.149	3046.97
527.679	2953.11
530.208	2857.56
532.738	2817.64
535.268	2744.5
537.798	2705.77
540.327	2695.79
542.857	2683.52
545.387	2640.27
547.917	2659.02
550.446	2655.48
552.976	2651.8
555.506	2632
558.036	2594.66
560.565	2605.12
563.095	2628.14
565.625	2656.76
568.155	2654.16
570.685	2643.39
573.214	2657.01
575.744	2673.49
578.274	2640.12
580.804	2640.27
583.333	2667.98
585.863	2697.63
588.393	2704.34
590.923	2688.5
593.452	2712.91
595.982	2736.67
598.512	2737.83
601.042	2725.97
603.571	2717.83
606.101	2706.3
608.631	2676.88
611.161	2729.76
613.69	2746.11
616.22	2727.09
618.75	2714.3
621.28	2705.49
623.81	2732.78
626.339	2742.99
628.869	2744.25
631.399	2738.18
633.929	2734.01
636.458	2754.34
638.988	2771.95
641.518	2754.94
644.048	2765.41
646.577	2772.2
649.107	2769.18
651.637	2802.98
654.167	2814.92
656.696	2812.75
659.226	2788.71
661.756	2779.09
664.286	2798.26
666.815	2826.16
669.345	2816.9
671.875	2800.81
674.405	2778.69
676.935	2786.54
679.464	2806.72
681.994	2805.36
684.524	2792.77
687.054	2768.15
689.583	2834.9
692.113	2827.24
694.643	2786.54
697.173	2783.2
699.702	2812.16
702.232	2814.01
704.762	2816.02
707.292	2848.91
709.821	2851.45
712.351	2834.3
714.881	2852.39
717.411	2882.18
719.94	2871.09
722.47	2873.84
725	2886.01
727.53	2881.61
730.06	2872.12
732.589	2918.32
735.119	2946.81
737.649	2952.81
740.179	2950.61
742.708	2955.44
745.238	2971.3
747.768	2984.99
750.298	2965.09
752.827	2972.73
755.357	2985.63
757.887	2994.76
760.417	3010.4
762.946	3018.23
765.476	2994.16
768.006	3023.09
770.536	3033.99
773.065	3029.16
775.595	3009.91
778.125	3016.27
780.655	3050.41
783.185	3043.03
785.714	3038.77
788.244	3027.49
790.774	3064.25
793.304	3088.57
795.833	3080.9
798.363	3077.91
800.893	3134.37
803.423	3081.06
805.952	3107.57
808.482	3102.44
811.012	3096.72
813.542	3102.57
816.071	3116.03
818.601	3166.28
821.131	3163.37
823.661	3164.05
826.19	3170.57
828.72	3173.21
831.25	3174.92
833.78	3189.66
836.31	3225.82
838.839	3240.74
841.369	3238.24
843.899	3241.81
846.429	3255.98
848.958	3266.69
851.488	3269.13
854.018	3294.86
856.548	3295.89
859.077	3304.44
861.607	3308.38
864.137	3323.65
866.667	3333.42
869.196	3324.2
871.726	3329.22
874.256	3353.52
876.786	3383.08
879.315	3373.37
881.845	3368.76
884.375	3409.34
886.905	3449.1
889.435	3393.4
891.964	3426.72
894.494	3483.46
897.024	3475.37
899.554	3490.43
902.083	3488.53
904.613	3481.87
907.143	3529.2
909.673	3526.16
912.202	3532.22
914.732	3563.18
917.262	3581.69
919.792	3576.38
922.321	3580.68
924.851	3607.9
927.381	3599.79
929.911	3558
932.44	3604.61
934.97	3613.96
937.5	3631.25
940.03	3602.95
942.56	3565.02
945.089	3604.85
947.619	3575.18
950.149	3622.46
952.679	3572.39
955.208	3586.81
957.738	3576.47
960.268	3571.6
962.798	3585.63
965.327	3529.04
967.857	3559.02
970.387	3516.23
972.917	3552.11
975.446	3535.98
977.976	3531.03
980.506	3539.19
983.036	3524.65
985.565	3527.47
988.095	3550.7
990.625	3546.49
993.155	3560.31
995.685	3541.02
998.214	3558.97
1000.74	3594.14
1003.27	3588.22
1005.8	3599.07
1008.33	3612.9
1010.86	3614.24
1013.39	3597.4
1015.92	3609.29
1018.45	3623.5
1020.98	3627.71
1023.51	3624.71
1026.04	3604.61
1028.57	3645.49
1031.1	3683.67
1033.63	3670.21
1036.16	3679.3
1038.69	3671.36
1041.22	3677.56
1043.75	3717.19
1046.28	3703.19
1048.81	3654.25
1051.34	3715.87
1053.87	3742.84
1056.4	3722.08
1058.93	3721.49
1061.46	3732.28
1063.99	3732.8
1066.52	3742.59
1069.05	3759.76
1071.58	3730.49
1074.11	3734.63
1076.64	3759.17
1079.17	3783.97
1081.7	3800.86
1084.23	3784.21
1086.76	3758.9
1089.29	3813.92
1091.82	3768.34
1094.35	3743.41
1096.875	3762.87
1099.4	3803.43
1101.93	3803.26
1104.46	3813.98
1106.99	3850.99
1109.52	3856.98
1112.05	3863.42
1114.58	3863.59
1117.11	3896.16
1119.64	3914.24
1122.17	3907.37
1124.7	3912
1127.23	3919.88
1129.76	3933.14
1132.29	3978.87
1134.82	4002.83
1137.35	4018.3
1139.88	4017.81
1142.41	3995.74
1144.94	4021.28
1147.47	4048.25
1150	4054.1
1152.53	4050.59
1155.06	4041.28
1157.59	4029.7
1160.12	4097.78
1162.65	4082.05
1165.18	4106.06
1167.71	4098.63
1170.24	4119.55
1172.77	4155.18
1175.3	4176.7
1177.83	4184.82
1180.36	4154.33
1182.89	4163.28
1185.42	4139.5
1187.95	4182.6
1190.48	4183.33
1193.01	4164.71
1195.54	4179.4
1198.07	4204.41
1200.6	4217.03
1203.125	4252.57
1205.65	4221.19
1208.18	4305.82
1210.71	4325.17
1213.24	4298.42
1215.77	4282.13
1218.3	4300.36
1220.83	4311.1
1223.36	4325.63
1225.89	4370.02
1228.42	4372.49
1230.95	4435.51
1233.48	4412.67
1236.01	4398.83
1238.54	4475.28
1241.07	4477.03
1243.6	4441.99
1246.13	4452.76
1248.66	4490.14
1251.19	4502.2
1253.72	4538.49
1256.25	4567.17
1258.78	4575.82
1261.31	4576.57
1263.84	4557.83
1266.37	4567.06
1268.9	4577.69
1271.43	4590.47
1273.96	4598.59
1276.49	4608.99
1279.02	4656.18
1281.55	4613.16
1284.08	4649.54
1286.61	4599.32
1289.14	4624.64
1291.67	4641.59
1294.2	4644.25
1296.73	4642.3
1299.26	4673.84
1301.79	4729.94
1304.32	4748.55
1306.85	4747.38
1309.375	4725.23
1311.9	4837.79
1314.43	4783
1316.96	4795.18
1319.49	4805.93
1322.02	4785.41
1324.55	4820.98
1327.08	4904.23
1329.61	4952.76
1332.14	4956.82
1334.67	4935.2
1337.2	5011.91
1339.73	4947.99
1342.26	5018.14
1344.79	5007.99
1347.32	5047.57
1349.85	5038.14
1352.38	5068.49
1354.91	5134.36
1357.44	5138.87
1359.97	5123.63
1362.5	5173.35
1365.03	5181.39
1367.56	5203.68
1370.09	5158.84
1372.62	5235.73
1375.15	5224.52
1377.68	5245.57
1380.21	5242.88
1382.74	5221.57
1385.27	5243.98
1387.8	5293.53
1390.33	5299.17
1392.86	5264.64
1395.39	5263.23
1397.92	5332.58
1400.45	5310.49
1402.98	5316.96
1405.51	5366.53
1408.04	5338.54
1410.57	5357.17
1413.1	5377.29
1415.625	5370.32
1418.15	5387.39
1420.68	5401.61
1423.21	5448.37
1425.74	5457.04
1428.27	5498.44
1430.8	5541.88
1433.33	5534.83
1435.86	5593.02
1438.39	5607.86
1440.92	5665.12
1443.45	5671.66
1445.98	5679.14
1448.51	5714.92
1451.04	5695.16
1453.57	5713.85
1456.1	5767.08
1458.63	5737.82
1461.16	5827.82
1463.69	5795.98
1466.22	5831.27
1468.75	5879.04
1471.28	5874.17
1473.81	5855.77
1476.34	5859.47
1478.87	5885.46
1481.4	5899.12
1483.93	5897.43
1486.46	5902.75
1488.99	5878.03
1491.52	5952.07
1494.05	5952.31
1496.58	6010.8
1499.11	5986.68
1501.64	5977.66
1504.17	5988.51
1506.7	5983.85
1509.23	5977.73
1511.76	6005.9
1514.29	6011.8
1516.82	5990.16
1519.35	5961.81
1521.875	5903.57
1524.4	5952.79
1526.93	6020.5
1529.46	5998.28
1531.99	6012.44
1534.52	6019.89
1537.05	6031.2
1539.58	6060
1542.11	6087.63
1544.64	6053.7
1547.17	6082.12
1549.7	6100.92
1552.23	6090.64
1554.76	6106.96
1557.29	6127.14
1559.82	6160.62
1562.35	6185.43
1564.88	6169.28
1567.41	6225.07
1569.94	6252.22
1572.47	6262.82
1575	6230.81
1577.53	6298.92
1580.06	6307.83
1582.59	6337.88
1585.12	6386.96
1587.65	6378.93
1590.18	6391.76
1592.71	6416.12
1595.24	6414.13
1597.77	6429.26
1600.3	6426.43
1602.83	6463.58
1605.36	6481.88
1607.89	6533.25
1610.42	6562.54
1612.95	6559.34
1615.48	6569.3
1618.01	6542.22
1620.54	6542.19
1623.07	6510.39
1625.6	6542.58
1628.125	6598.95
1630.65	6615.91
1633.18	6580.77
1635.71	6557.54
1638.24	6588.64
1640.77	6614.49
1643.3	6608.24
1645.83	6628.95
1648.36	6636.78
1650.89	6675.62
1653.42	6628.01
1655.95	6657.87
1658.48	6664.5
1661.01	6635.69
1663.54	6719.6
1666.07	6750.3
1668.6	6717.61
1671.13	6744.27
1673.66	6787.93
1676.19	6745.83
1678.72	6775.94
1681.25	6830.96
1683.78	6851.56
1686.31	6884.39
1688.84	6889.92
1691.37	6880.98
1693.9	6860.44
1696.43	6906.34
1698.96	6944.34
1701.49	6890.69
1704.02	6930.81
1706.55	6972.97
1709.08	6962.69
1711.61	6994.71
1714.14	7041.94
1716.67	7009.4
1719.2	7036.69
1721.73	7076.24
1724.26	7082.05
1726.79	7076.69
1729.32	7103.94
1731.85	7135.72
1734.375	7141.81
1736.9	7149.21
1739.43	7173.75
1741.96	7190.44
1744.49	7188.6
1747.02	7192.7
1749.55	7223.48
1752.08	7235.77
1754.61	7212.1
1757.14	7275.25
1759.67	7264.42
1762.2	7357.76
1764.73	7326.27
1767.26	7353.01
1769.79	7296.64
1772.32	7301.98
1774.85	7335.38
1777.38	7358.13
1779.91	7345.96
1782.44	7460.51
1784.97	7485.98
1787.5	7476.81
1790.03	7466.77
1792.56	7479.81
1795.09	7524.3
1797.62	7522.9
1800.15	7540.14
1802.68	7580.08
1805.21	7571
1807.74	7587.8
1810.27	7596.02
1812.8	7638.64
1815.33	7682.14
1817.86	7675.48
1820.39	7688
1822.92	7697.23
1825.45	7707.16
1827.98	7716.26
1830.51	7830.81
1833.04	7744.22
1835.57	7877.21
1838.1	7867.74
1840.625	7833.2
1843.15	7918.92
1845.68	7927.73
1848.21	7997.98
1850.74	7974.81
1853.27	8007.81
1855.8	7967.17
1858.33	7994.78
1860.86	8051.46
1863.39	8054.01
1865.92	8084.13
1868.45	8064.49
1870.98	8081.6
1873.51	8110.9
1876.04	8137.82
1878.57	8160.6
1881.1	8153.77
1883.63	8181.07
1886.16	8200.3
1888.69	8187.79
1891.22	8210.64
1893.75	8256.01
1896.28	8268.12
1898.81	8267.1
1901.34	8279.5
1903.87	8253.27
1906.4	8330.4
1908.93	8318.88
1911.46	8320.81
1913.99	8378.31
1916.52	8351.46
1919.05	8398.12
1921.58	8381
1924.11	8356.85
1926.64	8475.51
1929.17	8486.83
1931.7	8418.65
1934.23	8395.2
1936.76	8453.79
1939.29	8504.99
1941.82	8534.01
1944.35	8542.99
1946.875	8518.4
1949.4	8506.93
1951.93	8593.13
1954.46	8629.21
1956.99	8630.68
1959.52	8671.44
1962.05	8718.67
1964.58	8676.57
1967.11	8688.42
1969.64	8697.77
1972.17	8722.76
1974.7	8758.35
1977.23	8771.75
1979.76	8809.13
1982.29	8905.92
1984.82	8901.74
1987.35	8913.73
1989.88	8953.62
1992.41	8960.88
1994.94	8999.5
1997.47	9034.66
2000	9046.76
2002.53	9094.7
2005.06	9123.42
2007.59	9102.7
2010.12	9128.19
2012.65	9160.6
2015.18	9178.72
2017.71	9206.18
2020.24	9230.78
2022.77	9284.26
2025.3	9308.54
2027.83	9343.33
2030.36	9387.64
2032.89	9387.51
2035.42	9439.52
2037.95	9464.44
2040.48	9472.6
2043.01	9517.58
2045.54	9537.12
2048.07	9566.89
2050.6	9519.48
2053.125	9476.15
2055.65	9517.32
2058.18	9535.46
2060.71	9634.09
2063.24	9672.02
2065.77	9654.07
2068.3	9649.72
2070.83	9661.69
2073.36	9655.94
2075.89	9697.62
2078.42	9754.18
2080.95	9755.43
2083.48	9783.41
2086.01	9820.08
2088.54	9798.37
2091.07	9846.13
2093.6	9840.79
2096.13	9863.63
2098.66	9880.04
2101.19	9886.35
2103.72	9880.28
2106.25	9924.95
2108.78	9968
2111.31	9960.65
2113.84	9988.97
2116.37	10017.9
2118.9	10053.2
2121.43	10087.9
2123.96	10108.5
2126.49	10158.8
2129.02	10205
2131.55	10239.7
2134.08	10302.8
2136.61	10336.8
2139.14	10358.9
2141.67	10336.3
2144.2	10356.7
2146.73	10431.8
2149.26	10468
2151.79	10530.5
2154.32	10499.6
2156.85	10525
2159.375	10578.2
2161.9	10627.6
2164.43	10666.5
2166.96	10656.3
2169.49	10722.7
2172.02	10751
2174.55	10775.4
2177.08	10791.4
2179.61	10792.3
2182.14	10861.9
2184.67	10913.2
2187.2	10849.4
2189.73	10850.5
2192.26	10945.3
2194.79	10977.9
2197.32	10990.7
2199.85	10978.1
2202.38	10962.5
2204.91	11079
2207.44	11100.6
2209.97	11145.5
2212.5	11161.6
2215.03	11178.4
2217.56	11193
2220.09	11205.9
2222.62	11242
2225.15	11270.5
2227.68	11271.5
2230.21	11338.6
2232.74	11345
2235.27	11310.4
2237.8	11400.4
2240.33	11471.7
2242.86	11503
2245.39	11509.9
2247.92	11561.6
2250.45	11605.6
2252.98	11575.625
2255.51	11648.7
2258.04	11737.9
2260.57	11822.6
2263.1	11851.8
2265.625	11893.4
2268.15	11896.1
2270.68	11926.6
2273.21	12029.7
2275.74	12021.8
2278.27	12092.5
2280.8	12121.2
2283.33	12154.75
2285.86	12181.7
2288.39	12209.7
2290.92	12266.7
2293.45	12329
2295.98	12350
2298.51	12435.4
2301.04	12391.9
2303.57	12439.8
2306.1	12546.2
2308.63	12546.3
2311.16	12539.6
2313.69	12568.4
2316.22	12598.1
2318.75	12649.4
2321.28	12673.1
2323.81	12720.5
2326.34	12758.9
2328.87	12758.8
2331.4	12789.3
2333.93	12828.9
2336.46	12845.6
2338.99	12834.9
2341.52	12840.6
2344.05	12869.6
2346.58	12890.7
2349.11	12950.9
2351.64	12915.7
2354.17	12935.6
2356.7	13016.9
2359.23	13076.5
2361.76	13103
2364.29	13068.6
2366.82	13087.8
2369.35	13146
2371.875	13175.3
2374.4	13212.3
2376.93	13242.2
2379.46	13270.7
2381.99	13325.8
2384.52	13405.5
2387.05	13449.9
2389.58	13467.5
2392.11	13522
2394.64	13557.4
2397.17	13624.4
2399.7	13635.4
2402.23	13712.6
2404.76	13757.9
2407.29	13782.9
2409.82	13799.5
2412.35	13803.8
2414.88	13908.5
2417.41	13949.9
2419.94	14042.1
2422.47	14095.3
2425	14093.2
2427.53	14168.9
2430.06	14226.8
2432.59	14173.2
2435.12	14252.1
2437.65	14315.6
2440.18	14364.1
2442.71	14370.9
2445.24	14446.3
2447.77	14441.7
2450.3	14439.3
2452.83	14470.8
2455.36	14533.9
2457.89	14533
2460.42	14610
2462.95	14601.4
2465.48	14648.2
2468.01	14606.2
2470.54	14681.6
2473.07	14692.9
2475.6	14754.1
2478.125	14814
2480.65	14834.4
2483.18	14840
2485.71	14818.1
2488.24	14899.5
2490.77	14963.9
2493.3	15011.2
2495.83	14997.9
2498.36	15019.1
2500.89	15111.7
2503.42	15199.1
2505.95	15218.3
2508.48	15215
2511.01	15281.3
2513.54	15332.2
2516.07	15423
2518.6	15501.4
2521.13	15529.4
2523.66	15506.7
2526.19	15528.1
2528.72	15574.1
2531.25	15664.2
2533.78	15751.9
2536.31	15839.2
2538.84	15877.3
2541.37	15888.1
2543.9	15978.1
2546.43	16013.7
2548.96	16056.5
2551.49	16087.1
2554.02	16109.5
2556.55	16171.9
2559.08	16201.5
2561.61	16330.6
2564.14	16379.8
2566.67	16408.2
2569.2	16424.6
2571.73	16544.3
2574.26	16560.2
2576.79	16551.5
2579.32	16607.6
2581.85	16643.5
2584.375	16694.6
2586.9	16714.9
2589.43	16703
2591.96	16786
2594.49	16845.7
2597.02	16835.1
2599.55	16875.2
2602.08	16896.8
2604.61	16914
2607.14	16979.2
2609.67	17022.6
2612.2	17017.4
2614.73	17070.6
2617.26	17093.4
2619.79	17158.8
2622.32	17210.1
2624.85	17218.2
2627.38	17229.6
2629.91	17278.7
2632.44	17299.9
2634.97	17382.1
2637.5	17505.3
2640.03	17522.6
2642.56	17533.5
2645.09	17644.6
2647.62	17697.1
2650.15	17723
2652.68	17779
2655.21	17776
2657.74	17832.2
2660.27	17912.2
2662.8	17938.6
2665.33	18125.4
2667.86	18092.5
2670.39	18169.6
2672.92	18211.8
2675.45	18280.3
2677.98	18381
2680.51	18427.7
2683.04	18498
2685.57	18576.2
2688.1	18621.8
2690.625	18696.3
2693.15	18719.1
2695.68	18741.4
2698.21	18769.2
2700.74	18873.5
2703.27	18965.7
2705.8	18985
2708.33	19063.7
2710.86	19147.1
2713.39	19263.2
2715.92	19247
2718.45	19278.6
2720.98	19283.3
2723.51	19391.7
2726.04	19392.4
2728.57	19472.6
2731.1	19571.4
2733.63	19635.4
2736.16	19635.2
2738.69	19727.7
2741.22	19762.7
2743.75	19823.9
2746.28	19866.5
2748.81	19859.7
2751.34	19931
2753.87	20016.2
2756.4	20007.5
2758.93	20074.5
2761.46	20145.7
2763.99	20285.4
2766.52	20372.4
2769.05	20345.1
2771.58	20373.8
2774.11	20436.6
2776.64	20485.7
2779.17	20572.9
2781.7	20625.1
2784.23	20664.9
2786.76	20680.5
2789.29	20801.1
2791.82	20794.5
2794.35	20861.5
2796.875	20936.1
2799.4	20993.3
2801.93	20990.4
2804.46	21139.6
2806.99	21277.6
2809.52	21283.3
2812.05	21281.3
2814.58	21413.1
2817.11	21407.4
2819.64	21451.4
2822.17	21458.6
2824.7	21558.5
2827.23	21610.2
2829.76	21695.9
2832.29	21710.2
2834.82	21859.2
2837.35	21894.5
2839.88	21897.2
2842.41	21972.2
2844.94	22062.3
2847.47	22164
2850	22270.3
2852.53	22291
2855.06	22414.7
2857.59	22460.2
2860.12	22496.1
2862.65	22618.3
2865.18	22664.9
2867.71	22790.6
2870.24	22882.3
2872.77	23051
2875.3	22957.6
2877.83	23175.8
2880.36	23325.9
2882.89	23306.5
2885.42	23362.4
2887.95	23472.5
2890.48	23528.8
2893.01	23649.2
2895.54	23709.6
2898.07	23914.6
2900.6	24021.6
2903.125	24015.6
2905.65	24057.5
2908.18	24167.3
2910.71	24242.7
2913.24	24424
2915.77	24443.7
2918.3	24527.2
2920.83	24614.1
2923.36	24634.2
2925.89	24821.5
2928.42	24797.4
2930.95	24905.6
2933.48	25062.1
2936.01	25154.8
2938.54	25239.1
2941.07	25107.4
2943.6	25248.6
2946.13	25404.4
2948.66	25357.2
2951.19	25603.7
2953.72	25512.6
2956.25	25617.8
2958.78	25646.1
2961.31	25709.2
2963.84	25646.3
2966.37	25803.8
2968.9	25728.7
2971.43	25795.75
2973.96	25891.4
2976.49	25932.3
2979.02	25958.2
2981.55	26007.3
2984.08	26075.4
2986.61	26191.3
2989.14	26369
2991.67	26411.2
2994.2	26362
2996.73	26406
2999.26	26526.8
3001.79	26585
3004.32	26617.4
3006.85	26658.3
3009.375	26824.3
3011.9	26823.6
3014.43	26990
3016.96	27149.5
3019.49	27188
3022.02	27290.4
3024.55	27450.5
3027.08	27459.9
3029.61	27588.4
3032.14	27651.5
3034.67	27761.3
3037.2	27919.7
3039.73	28047.9
3042.26	28084.7
3044.79	28141.6
3047.32	28282.4
3049.85	28295.1
3052.38	28507.9
3054.91	28617.1
3057.44	28763.8
3059.97	28772.1
3062.5	28952.9
3065.03	29015.9
3067.56	29083.7
3070.09	29121.5
3072.62	29375.7
3075.15	29470.1
3077.68	29529.5
3080.21	29661.6
3082.74	29795.5
3085.27	29796.1
3087.8	29904.6
3090.33	29929.7
3092.86	30003.2
3095.39	30054.8
3097.92	30105.5
3100.45	30228.9
3102.98	30320.5
3105.51	30463.2
3108.04	30578.2
3110.57	30601.1
3113.1	30561.3
3115.625	30708.1
3118.15	30701.8
3120.68	30827.5
3123.21	30854.4
3125.74	30905.9
3128.27	31014.9
3130.8	31172.3
3133.33	31165.6
3135.86	31295.4
3138.39	31403.2
3140.92	31517.5
3143.45	31446.4
3145.98	31538.5
3148.51	31660.2
3151.04	31737
3153.57	31757.9
3156.1	31814.5
3158.63	31972.6
3161.16	31923.5
3163.69	32276
3166.22	32266.6
3168.75	32442.5
3171.28	32456.5
3173.81	32492.1
3176.34	32691.9
3178.87	32883.4
3181.4	32993.3
3183.93	32989.7
3186.46	33206.2
3188.99	33211
3191.52	33385.1
3194.05	33591.1
3196.58	33637
3199.11	33585.3
3201.64	33768.1
3204.17	33964.7
3206.7	34196.1
3209.23	34277.9
3211.76	34377.6
3214.29	34525.7
3216.82	34426.2
3219.35	34700.1
3221.875	34853.4
3224.4	34953.4
3226.93	34931.7
3229.46	35204.8
3231.99	35275.5
3234.52	35390.9
3237.05	35448.5
3239.58	35443.5
3242.11	35745.9
3244.64	35745.3
3247.17	35920.1
3249.7	36057
3252.23	36260.6
3254.76	36118.9
3257.29	36162.9
3259.82	36331.5
3262.35	36496.25
3264.88	36603.3
3267.41	36537.1
3269.94	36675.8
3272.47	36722.5
3275	36758.6
3277.53	36922.3
3280.06	37066.3
3282.59	37124.9
3285.12	37137.4
3287.65	37272.4
3290.18	37502.5
3292.71	37529.7
3295.24	37585.7
3297.77	37703.9
3300.3	37679.1
3302.83	37868.7
3305.36	37898.1
3307.89	38109.8
3310.42	38213.75
3312.95	38301.1
3315.48	38449.3
3318.01	38471.2
3320.54	38551.5
3323.07	38649
3325.6	38695.4
3328.125	38799
3330.65	38869.5
3333.18	38992.8
3335.71	39024.8
3338.24	39191.3
3340.77	39331
3343.3	39457.75
3345.83	39472.7
3348.36	39591.1
3350.89	39686.4
3353.42	39730.3
3355.95	39912.8
3358.48	39902
3361.01	39982.6
3363.54	40174.9
3366.07	40280.9
3368.6	40376.3
3371.13	40343.9
3373.66	40529.1
3376.19	40650.5
3378.72	40812.9
3381.25	40794.5
3383.78	40867.7
3386.31	41068.2
3388.84	41072.4
3391.37	41157.6
3393.9	41471.9
3396.43	41482.9
3398.96	41537.1
3401.49	41684.1
3404.02	41894.125
3406.55	42047.2
3409.08	42287
3411.61	42288.6
3414.14	42328.3
3416.67	42544
3419.2	42622.4
3421.73	42751
3424.26	42747.5
3426.79	42924.1
3429.32	43081.1
3431.85	43217.7
3434.375	43451.6
3436.9	43319.3
3439.43	43538.8
3441.96	43738.4
3444.49	43842.3
3447.02	44071.6
3449.55	44141.1
3452.08	44265
3454.61	44420.5
3457.14	44490.2
3459.67	44551.6
3462.2	44960.2
3464.73	44820.5
3467.26	44787.5
3469.79	44926.7
3472.32	44905.9
3474.85	45039.4
3477.38	45332.5
3479.91	45419.9
3482.44	45583.6
3484.97	45601.8
3487.5	45810.8
3490.03	45793.5
3492.56	45952
3495.09	45973.3
3497.62	46067
3500.15	46200.1
3502.68	46360.6
3505.21	46409.6
3507.74	46545.4
3510.27	46633.6
3512.8	46694
3515.33	46756.9
3517.86	46895.375
3520.39	46949.375
3522.92	47183.8
3525.45	47325.3
3527.98	47526.1
3530.51	47435
3533.04	47712.2
3535.57	47854.2
3538.1	47989.1
3540.625	48161.9
3543.15	48346.2
3545.68	48474.2
3548.21	48627.7
3550.74	48560.7
3553.27	48777.8
3555.8	48948.4
3558.33	49090.1
3560.86	49242.4
3563.39	49464.4
3565.92	49430
3568.45	49554.7
3570.98	49795.2
3573.51	49883
3576.04	50025.9
3578.57	50228.7
3581.1	50316.4
3583.63	50429.3
3586.16	50642.2
3588.69	50744.4
3591.22	50936
3593.75	50973
3596.28	51200.7
3598.81	51384.1
3601.34	51502.2
3603.87	51558.3
3606.4	51724.2
3608.93	51912.1
3611.46	52095.4
3613.99	51927.3
3616.52	52097.25
3619.05	52147.7
3621.58	52341.3
3624.11	52396.9
3626.64	52582.2
3629.17	52735.4
3631.7	52719.9
3634.23	52885.3
3636.76	52975.1
3639.29	53112.2
3641.82	53010.2
3644.35	53254.6
3646.875	53327.4
3649.4	53489.3
3651.93	53639.8
3654.46	53764.5
3656.99	53775.1
3659.52	53898.5
3662.05	54001.3
3664.58	54146.9
3667.11	54345.7
3669.64	54424.2
3672.17	54362.9
3674.7	54429.2
3677.23	54599.9
3679.76	54705.5
3682.29	54725.1
3684.82	54812.9
3687.35	54975.6
3689.88	55050.2
3692.41	55144.9
3694.94	55307.1
3697.47	55405.3
3700	55409