File: Example Data/Raman/Kara/12-20-10/Si-Graphene/6bulk/SGbulk_5.txt
300	164.682
302.53	184.133
305.06	206.544
307.589	212.576
310.119	219.199
312.649	228.158
315.179	225.375
317.708	215.654
320.238	208.245
322.768	207.113
325.298	214.724
327.827	215.878
330.357	216.764
332.887	218.682
335.417	205.722
337.946	216.553
340.476	212.39
343.006	207.12
345.536	206.413
348.065	204.2
350.595	204.2
353.125	197.249
355.655	187.024
358.185	183.789
360.714	195.013
363.244	187.051
365.774	184.73
368.304	178.083
370.833	170.544
373.363	168.074
375.893	175.233
378.423	172.973
380.952	172.904
383.482	172.758
386.012	170.722
388.542	166.658
391.071	162.909
393.601	165.372
396.131	166.523
398.661	165.064
401.19	162.193
403.72	157.62
406.25	156.459
408.78	154.637
411.31	157.976
413.839	165.677
416.369	165.949
418.899	161.699
421.429	159.251
423.958	162.477
426.488	170.184
429.018	177.399
431.548	174.125
434.077	173.652
436.607	179.844
439.137	183.368
441.667	179.114
444.196	171.427
446.726	172.739
449.256	176.683
451.786	172.574
454.315	164.804
456.845	162.577
459.375	166.52
461.905	173.977
464.435	178.308
466.964	186.65
469.494	200.97
472.024	215.829
474.554	219.45
477.083	229.635
479.613	245.482
482.143	262.826
484.673	280.095
487.202	303.002
489.732	315.621
492.262	347.147
494.792	386.239
497.321	430.907
499.851	481.819
502.381	527.05
504.911	618.998
507.44	741.08
509.97	966.003
512.5	1355.82
515.03	1982.88
517.56	3224.37
520.089	5387.05
522.619	6769.61
525.149	6355.36
527.679	4369.17
530.208	2438.85
532.738	1426.85
535.268	902.028
537.798	603.569
540.327	432.208
542.857	338.639
545.387	283.142
547.917	223.084
550.446	190.78
552.976	168.456
555.506	148.227
558.036	128.962
560.565	114.509
563.095	108.459
565.625	98.2722
568.155	89.3043
570.685	82.4955
573.214	76.5362
575.744	70.7082
578.274	66.186
580.804	65.9801
583.333	65.3371
585.863	62.4268
588.393	58.991
590.923	61.1593
593.452	59.4002
595.982	56.3903
598.512	59.3839
601.042	63.2272
603.571	62.04
606.101	64.3791
608.631	66.5532
611.161	75.4993
613.69	77.5011
616.22	77.8859
618.75	83.8546
621.28	86.9819
623.81	85.3079
626.339	79.9435
628.869	73.4336
631.399	69.0978
633.929	67.2539
636.458	63.4212
638.988	63.9242
641.518	60.1534
644.048	63.2302
646.577	64.8923
649.107	62.7483
651.637	66.7524
654.167	68.6012
656.696	64.0015
659.226	59.9218
661.756	59.3195
664.286	61.0715
666.815	61.6871
669.345	60.8459
671.875	64.7781
674.405	62.3562
676.935	59.7281
679.464	60.0957
681.994	60.848
684.524	53.0232
687.054	55.5535
689.583	52.2504
692.113	50.4924
694.643	49.8653
697.173	47.5092
699.702	41.9634
702.232	36.7289
704.762	37.7195
707.292	36.8689
709.821	39.9627
712.351	40.2459
714.881	30.7039
717.411	38.4892
719.94	33.93
722.47	40.0778
725	42.2394
727.53	38.0523
730.06	34.5762
732.589	40.4957
735.119	36.7649
737.649	38.2366
740.179	35.2409
742.708	36.6982
745.238	40.3155
747.768	37.9669
750.298	33.6916
752.827	41.8479
755.357	41.6403
757.887	39.7701
760.417	39.5368
762.946	42.419
765.476	47.069
768.006	42.9843
770.536	48.8153
773.065	49.137
775.595	48.3936
778.125	47.2424
780.655	45.9977
783.185	47.7815
785.714	52.2154
788.244	53.5348
790.774	49.8781
793.304	49.0587
795.833	51.3477
798.363	52.9163
800.893	53.6328
803.423	57.7337
805.952	63.8054
808.482	59.3501
811.012	56.7106
813.542	57.1644
816.071	56.9398
818.601	65.7787
821.131	65.2648
823.661	60.1108
826.19	57.3104
828.72	59.8367
831.25	62.002
833.78	58.3516
836.31	57.4268
838.839	62.9164
841.369	61.4953
843.899	66.4162
846.429	60.8042
848.958	54.2057
851.488	61.0996
854.018	57.1905
856.548	57.0185
859.077	56.0795
861.607	60.0664
864.137	63.2834
866.667	63.0923
869.196	62.1992
871.726	64.9991
874.256	62.5864
876.786	59.5366
879.315	61.2988
881.845	63.432
884.375	63.8173
886.905	62.3159
889.435	60.9918
891.964	72.0433
894.494	70.227
897.024	65.7418
899.554	63.6617
902.083	65.8835
904.613	69.0828
907.143	69.465
909.673	73.0422
912.202	74.5998
914.732	76.3088
917.262	87.7237
919.792	102.971
922.321	119.279
924.851	137.97
927.381	158.975
929.911	178.571
932.44	193.242
934.97	211.652
937.5	226.856
940.03	242.861
942.56	253.005
945.089	247.192
947.619	249.043
950.149	244.871
952.679	249.802
955.208	252.042
957.738	246.668
960.268	243.492
962.798	245.785
965.327	241.575
967.857	241.401
970.387	230.832
972.917	234.81
975.446	227.043
977.976	217.716
980.506	204.83
983.036	186.309
985.565	179.009
988.095	147.744
990.625	140.869
993.155	122.783
995.685	109.182
998.214	98.9622
1000.74	91.152
1003.27	85.6877
1005.8	75.76
1008.33	60.3546
1010.86	64.5267
1013.39	55.0269
1015.92	51.9546
1018.45	51.8433
1020.98	47.3655
1023.51	39.6497
1026.04	36.1728
1028.57	34.2427
1031.1	25.2691
1033.63	25.8626
1036.16	23.0347
1038.69	20.307
1041.22	18.6846
1043.75	16.8
1046.28	16.3838
1048.81	13.6056
1051.34	14.1337
1053.87	10.353
1056.4	9.8499
1058.93	8.60868
1061.46	7.3645
1063.99	7.6
1066.52	7.21799
1069.05	5.56642
1071.58	8.21118
1074.11	6.10566
1076.64	6.16167
1079.17	6.4
1081.7	6.68049
1084.23	7.63158
1086.76	8.28438
1089.29	6.19959
1091.82	3.19415
1094.35	0.540957
1096.875	5.90586
1099.4	5.37111
1101.93	6.03768
1104.46	6.40743
1106.99	5.48553
1109.52	5.85423
1112.05	1.26698
1114.58	1.97611
1117.11	1.65726
1119.64	6.8067
1122.17	5.19247
1124.7	1.64453
1127.23	1.09365
1129.76	1.92934
1132.29	1.49304
1134.82	4.41583
1137.35	2.10514
1139.88	-0.377594
1142.41	3.631
1144.94	1.55763
1147.47	-0.392901
1150	-1.831
1152.53	-2.47048
1155.06	0.654217
1157.59	-3.00047
1160.12	1.45469
1162.65	3.4982
1165.18	0.178702
1167.71	-1.12933
1170.24	-0.55326
1172.77	-1.46622
1175.3	-2.23356
1177.83	-0.582719
1180.36	-3.75527
1182.89	-6.59741
1185.42	-6.06089
1187.95	-7.26792
1190.48	-1.69165
1193.01	0.534737
1195.54	-0.562411
1198.07	-0.358504
1200.6	0.596989
1203.125	-0.913139
1205.65	2.30394
1208.18	-2.17864
1210.71	-5.12795
1213.24	-2.00246
1215.77	-3.2577
1218.3	-1.01003
1220.83	0.940626
1223.36	-0.0605707
1225.89	0.885275
1228.42	1.82726
1230.95	2
1233.48	2
1236.01	0.332967
1238.54	-0.146624
1241.07	-3.49161
1243.6	-4.12053
1246.13	-2.04569
1248.66	-0.8
1251.19	-0.611463
1253.72	0.602019
1256.25	4.28534
1258.78	1.58034
1261.31	3.42171
1263.84	2.75744
1266.37	2.01171
1268.9	1.46985
1271.43	2.46985
1273.96	2.57304
1276.49	1.87482
1279.02	6.64025
1281.55	3.78626
1284.08	3.60528
1286.61	3.95126
1289.14	2.58974
1291.67	4.95473
1294.2	6.43776
1296.73	7.10027
1299.26	7.19362
1301.79	6.66262
1304.32	5.70045
1306.85	2.10383
1309.375	4.15224
1311.9	2.8814
1314.43	6.70698
1316.96	8.76357
1319.49	10.5322
1322.02	11.43
1324.55	13.7294
1327.08	14.2706
1329.61	12.4462
1332.14	13.6789
1334.67	10.2911
1337.2	5.55872
1339.73	15.5754
1342.26	21.3251
1344.79	21.1285
1347.32	20.8
1349.85	22.0948
1352.38	21.0967
1354.91	22.342
1357.44	23.9971
1359.97	20.6348
1362.5	27.4289
1365.03	21.779
1367.56	18.6728
1370.09	19.8502
1372.62	19.0314
1375.15	20.3874
1377.68	18.7083
1380.21	17.1793
1382.74	18.5874
1385.27	17.9515
1387.8	14.1195
1390.33	13.8416
1392.86	11.3266
1395.39	8.52649
1397.92	14.7646
1400.45	11.4703
1402.98	13.4007
1405.51	10.9827
1408.04	8.52714
1410.57	9.13175
1413.1	7.07249
1415.625	4.0714
1418.15	5.73575
1420.68	8.81934
1423.21	10.5618
1425.74	1.60147
1428.27	4.17734
1430.8	6.20801
1433.33	5.39937
1435.86	4.44476
1438.39	4.33538
1440.92	6.91496
1443.45	6.8286
1445.98	5.99823
1448.51	7.36616
1451.04	8.23131
1453.57	7.52554
1456.1	2.8
1458.63	3.12238
1461.16	8.1124
1463.69	0.571765
1466.22	3.46652
1468.75	4.35166
1471.28	3.44318
1473.81	2.87823
1476.34	2.15812
1478.87	2.24563
1481.4	0.598243
1483.93	-2.00647
1486.46	1.71011
1488.99	3.58278
1491.52	-3.93772
1494.05	0.356945
1496.58	-1.31427
1499.11	0.184948
1501.64	2.34277
1504.17	2.35703
1506.7	-0.470709
1509.23	-0.247524
1511.76	0.0623108
1514.29	0.680435
1516.82	1.73477
1519.35	1.12728
1521.875	0.751588
1524.4	-0.838323
1526.93	0.146986
1529.46	-4.902
1531.99	-2.8524
1534.52	-0.800737
1537.05	-3.46139
1539.58	-2.76051
1542.11	1.28187
1544.64	2.15828
1547.17	1.4546
1549.7	1.09803
1552.23	1
1554.76	0.0902606
1557.29	0.107555
1559.82	4.09822
1562.35	6.68112
1564.88	7.99872
1567.41	2.4301
1569.94	6.17569
1572.47	5.08327
1575	5.69403
1577.53	8.05481
1580.06	6.81696
1582.59	6.2
1585.12	6.81916
1587.65	8.31545
1590.18	8.10736
1592.71	7.52304
1595.24	10.1514
1597.77	13.7151
1600.3	13.5841
1602.83	10.4182
1605.36	7.55296
1607.89	9.75386
1610.42	9.22564
1612.95	10.5432
1615.48	11.1408
1618.01	10.5251
1620.54	11.0286
1623.07	10.9087
1625.6	6.77129
1628.125	5.29186
1630.65	4.25965
1633.18	4.10374
1635.71	3.30536
1638.24	0.184837
1640.77	-0.595533
1643.3	0.215332
1645.83	-1.75488
1648.36	-1.46306
1650.89	-0.963839
1653.42	-2.01041
1655.95	0.767305
1658.48	-2.45373
1661.01	-1.33439
1663.54	-4.26468
1666.07	-7.67595
1668.6	-7.20528
1671.13	-5.8266
1673.66	-9.64966
1676.19	-9.27418
1678.72	-10.001
1681.25	-9.93939
1683.78	-8.12915
1686.31	-6.61038
1688.84	-4.42931
1691.37	-6.62478
1693.9	-6.73492
1696.43	-8.24463
1698.96	-7.24978
1701.49	-5.49241
1704.02	-7.97064
1706.55	-3.60863
1709.08	-6.84655
1711.61	-10.8141
1714.14	-11.0277
1716.67	-7.25143
1719.2	-8.55289
1721.73	-9.92326
1724.26	-9.65764
1726.79	-10.9189
1729.32	-8.74184
1731.85	-9.10065
1734.375	-9.10385
1736.9	-7.90968
1739.43	-10.1514
1741.96	-11.285
1744.49	-10.8549
1747.02	-10.1043
1749.55	-6.32826
1752.08	-8
1754.61	-8.37427
1757.14	-10.6286
1759.67	-12.1813
1762.2	-9.51464
1764.73	-12.9701
1767.26	-12.8098
1769.79	-9.33828
1772.32	-8.47703
1774.85	-10.8961
1777.38	-7.43673
1779.91	-7.90814
1782.44	-9.25854
1784.97	-7.02594
1787.5	-5.92787
1790.03	-6.84258
1792.56	-8.07735
1795.09	-8.38902
1797.62	-9.47655
1800.15	-9.80009
1802.68	-10.8587
1805.21	-11.3976
1807.74	-8.3804
1810.27	-10.0389
1812.8	-9.631
1815.33	-12.0911
1817.86	-12.3747
1820.39	-9.33717
1822.92	-6.5648
1825.45	-9.09968
1827.98	-11.4224
1830.51	-9.28269
1833.04	-11.1822
1835.57	-9.24649
1838.1	-10.3339
1840.625	-10.7654
1843.15	-8.15354
1845.68	-4.56332
1848.21	-9.58397
1850.74	-11.2745
1853.27	-9.27013
1855.8	-7.57683
1858.33	-11.9721
1860.86	-9.29076
1863.39	-9.57527
1865.92	-11.7387
1868.45	-12.2
1870.98	-10.7446
1873.51	-9.49355
1876.04	-9.90477
1878.57	-11.3558
1881.1	-11.1354
1883.63	-8.91939
1886.16	-7.28124
1888.69	-7.69462
1891.22	-9.78223
1893.75	-10.7461
1896.28	-13.3847
1898.81	-10.3974
1901.34	-8.85
1903.87	-9.4527
1906.4	-11.3654
1908.93	-12.2965
1911.46	-8.99831
1913.99	-4.48476
1916.52	-10.021
1919.05	-8.762
1921.58	-10.4958
1924.11	-11.555
1926.64	-6.70444
1929.17	-10.5979
1931.7	-10.206
1934.23	-6.33801
1936.76	-10.5502
1939.29	-11.1705
1941.82	-11.3814
1944.35	-11.7552
1946.875	-9.36418
1949.4	-9.34066
1951.93	-11.4007
1954.46	-6.9017
1956.99	-11.8728
1959.52	-11.6799
1962.05	-12.5779
1964.58	-11.0524
1967.11	-9.96003
1969.64	-7.79105
1972.17	-8.82585
1974.7	-12.075
1977.23	-13.2
1979.76	-12.5418
1982.29	-12.7152
1984.82	-13.3781
1987.35	-10.022
1989.88	-7.8
1992.41	-8.15476
1994.94	-8.05288
1997.47	-9.61175
2000	-10.2239
2002.53	-8.73135
2005.06	-9.16982
2007.59	-12.4918
2010.12	-11.7425
2012.65	-11.5
2015.18	-12.236
2017.71	-10.9764
2020.24	-10.4698
2022.77	-11.509
2025.3	-13.656
2027.83	-11.4863
2030.36	-9.7748
2032.89	-11.459
2035.42	-11.7127
2037.95	-9.89789
2040.48	-10.1105
2043.01	-10.6847
2045.54	-12.3627
2048.07	-10.8311
2050.6	-9.35983
2053.125	-10.1155
2055.65	-10.5768
2058.18	-9.42774
2060.71	-8.66882
2063.24	-10.8479
2065.77	-9.15484
2068.3	-10.9116
2070.83	-13.4756
2073.36	-10.488
2075.89	-10.41
2078.42	-10.5735
2080.95	-11.6033
2083.48	-10.8367
2086.01	-10.825
2088.54	-9.42414
2091.07	-6.96859
2093.6	-10.3291
2096.13	-11.1357
2098.66	-10.1551
2101.19	-8.33537
2103.72	-5.89909
2106.25	-7.18813
2108.78	-9.7691
2111.31	-10.5543
2113.84	-11.5706
2116.37	-10.8905
2118.9	-11.2728
2121.43	-10.6003
2123.96	-9.89588
2126.49	-7.30019
2129.02	-9.65238
2131.55	-10.2633
2134.08	-10.767
2136.61	-8.79519
2139.14	-6.35911
2141.67	-7.07543
2144.2	-9.44268
2146.73	-10.4926
2149.26	-10.7248
2151.79	-9.85252
2154.32	-10.3083
2156.85	-11.6065
2159.375	-9.25103
2161.9	-8.00552
2164.43	-8.64372
2166.96	-7.12425
2169.49	-8.82
2172.02	-9.20062
2174.55	-9.38299
2177.08	-9.37394
2179.61	-9.28105
2182.14	-9.08739
2184.67	-10.1323
2187.2	-9.29482
2189.73	-7.80073
2192.26	-8.47815
2194.79	-8.03732
2197.32	-6.38339
2199.85	-8.03983
2202.38	-9.49148
2204.91	-8.1811
2207.44	-9.01359
2209.97	-9.06526
2212.5	-6.82747
2215.03	-5.66185
2217.56	-6.78696
2220.09	-7.35172
2222.62	-6.82952
2225.15	-4.93521
2227.68	-6.37919
2230.21	-8.07887
2232.74	-9.2561
2235.27	-9.25323
2237.8	-6.38833
2240.33	-10.718
2242.86	-5.49593
2245.39	-8.49262
2247.92	-8.28286
2250.45	-8.20043
2252.98	-7.56549
2255.51	-7.62765
2258.04	-8.10155
2260.57	-5.6496
2263.1	-7.73475
2265.625	-6.84385
2268.15	-8.06928
2270.68	-8.53481
2273.21	-8.22046
2275.74	-5.77781
2278.27	-5.05408
2280.8	-6.18529
2283.33	-5.97606
2285.86	-5.46997
2288.39	-8.06554
2290.92	-7.40137
2293.45	-5.90558
2295.98	-6.19141
2298.51	-7.08952
2301.04	-9.0043
2303.57	-8.91855
2306.1	-8.21112
2308.63	-8.50254
2311.16	-7.1374
2313.69	-6.75796
2316.22	-8.29547
2318.75	-7.29913
2321.28	-5.33724
2323.81	-5.85959
2326.34	-8.66265
2328.87	-5.1381
2331.4	-5.50364
2333.93	-4.58269
2336.46	-0.743429
2338.99	-3.53816
2341.52	-4.65718
2344.05	-8.24128
2346.58	-7.45505
2349.11	-6.76774
2351.64	-7.51704
2354.17	-5.95614
2356.7	-9.07112
2359.23	-7.8487
2361.76	-6.87704
2364.29	-9.48869
2366.82	-7.67875
2369.35	-6.2049
2371.875	-6.5799
2374.4	-5.5504
2376.93	-4.88695
2379.46	-4.31377
2381.99	-5.82257
2384.52	-6.95158
2387.05	-5.0827
2389.58	-4.34017
2392.11	-6.63525
2394.64	-4.64392
2397.17	-2.19873
2399.7	-1.21731
2402.23	-1.81248
2404.76	-5.1738
2407.29	-5.9115
2409.82	-2.76535
2412.35	-4.66814
2414.88	-5.00849
2417.41	-0.760137
2419.94	3.17882
2422.47	2.03142
2425	1.58395
2427.53	2.92882
2430.06	4.58503
2432.59	8.70926
2435.12	11.1409
2437.65	14.3079
2440.18	16.329
2442.71	12.9593
2445.24	12.405
2447.77	8.21686
2450.3	8.91274
2452.83	6.37612
2455.36	5.2882
2457.89	4.02367
2460.42	4.02102
2462.95	-0.167231
2465.48	1.41846
2468.01	2.0453
2470.54	-0.4581
2473.07	-0.975297
2475.6	-1.14047
2478.125	-2.3257
2480.65	-2.57605
2483.18	2.84416
2485.71	2.82306
2488.24	0.588383
2490.77	-0.728365
2493.3	1.79272
2495.83	0.358573
2498.36	-0.493122
2500.89	-0.95989
2503.42	-1.88324
2505.95	1.09311
2508.48	-1.57093
2511.01	-4.48416
2513.54	-0.207481
2516.07	-0.147698
2518.6	-2.4669
2521.13	-1.45951
2523.66	1.96119
2526.19	-0.0319612
2528.72	1.92558
2531.25	0.714108
2533.78	-0.0323223
2536.31	-1.69064
2538.84	0.514434
2541.37	1.00619
2543.9	-1.06553
2546.43	-0.215332
2548.96	-0.0674746
2551.49	-0.834349
2554.02	-0.218229
2556.55	2.02976
2559.08	0.141754
2561.61	-2.15448
2564.14	-1.42841
2566.67	-1.96458
2569.2	-1.5707
2571.73	-0.707079
2574.26	0.465213
2576.79	-1.04312
2579.32	-3.44483
2581.85	-0.298501
2584.375	-3.24614
2586.9	-1.89189
2589.43	-0.460801
2591.96	-0.920553
2594.49	0.863005
2597.02	-0.0692962
2599.55	-0.00249171
2602.08	-1.15612
2604.61	-1.22441
2607.14	-0.490483
2609.67	-0.14086
2612.2	-0.056903
2614.73	-1.56123
2617.26	-0.825908
2619.79	0.139702
2622.32	-0.407108
2624.85	0.443252
2627.38	-1.10456
2629.91	-1.92179
2632.44	1.07781
2634.97	-2.0155
2637.5	2.38261
2640.03	0.139135
2642.56	-0.809499
2645.09	-0.444692
2647.62	-2.4369
2650.15	0.476049
2652.68	0.714117
2655.21	-0.257279
2657.74	2.23743
2660.27	0.322326
2662.8	1.83685
2665.33	4.85185
2667.86	-1.16826
2670.39	0.782916
2672.92	-0.427882
2675.45	0.598717
2677.98	0.155735
2680.51	-0.0735276
2683.04	1.62272
2685.57	1.70245
2688.1	0.62124
2690.625	-1.11925
2693.15	0.458877
2695.68	3.75555
2698.21	0.637172
2700.74	3.62991
2703.27	3.46955
2705.8	2.68332
2708.33	1.81227
2710.86	0.490575
2713.39	3.24716
2715.92	2.99381
2718.45	2.07015
2720.98	2.21525
2723.51	2.93157
2726.04	2.2016
2728.57	3.76407
2731.1	3.66821
2733.63	2.89045
2736.16	2.68959
2738.69	2.18412
2741.22	4.45349
2743.75	1.50043
2746.28	0.6868
2748.81	0.776404
2751.34	1.69259
2753.87	1.01057
2756.4	2.32936
2758.93	3.32351
2761.46	2.07456
2763.99	4.2953
2766.52	-0.354947
2769.05	2.60911
2771.58	5.18691
2774.11	2.53417
2776.64	1.41339
2779.17	2.57054
2781.7	4.10209
2784.23	2.42963
2786.76	-0.0199633
2789.29	4.26606
2791.82	5.40317
2794.35	0.162786
2796.875	0.505887
2799.4	2.10198
2801.93	2.30216
2804.46	2.45292
2806.99	2.69063
2809.52	3.60116
2812.05	1.94391
2814.58	4.02701
2817.11	4.90549
2819.64	5.40486
2822.17	3.93096
2824.7	4.85474
2827.23	2.62513
2829.76	1.70326
2832.29	1.68792
2834.82	2.01896
2837.35	1.19529
2839.88	3.36675
2842.41	4.07001
2844.94	4.18474
2847.47	6.50476
2850	5.48676
2852.53	4.61531
2855.06	2.54196
2857.59	3.48817
2860.12	2.02367
2862.65	2.55309
2865.18	2.44629
2867.71	3.10421
2870.24	4.61454
2872.77	4.02188
2875.3	3.41203
2877.83	3.31015
2880.36	5.9462
2882.89	6.68745
2885.42	5.06322
2887.95	4.95149
2890.48	3.41141
2893.01	3.48823
2895.54	4.14978
2898.07	8.07165
2900.6	7.18126
2903.125	4.73452
2905.65	5.36901
2908.18	5.93971
2910.71	5.57908
2913.24	8.31889
2915.77	6.45253
2918.3	8.04844
2920.83	5.0349
2923.36	7.05511
2925.89	3.53966
2928.42	6.14725
2930.95	6.70132
2933.48	6.62807
2936.01	6.03027
2938.54	8.14718
2941.07	5.24791
2943.6	8.04916
2946.13	9.39633
2948.66	3.90985
2951.19	5.47981
2953.72	9.33414
2956.25	7.43986
2958.78	6.46139
2961.31	9.84852
2963.84	6.94594
2966.37	4.54419
2968.9	3.35068
2971.43	5.8835
2973.96	4.48471
2976.49	1.28327
2979.02	4.5014
2981.55	6.37316
2984.08	1.09565
2986.61	3.60095
2989.14	1.38271
2991.67	0.130328
2994.2	0.314168
2996.73	1.94231
2999.26	2.44964
3001.79	4.27341
3004.32	2.77096
3006.85	2.75953
3009.375	-0.17736
3011.9	0.891573
3014.43	2.97596
3016.96	2.20661
3019.49	1.37936
3022.02	4.61422
3024.55	5.24695
3027.08	6.6644
3029.61	0.802269
3032.14	-0.182626
3034.67	2.08827
3037.2	5.9908
3039.73	1.22134
3042.26	3.39428
3044.79	2.46571
3047.32	1.33342
3049.85	1.92434
3052.38	4.48229
3054.91	6.36847
3057.44	2.3676
3059.97	0.230986
3062.5	2.34792
3065.03	1.45453
3067.56	7.03745
3070.09	1.41718
3072.62	1.74424
3075.15	0.0358744
3077.68	4.04077
3080.21	3.38661
3082.74	3.70025
3085.27	2.53827
3087.8	3.06561
3090.33	0.588646
3092.86	3.67886
3095.39	3.6409
3097.92	2.21067
3100.45	1.79484
3102.98	1.10886
3105.51	5.22303
3108.04	1.11545
3110.57	2.74673
3113.1	2.79521
3115.625	3.33508
3118.15	1.37596
3120.68	1.87321
3123.21	-1.62368
3125.74	0.230292
3128.27	3.80612
3130.8	0.152767
3133.33	1.8796
3135.86	1.88213
3138.39	4.62777
3140.92	4.20837
3143.45	4.22445
3145.98	3.53986
3148.51	2.29542
3151.04	3.57377
3153.57	2.79212
3156.1	4.00338
3158.63	7.47446
3161.16	1.27295
3163.69	0.807579
3166.22	2.41047
3168.75	2.95031
3171.28	0.108982
3173.81	1.63966
3176.34	4.22643
3178.87	2.22198
3181.4	5.87779
3183.93	3.31468
3186.46	3.48437
3188.99	6.2088
3191.52	5.15806
3194.05	3.48863
3196.58	2.41447
3199.11	2.35256
3201.64	5.14702
3204.17	2.10429
3206.7	4.00637
3209.23	3.54854
3211.76	4.85941
3214.29	4.77844
3216.82	4.80532
3219.35	5.27568
3221.875	4.88801
3224.4	3.21168
3226.93	4.49938
3229.46	5.52563
3231.99	4.36177
3234.52	2.57556
3237.05	4.28944
3239.58	3.41004
3242.11	6.78535
3244.64	6.38149
3247.17	4.96095
3249.7	3.74476
3252.23	6.40791
3254.76	8.13498
3257.29	7.26608
3259.82	6.84959
3262.35	-0.758298
3264.88	4.30076
3267.41	3.43281
3269.94	3.38106
3272.47	3.76693
3275	4.14673
3277.53	5.12279
3280.06	0.987556
3282.59	2.50938
3285.12	0.414526
3287.65	2.54616
3290.18	3.72395
3292.71	5.39213
3295.24	2.04156
3297.77	2.72649
3300.3	2.98967
3302.83	3.92395
3305.36	3.57849
3307.89	6.66734
3310.42	4.02217
3312.95	6.97577
3315.48	4.64708
3318.01	1.28091
3320.54	4.34908
3323.07	3.32286
3325.6	5.97594
3328.125	1.33836
3330.65	1.52181
3333.18	4.23149
3335.71	5.00473
3338.24	5.70226
3340.77	5.38083
3343.3	7.39605
3345.83	3.58844
3348.36	2.79985
3350.89	3.24739
3353.42	4.96847
3355.95	7.26206
3358.48	4.56796
3361.01	5.11672
3363.54	2.34099
3366.07	1.65208
3368.6	8.14297
3371.13	4.39144
3373.66	4.38615
3376.19	3.54994
3378.72	6.36758
3381.25	5.08498
3383.78	7.9994
3386.31	9.87889
3388.84	4.36674
3391.37	5.70669
3393.9	3.05979
3396.43	1.0701
3398.96	4.51437
3401.49	6.72239
3404.02	5.63444
3406.55	1.7975
3409.08	5.14343
3411.61	0.736512
3414.14	4.30585
3416.67	7.87302
3419.2	7.05984
3421.73	8.43852
3424.26	4.44415
3426.79	6.88983
3429.32	9.59886
3431.85	8.76536
3434.375	10.9884
3436.9	11.177
3439.43	6.15255
3441.96	4.86755
3444.49	7.37596
3447.02	5.72003
3449.55	6.49657
3452.08	4.26304
3454.61	8.34651
3457.14	6.42578
3459.67	7.91798
3462.2	3.82323
3464.73	5.81433
3467.26	6.63902
3469.79	5.74618
3472.32	5.74414
3474.85	10.2646
3477.38	5.87721
3479.91	3.72474
3482.44	5.50214
3484.97	4.71773
3487.5	8.62255
3490.03	5.83649
3492.56	7.02555
3495.09	5.21334
3497.62	4.83883
3500.15	4.45707
3502.68	8.76725
3505.21	7.26284
3507.74	3.17596
3510.27	7.81577
3512.8	7.83931
3515.33	7.83283
3517.86	8.37691
3520.39	5.94332
3522.92	7.27041
3525.45	8.03282
3527.98	8.00334
3530.51	4.63155
3533.04	2.19956
3535.57	4.3428
3538.1	5.22336
3540.625	5.35849
3543.15	4.8824
3545.68	6.87694
3548.21	6.74547
3550.74	5.39292
3553.27	5.83135
3555.8	4.03968
3558.33	7.53931
3560.86	7.27547
3563.39	5.99988
3565.92	5.15876
3568.45	9.12833
3570.98	7.12666
3573.51	4.93301
3576.04	5.62162
3578.57	8.48481
3581.1	8.26416
3583.63	5.62737
3586.16	9.72855
3588.69	6.71056
3591.22	6.21311
3593.75	7.18515
3596.28	7.72136
3598.81	4.9476
3601.34	6.96205
3603.87	7.86281
3606.4	7.39699
3608.93	9.9016
3611.46	8.21055
3613.99	9.62381
3616.52	8.78976
3619.05	4.09428
3621.58	9.29801
3624.11	7.17143
3626.64	6.38819
3629.17	10.0623
3631.7	7.29057
3634.23	11.976
3636.76	10.43
3639.29	8.39309
3641.82	9.935
3644.35	8.43339
3646.875	6.13625
3649.4	7.94073
3651.93	3.53858
3654.46	10.4993
3656.99	10.1045
3659.52	8.49341
3662.05	7.87034
3664.58	8.38591
3667.11	7.89972
3669.64	8.34193
3672.17	6.362
3674.7	9.9239
3677.23	5.67989
3679.76	9.15916
3682.29	9.03883
3684.82	8.08513
3687.35	5.93293
3689.88	13.5269
3692.41	7.246
3694.94	7.37521
3697.47	9.79984
3700	8.65991