File: Example Data/Raman/Kara/12-20-10/Si-Graphene/6bulk/SGbulk_6.txt
300	161.652
302.53	180.323
305.06	202.881
307.589	222.565
310.119	226.766
312.649	212.856
315.179	209.166
317.708	212.139
320.238	210.627
322.768	200.597
325.298	203.098
327.827	217.098
330.357	221.256
332.887	210.205
335.417	218.467
337.946	213.512
340.476	203.296
343.006	197.918
345.536	197.407
348.065	191.342
350.595	189.07
353.125	187.956
355.655	190.515
358.185	192.715
360.714	188.558
363.244	182.058
365.774	183.175
368.304	184.933
370.833	182.618
373.363	176.142
375.893	175.817
378.423	163.128
380.952	162.804
383.482	166.724
386.012	167.965
388.542	163.966
391.071	157.772
393.601	158.318
396.131	158.342
398.661	156.815
401.19	155.79
403.72	158.73
406.25	161.965
408.78	163.558
411.31	163.1
413.839	161.562
416.369	161.347
418.899	156.933
421.429	165.42
423.958	168.561
426.488	167.664
429.018	172.002
431.548	176.913
434.077	174.153
436.607	175.564
439.137	174.283
441.667	170.215
444.196	176.14
446.726	183.031
449.256	172.561
451.786	166.4
454.315	166.101
456.845	165.833
459.375	168.79
461.905	175.414
464.435	177.634
466.964	175.354
469.494	181.185
472.024	212.673
474.554	213.825
477.083	221.82
479.613	235.943
482.143	250.148
484.673	264.818
487.202	296.13
489.732	324.838
492.262	346.343
494.792	384.368
497.321	432.892
499.851	476.331
502.381	530.806
504.911	621.094
507.44	753.529
509.97	971.888
512.5	1343.6
515.03	1982.33
517.56	3308.38
520.089	5474.7
522.619	6760.87
525.149	6255.5
527.679	4263.53
530.208	2406.9
532.738	1395.89
535.268	873.173
537.798	585.73
540.327	427.278
542.857	337.199
545.387	267.331
547.917	220.546
550.446	185.676
552.976	159.853
555.506	142.348
558.036	129.584
560.565	110.146
563.095	100.593
565.625	85.996
568.155	81.1573
570.685	78.8391
573.214	69.5137
575.744	66.8494
578.274	61.8955
580.804	58.5898
583.333	53.7282
585.863	52.3332
588.393	57.3488
590.923	54.8469
593.452	56.927
595.982	58.9658
598.512	57.8516
601.042	57.9897
603.571	62.4743
606.101	61.806
608.631	60.9718
611.161	67.0417
613.69	72.4989
616.22	78.6274
618.75	84.684
621.28	77.4127
623.81	78.5845
626.339	73.8801
628.869	69.7251
631.399	65.704
633.929	61.6788
636.458	61.9295
638.988	60.2527
641.518	61.7096
644.048	59.4234
646.577	57.6245
649.107	60.0698
651.637	64.6398
654.167	60.2699
656.696	58.1505
659.226	60.9043
661.756	61.9944
664.286	61.5403
666.815	64.7807
669.345	66.1266
671.875	58.562
674.405	56.4725
676.935	55.4402
679.464	55.7535
681.994	57.1801
684.524	49.9629
687.054	45.9145
689.583	49.644
692.113	47.7259
694.643	41.8028
697.173	38.8649
699.702	42.538
702.232	34.6018
704.762	39.4221
707.292	38.0537
709.821	36.8105
712.351	37.9774
714.881	37.663
717.411	33.2626
719.94	37.5364
722.47	32.275
725	32.2486
727.53	35.3246
730.06	34.9567
732.589	31.0426
735.119	36.4692
737.649	31.9494
740.179	38.2546
742.708	39.5943
745.238	34.9644
747.768	34.3845
750.298	36.4153
752.827	37.7746
755.357	41.2613
757.887	42.4882
760.417	39.6166
762.946	37.419
765.476	42.6885
768.006	43.3693
770.536	46.489
773.065	47.0671
775.595	48.3419
778.125	48.2741
780.655	45.4698
783.185	43.7614
785.714	45.6373
788.244	54.0572
790.774	50.3273
793.304	46.3138
795.833	46.9555
798.363	51.0998
800.893	59.0679
803.423	60.264
805.952	61.915
808.482	59.0912
811.012	56.9064
813.542	57.5767
816.071	59.0563
818.601	58.4496
821.131	59.6489
823.661	60.5484
826.19	62.9793
828.72	62.9204
831.25	62.3505
833.78	64.4807
836.31	62.6385
838.839	53.8896
841.369	58.3623
843.899	57.6361
846.429	55.7185
848.958	54.3501
851.488	53.5506
854.018	59.523
856.548	61.7591
859.077	59.3919
861.607	63.2428
864.137	60.5329
866.667	56.4059
869.196	59.5262
871.726	59.9139
874.256	58.8799
876.786	60.3908
879.315	61.5891
881.845	57.5279
884.375	58.681
886.905	66.365
889.435	64.0392
891.964	65.9387
894.494	66.6686
897.024	68.8991
899.554	68.8979
902.083	69.142
904.613	70.7516
907.143	71.8217
909.673	73.0328
912.202	74.2443
914.732	79.8317
917.262	91.5306
919.792	103.542
922.321	116.726
924.851	135.562
927.381	159.969
929.911	185.461
932.44	189.758
934.97	213.715
937.5	224.869
940.03	232.73
942.56	244.723
945.089	249.898
947.619	250.203
950.149	244.989
952.679	249.956
955.208	238.122
957.738	233.568
960.268	237.393
962.798	238.04
965.327	235.077
967.857	234.205
970.387	232.814
972.917	243.229
975.446	233.219
977.976	215.244
980.506	202.635
983.036	193.464
985.565	177.955
988.095	165.38
990.625	132.466
993.155	121.264
995.685	106.949
998.214	95.7873
1000.74	89.0979
1003.27	81.9201
1005.8	79.3241
1008.33	71.0962
1010.86	63.2035
1013.39	53.5879
1015.92	50.6386
1018.45	48.9083
1020.98	42.9559
1023.51	33.7636
1026.04	26.7587
1028.57	26.4078
1031.1	26.0565
1033.63	22.7588
1036.16	18.8953
1038.69	14.6363
1041.22	15.1976
1043.75	17.7885
1046.28	9.55609
1048.81	10.6019
1051.34	10.7779
1053.87	10.3384
1056.4	7.08049
1058.93	5.29391
1061.46	4.29522
1063.99	3.7019
1066.52	5.60837
1069.05	6.66657
1071.58	7.72447
1074.11	4.35849
1076.64	2.47666
1079.17	2.35077
1081.7	1.85203
1084.23	0.7193
1086.76	-0.409368
1089.29	-1.71694
1091.82	3.39727
1094.35	2.15911
1096.875	2.92527
1099.4	3.72445
1101.93	2.05422
1104.46	1.76294
1106.99	3.47536
1109.52	2.40981
1112.05	-0.615815
1114.58	1.33431
1117.11	4.656
1119.64	2.07598
1122.17	1.1262
1124.7	-0.562865
1127.23	-1.7938
1129.76	-1.14117
1132.29	-1.03648
1134.82	-1.38417
1137.35	-3.69486
1139.88	-0.743094
1142.41	-0.6431
1144.94	-2.55839
1147.47	-2.66805
1150	-2.4524
1152.53	-2.44578
1155.06	-0.502651
1157.59	-1.59224
1160.12	0.724437
1162.65	-6.10254
1165.18	-4.48403
1167.71	-6.18668
1170.24	-5.01304
1172.77	-3.92123
1175.3	-5.14079
1177.83	-4.99136
1180.36	-6.20016
1182.89	-4.61297
1185.42	-7.29553
1187.95	-5.38114
1190.48	-5.48702
1193.01	-4.17158
1195.54	-4.71542
1198.07	-5.78168
1200.6	-5.14948
1203.125	-6.70938
1205.65	-4.04605
1208.18	-1.71511
1210.71	-3.64596
1213.24	-2.05133
1215.77	-5.66863
1218.3	-4.6276
1220.83	-4.71328
1223.36	-6.4992
1225.89	-2.60982
1228.42	-2.21808
1230.95	-3.65618
1233.48	-5.09472
1236.01	-5.70011
1238.54	-0.668161
1241.07	-1.8384
1243.6	-2.42715
1246.13	-0.792715
1248.66	-1.00438
1251.19	-2.90573
1253.72	-2.43581
1256.25	-1.29299
1258.78	1.23168
1261.31	-1.63257
1263.84	-0.114887
1266.37	-0.30602
1268.9	-2.12059
1271.43	-0.841706
1273.96	0.787081
1276.49	-0.358433
1279.02	2.43537
1281.55	1.61374
1284.08	1.79472
1286.61	3.90757
1289.14	6.86383
1291.67	3.19243
1294.2	4.64756
1296.73	6.89995
1299.26	6.31234
1301.79	5.9757
1304.32	6.93195
1306.85	6.53915
1309.375	0.804671
1311.9	6.25115
1314.43	5.41092
1316.96	3.98794
1319.49	7.72974
1322.02	9.91498
1324.55	8.74171
1327.08	10.2299
1329.61	12.7262
1332.14	8.56967
1334.67	10.08
1337.2	16.2239
1339.73	11.3066
1342.26	13.3917
1344.79	14.8715
1347.32	16.2829
1349.85	17.624
1352.38	21.0048
1354.91	20.7407
1357.44	18.6163
1359.97	22.4839
1362.5	19.7752
1365.03	17.478
1367.56	18.5743
1370.09	20.386
1372.62	19.3085
1375.15	16.1139
1377.68	19.4561
1380.21	17.5863
1382.74	12.8795
1385.27	12.0591
1387.8	14.1738
1390.33	15.7678
1392.86	9.9578
1395.39	11.0768
1397.92	12.5446
1400.45	12.0706
1402.98	6.87857
1405.51	8.47362
1408.04	10.3637
1410.57	7.69258
1413.1	6.2425
1415.625	7.6357
1418.15	6.06611
1420.68	2.91201
1423.21	6.3573
1425.74	4.94244
1428.27	4.20647
1430.8	10.224
1433.33	4.62948
1435.86	2.34266
1438.39	0.646222
1440.92	0.958082
1443.45	4.51759
1445.98	2.23326
1448.51	-2.68182
1451.04	-0.342172
1453.57	0.394747
1456.1	2.05624
1458.63	-1.20896
1461.16	1.74809
1463.69	2.5265
1466.22	4.76658
1468.75	-1.01803
1471.28	-1.63311
1473.81	-0.391138
1476.34	-0.427923
1478.87	1.04466
1481.4	1.10815
1483.93	-2.01155
1486.46	-1.84133
1488.99	-3.10538
1491.52	-5.31107
1494.05	-2.51867
1496.58	0.638072
1499.11	-0.961053
1501.64	-5.73314
1504.17	-4.28986
1506.7	-3.80061
1509.23	-4.71653
1511.76	-6.04307
1514.29	-5.70248
1516.82	-0.988339
1519.35	1.59994
1521.875	-3.65183
1524.4	-1.79785
1526.93	-3.64504
1529.46	-4.00891
1531.99	-4.19524
1534.52	-0.746727
1537.05	-2.75644
1539.58	-4.43949
1542.11	-2.67584
1544.64	-3.21179
1547.17	-1.4671
1549.7	-0.313791
1552.23	-0.73341
1554.76	0.433928
1557.29	0.794963
1559.82	-1.25038
1562.35	0.162251
1564.88	3.98722
1567.41	1.17257
1569.94	3.98176
1572.47	-1.39754
1575	3.05822
1577.53	1.86731
1580.06	0.95424
1582.59	6.92631
1585.12	6.70422
1587.65	3.68455
1590.18	5.28328
1592.71	7.71283
1595.24	8.5757
1597.77	10.7672
1600.3	11.0312
1602.83	7.65277
1605.36	6.16023
1607.89	10.6924
1610.42	7.00733
1612.95	7.38376
1615.48	3.9748
1618.01	4.78112
1620.54	6.2571
1623.07	0.336101
1625.6	4.8488
1628.125	6.1096
1630.65	3.90643
1633.18	1.69377
1635.71	1.00273
1638.24	0.0477633
1640.77	-3.20112
1643.3	-3.88024
1645.83	-3.60742
1648.36	-0.918957
1650.89	-4.49362
1653.42	-5.23792
1655.95	-5.85
1658.48	-10.7763
1661.01	-12.6272
1663.54	-8.03272
1666.07	-6.88045
1668.6	-9.78681
1671.13	-12.6077
1673.66	-12.8849
1676.19	-11.5334
1678.72	-7.9822
1681.25	-7.27088
1683.78	-9.79373
1686.31	-11.582
1688.84	-13.2098
1691.37	-12.6567
1693.9	-10.8102
1696.43	-14.3066
1698.96	-10.6292
1701.49	-10.7805
1704.02	-10.7496
1706.55	-13.6086
1709.08	-16.8466
1711.61	-12.641
1714.14	-8.06409
1716.67	-9.35577
1719.2	-10.2613
1721.73	-10.2553
1724.26	-11.4203
1726.79	-12.7595
1729.32	-13.4352
1731.85	-13.4913
1734.375	-12.0026
1736.9	-10.7819
1739.43	-8.77953
1741.96	-8.61617
1744.49	-12.9551
1747.02	-11.1435
1749.55	-11.048
1752.08	-11.1604
1754.61	-10.9376
1757.14	-10.7372
1759.67	-11.8437
1762.2	-12.3873
1764.73	-12.0033
1767.26	-10.2878
1769.79	-10.0178
1772.32	-9.12838
1774.85	-8.83359
1777.38	-7.05616
1779.91	-11.5769
1782.44	-12.3415
1784.97	-12
1787.5	-11.1049
1790.03	-11.0815
1792.56	-11.9645
1795.09	-12.4
1797.62	-12.3018
1800.15	-12.6545
1802.68	-13.3673
1805.21	-12.605
1807.74	-11.8332
1810.27	-12.5896
1812.8	-11.6864
1815.33	-13.2237
1817.86	-11.4253
1820.39	-13.3465
1822.92	-11.9296
1825.45	-15.7792
1827.98	-10.3484
1830.51	-7.54729
1833.04	-15.5787
1835.57	-13.2558
1838.1	-14.7119
1840.625	-14.0693
1843.15	-11.53
1845.68	-13.9256
1848.21	-12.9219
1850.74	-10.7022
1853.27	-9.2872
1855.8	-10.3155
1858.33	-13.3264
1860.86	-13.7273
1863.39	-9.5371
1865.92	-8.87737
1868.45	-10.27
1870.98	-12.5032
1873.51	-14
1876.04	-10.7695
1878.57	-10.8496
1881.1	-13.0451
1883.63	-11.4851
1886.16	-10.9611
1888.69	-10.3737
1891.22	-10.2341
1893.75	-9.31735
1896.28	-10.8181
1898.81	-12.0739
1901.34	-13.25
1903.87	-14.7358
1906.4	-14.8752
1908.93	-13.7798
1911.46	-14.2244
1913.99	-12.2536
1916.52	-12.2868
1919.05	-9.998
1921.58	-12.0137
1924.11	-12.1529
1926.64	-11.2
1929.17	-11.2086
1931.7	-12.7759
1934.23	-13.3793
1936.76	-10.1846
1939.29	-10.1852
1941.82	-14.5534
1944.35	-9.49438
1946.875	-8.10405
1949.4	-11.066
1951.93	-11.6
1954.46	-12.4164
1956.99	-11.9608
1959.52	-13.5201
1962.05	-14.7655
1964.58	-15.2996
1967.11	-12.7602
1969.64	-13.0915
1972.17	-12.0551
1974.7	-10.9875
1977.23	-12.6833
1979.76	-14.2582
1982.29	-15.2439
1984.82	-13.5835
1987.35	-11.1662
1989.88	-11.8494
1992.41	-14.6921
1994.94	-13.9173
1997.47	-10.475
2000	-10.1087
2002.53	-11.4343
2005.06	-11.0556
2007.59	-11.025
2010.12	-11.3959
2012.65	-12.6
2015.18	-11.158
2017.71	-9.06454
2020.24	-11.4127
2022.77	-12.8153
2025.3	-12.056
2027.83	-11.9342
2030.36	-13.5614
2032.89	-13.856
2035.42	-14.7934
2037.95	-15.1446
2040.48	-11.7263
2043.01	-12.0394
2045.54	-11.3254
2048.07	-11.5351
2050.6	-12.1198
2053.125	-11.0442
2055.65	-10.372
2058.18	-9.58091
2060.71	-12.2362
2063.24	-11.2317
2065.77	-9.32111
2068.3	-14.3652
2070.83	-15.0925
2073.36	-11.8251
2075.89	-12.931
2078.42	-13.6037
2080.95	-12.6221
2083.48	-11.4787
2086.01	-11.8543
2088.54	-12.0426
2091.07	-12.0252
2093.6	-11.3637
2096.13	-10.7353
2098.66	-11.1705
2101.19	-13.0319
2103.72	-10.887
2106.25	-11.0294
2108.78	-12.3304
2111.31	-12.4379
2113.84	-13.7911
2116.37	-12.0083
2118.9	-12.1072
2121.43	-10.7462
2123.96	-11.9868
2126.49	-12.4115
2129.02	-10.914
2131.55	-9.71197
2134.08	-11.3502
2136.61	-11.0118
2139.14	-11.7128
2141.67	-13.3554
2144.2	-10.8486
2146.73	-9.85131
2149.26	-8.18696
2151.79	-8.64632
2154.32	-12.0644
2156.85	-12.8752
2159.375	-13.2711
2161.9	-12.4207
2164.43	-10.4907
2166.96	-9.33649
2169.49	-9.53866
2172.02	-9.83889
2174.55	-11.7079
2177.08	-12.848
2179.61	-12.702
2182.14	-13.9341
2184.67	-12.7379
2187.2	-13.902
2189.73	-13.0084
2192.26	-12.1983
2194.79	-12.4439
2197.32	-11.0896
2199.85	-12.4829
2202.38	-9.99223
2204.91	-11.182
2207.44	-12.2877
2209.97	-11.1975
2212.5	-11.8215
2215.03	-10.9655
2217.56	-10.6189
2220.09	-12.1388
2222.62	-12.0409
2225.15	-12.1713
2227.68	-8.03565
2230.21	-8.64811
2232.74	-7.87706
2235.27	-9.29962
2237.8	-8.49559
2240.33	-12.7772
2242.86	-8.25228
2245.39	-9.4925
2247.92	-11.6695
2250.45	-10.6164
2252.98	-10.7877
2255.51	-9.41398
2258.04	-7.36714
2260.57	-10.9944
2263.1	-9.03127
2265.625	-8.72446
2268.15	-7.93519
2270.68	-7.15868
2273.21	-9.85961
2275.74	-9.54132
2278.27	-10.0547
2280.8	-11.8141
2283.33	-12.4483
2285.86	-8.85767
2288.39	-9.17005
2290.92	-11.8772
2293.45	-10.246
2295.98	-9.57298
2298.51	-9.20264
2301.04	-9.4516
2303.57	-7.44259
2306.1	-7.41682
2308.63	-10.0905
2311.16	-10.6356
2313.69	-10.0598
2316.22	-9.12491
2318.75	-9.92113
2321.28	-9.90623
2323.81	-7.86203
2326.34	-6.55204
2328.87	-8.25352
2331.4	-4.91542
2333.93	-1.425
2336.46	-2.00393
2338.99	-6.28909
2341.52	-6.30497
2344.05	-6.87923
2346.58	-6.28449
2349.11	-11.2727
2351.64	-8.65776
2354.17	-6.71417
2356.7	-8.65534
2359.23	-9.24386
2361.76	-8.56437
2364.29	-7.94035
2366.82	-8.40509
2369.35	-11.9867
2371.875	-9.70676
2374.4	-6.86212
2376.93	-7.02331
2379.46	-6.80717
2381.99	-4.53654
2384.52	-7.50021
2387.05	-8.80273
2389.58	-6.35209
2392.11	-7.08505
2394.64	-7.42668
2397.17	-6.25645
2399.7	-5.3106
2402.23	-4.85424
2404.76	-7.37006
2407.29	-7.27329
2409.82	-7.77269
2412.35	-5.80319
2414.88	-7.54433
2417.41	-3.95135
2419.94	-4.19956
2422.47	-3.30359
2425	-3.28138
2427.53	0.233857
2430.06	3.58659
2432.59	3.39476
2435.12	7.71197
2437.65	10.8165
2440.18	11.2084
2442.71	15.9636
2445.24	15.4937
2447.77	9.37615
2450.3	4.15395
2452.83	6.00642
2455.36	0.391317
2457.89	-0.0663422
2460.42	-0.941883
2462.95	0.228954
2465.48	-1.78538
2468.01	-4.42356
2470.54	-5.05421
2473.07	-4.31081
2475.6	-1.70371
2478.125	-1.51275
2480.65	-4.27431
2483.18	-3.9821
2485.71	-2.82672
2488.24	-2.87779
2490.77	-2.12314
2493.3	-4.58575
2495.83	-4.08078
2498.36	-4.3374
2500.89	-4.20801
2503.42	-4.40026
2505.95	-5.36915
2508.48	-5.37061
2511.01	-4.6109
2513.54	-1.10825
2516.07	-2.29527
2518.6	0.209136
2521.13	-1.58595
2523.66	-1.44957
2526.19	-1.91124
2528.72	-1.80734
2531.25	-3.18721
2533.78	-3.83607
2536.31	-0.919129
2538.84	-2.05094
2541.37	-3.59519
2543.9	-2.74511
2546.43	-3.87705
2548.96	-4.70042
2551.49	-0.855458
2554.02	-1.61979
2556.55	-3.74616
2559.08	-4.11288
2561.61	-2.51703
2564.14	-2.78083
2566.67	-4.10379
2569.2	-5.98315
2571.73	-6.3192
2574.26	-3.92605
2576.79	-3.81183
2579.32	-3.33971
2581.85	-1.14875
2584.375	-0.725865
2586.9	-1.84836
2589.43	-3.27766
2591.96	-2.76847
2594.49	-1.28936
2597.02	-3.60726
2599.55	-2.83207
2602.08	-4.03554
2604.61	-2.86766
2607.14	-4.5779
2609.67	-4.89554
2612.2	-2.56649
2614.73	-0.362931
2617.26	-1.60086
2619.79	-4.03211
2622.32	-4.16368
2624.85	-7.50514
2627.38	-4.6004
2629.91	-3.04739
2632.44	-2.2353
2634.97	-0.960986
2637.5	-3.16852
2640.03	-0.673197
2642.56	-1.83926
2645.09	-2.03215
2647.62	-0.512642
2650.15	-1.25721
2652.68	-1.6777
2655.21	-1.81047
2657.74	-2.00563
2660.27	-3.81139
2662.8	-3.2588
2665.33	0.353548
2667.86	0.818523
2670.39	0.00755008
2672.92	0.458763
2675.45	1.42097
2677.98	-0.700585
2680.51	-0.716222
2683.04	0.0418985
2685.57	0.958527
2688.1	1.25161
2690.625	0.256918
2693.15	-0.956542
2695.68	0.459138
2698.21	2.35415
2700.74	-1.51408
2703.27	2.78267
2705.8	2.79713
2708.33	2.2841
2710.86	-0.365857
2713.39	-1.26894
2715.92	1.58291
2718.45	0.785646
2720.98	-0.53811
2723.51	-0.463966
2726.04	1.52347
2728.57	1.09672
2731.1	-1.03175
2733.63	1.35742
2736.16	3.15944
2738.69	3.4197
2741.22	1.22047
2743.75	1.64653
2746.28	1.11567
2748.81	2.11685
2751.34	2.66598
2753.87	1.36047
2756.4	-1.62028
2758.93	2.07514
2761.46	1.92456
2763.99	0.575978
2766.52	0.748125
2769.05	0.929997
2771.58	0.266906
2774.11	-0.368516
2776.64	-1.13932
2779.17	0.522203
2781.7	-0.0494475
2784.23	-0.579245
2786.76	-0.734392
2789.29	2.00265
2791.82	0.871755
2794.35	-1.79217
2796.875	0.240505
2799.4	-1.56026
2801.93	3.5632
2804.46	-0.509416
2806.99	0.294262
2809.52	2.98941
2812.05	1.78682
2814.58	0.5998
2817.11	1.27572
2819.64	1.15373
2822.17	-2.72705
2824.7	2.82032
2827.23	2.49306
2829.76	3.01781
2832.29	-0.614926
2834.82	-0.619763
2837.35	2.66475
2839.88	2.65026
2842.41	-0.63681
2844.94	1.67777
2847.47	-0.502273
2850	0.420886
2852.53	2.92847
2855.06	2.06537
2857.59	1.13302
2860.12	3.34723
2862.65	2.60015
2865.18	1.28235
2867.71	1.99105
2870.24	5.04901
2872.77	0.304166
2875.3	2.34408
2877.83	-0.465433
2880.36	0.824288
2882.89	-1.27756
2885.42	-0.0645743
2887.95	0.328926
2890.48	2.09615
2893.01	2.79475
2895.54	1.4138
2898.07	4.34465
2900.6	5.22871
2903.125	3.33771
2905.65	3.78725
2908.18	2.74176
2910.71	1.38352
2913.24	1.56542
2915.77	1.82908
2918.3	4.74226
2920.83	3.25624
2923.36	5.31842
2925.89	4.92106
2928.42	4.97625
2930.95	4.13986
2933.48	2.8672
2936.01	3.44312
2938.54	4.94688
2941.07	2.76127
2943.6	3.06073
2946.13	4.19846
2948.66	4.99106
2951.19	5.30593
2953.72	5.2598
2956.25	5.81384
2958.78	7.40839
2961.31	4.6231
2963.84	2.76037
2966.37	4.87973
2968.9	4.18068
2971.43	6.17851
2973.96	4.60564
2976.49	4.95174
2979.02	3.44999
2981.55	1.42482
2984.08	0.0478076
2986.61	-0.0505869
2989.14	0.957989
2991.67	0.840364
2994.2	0.648436
2996.73	1.63825
2999.26	0.629212
3001.79	1.14086
3004.32	2.58035
3006.85	4.08673
3009.375	1.18471
3011.9	-2.62755
3014.43	1.49097
3016.96	2.15173
3019.49	2.65343
3022.02	2.5948
3024.55	1.55359
3027.08	-0.536708
3029.61	3.68648
3032.14	3.71722
3034.67	2.84707
3037.2	1.82032
3039.73	-0.248834
3042.26	1.3891
3044.79	2.92987
3047.32	3.83681
3049.85	3.20336
3052.38	2.06994
3054.91	0.725475
3057.44	1.65363
3059.97	1.0621
3062.5	1.70035
3065.03	0.273169
3067.56	-0.597969
3070.09	1.40079
3072.62	1.27932
3075.15	0.595587
3077.68	1.95253
3080.21	2.47235
3082.74	0.836973
3085.27	-0.485955
3087.8	-0.303443
3090.33	3.13515
3092.86	3.23471
3095.39	3.83913
3097.92	1.1038
3100.45	1.70181
3102.98	0.552056
3105.51	1.47379
3108.04	-4.99561
3110.57	1.98097
3113.1	2.64521
3115.625	1.53118
3118.15	-1.77691
3120.68	-0.599642
3123.21	0.767619
3125.74	4.38573
3128.27	2.04097
3130.8	0.0697756
3133.33	3.46676
3135.86	0.091763
3138.39	-0.812859
3140.92	0.341681
3143.45	1.07901
3145.98	0.175805
3148.51	1.74133
3151.04	2.16664
3153.57	-1.71673
3156.1	-3.11181
3158.63	0.703401
3161.16	1.82487
3163.69	1.32915
3166.22	0.720252
3168.75	3.11482
3171.28	3.34318
3173.81	2.15173
3176.34	-1.45198
3178.87	0.223704
3181.4	0.805283
3183.93	1.64421
3186.46	1.2359
3188.99	2.95173
3191.52	-0.614555
3194.05	1.28368
3196.58	1.22874
3199.11	4.19226
3201.64	0.871671
3204.17	2.47437
3206.7	2.45933
3209.23	2.41383
3211.76	4.54022
3214.29	3.75918
3216.82	1.20301
3219.35	4.1736
3221.875	1.093
3224.4	3.92316
3226.93	0.438495
3229.46	2.63293
3231.99	1.70889
3234.52	1.28804
3237.05	2.59499
3239.58	3.08864
3242.11	2.21255
3244.64	2.15173
3247.17	7.12814
3249.7	4.61413
3252.23	2.88631
3254.76	2.0714
3257.29	2.51284
3259.82	2.50809
3262.35	4.86082
3264.88	6.35065
3267.41	1.77878
3269.94	0.124842
3272.47	1.48104
3275	0.305887
3277.53	1.28527
3280.06	8.29403
3282.59	5.57437
3285.12	1.97446
3287.65	4.84725
3290.18	3.6003
3292.71	1.88543
3295.24	4.08935
3297.77	2.19056
3300.3	4.52432
3302.83	6.13567
3305.36	4.56689
3307.89	2.07175
3310.42	4.34138
3312.95	1.15037
3315.48	4.43123
3318.01	0.566938
3320.54	1.93028
3323.07	3.13704
3325.6	2.50658
3328.125	5.2884
3330.65	4.04343
3333.18	0.679495
3335.71	0.0496445
3338.24	5.26615
3340.77	4.28069
3343.3	6.0118
3345.83	3.52136
3348.36	3.05784
3350.89	1.58033
3353.42	2.5459
3355.95	4.72393
3358.48	-0.3176
3361.01	0.806072
3363.54	1.95173
3366.07	4.93052
3368.6	3.1941
3371.13	3.16693
3373.66	1.12401
3376.19	1.59954
3378.72	1.04533
3381.25	4.92279
3383.78	4.15173
3386.31	4.33458
3388.84	3.00444
3391.37	3.28384
3393.9	3.67364
3396.43	6.16938
3398.96	6.92093
3401.49	6.44757
3404.02	5.90697
3406.55	2.49044
3409.08	1.34066
3411.61	2.96379
3414.14	4.18245
3416.67	2.84612
3419.2	2.89874
3421.73	5.60664
3424.26	4.48811
3426.79	5.34054
3429.32	0.865664
3431.85	2.60686
3434.375	6.65416
3436.9	-0.407898
3439.43	2.99179
3441.96	4.05678
3444.49	1.20097
3447.02	0.603352
3449.55	3.77027
3452.08	3.11302
3454.61	4.60798
3457.14	5.86241
3459.67	4.16348
3462.2	3.71284
3464.73	5.45582
3467.26	3.79927
3469.79	0.791858
3472.32	5.64974
3474.85	5.23756
3477.38	8.38139
3479.91	1.81581
3482.44	5.16804
3484.97	3.77114
3487.5	5.70996
3490.03	7.58024
3492.56	4.84759
3495.09	5.54884
3497.62	8.16175
3500.15	4.91999
3502.68	0.656724
3505.21	6.62222
3507.74	4.26297
3510.27	2.0896
3512.8	4.67215
3515.33	4.58017
3517.86	4.70245
3520.39	5.15928
3522.92	6.43541
3525.45	3.03504
3527.98	3.9394
3530.51	3.00732
3533.04	2.83377
3535.57	3.19548
3538.1	0.412424
3540.625	3.35173
3543.15	3.82143
3545.68	6.15217
3548.21	9.61613
3550.74	7.80609
3553.27	4.57635
3555.8	3.82253
3558.33	3.14157
3560.86	5.80212
3563.39	6.73579
3565.92	3.33874
3568.45	5.63768
3570.98	3.44588
3573.51	5.39469
3576.04	7.13651
3578.57	6.15173
3581.1	6.32813
3583.63	9.16944
3586.16	5.17266
3588.69	7.41714
3591.22	7.8553
3593.75	5.00349
3596.28	4.84184
3598.81	2.72337
3601.34	1.87013
3603.87	5.05751
3606.4	8.02654
3608.93	3.64805
3611.46	2.49007
3613.99	6.65603
3616.52	3.56553
3619.05	5.45676
3621.58	7.3329
3624.11	4.53325
3626.64	6.40073
3629.17	3.03347
3631.7	5.13138
3634.23	3.5677
3636.76	4.57696
3639.29	4.44887
3641.82	5.61567
3644.35	8.62632
3646.875	2.98335
3649.4	3.98708
3651.93	3.76108
3654.46	8.53118
3656.99	6.04106
3659.52	9.25921
3662.05	8.02589
3664.58	3.90468
3667.11	2.58886
3669.64	5.78577
3672.17	6.10523
3674.7	5.37246
3677.23	8.57678
3679.76	4.51813
3682.29	4.59183
3684.82	4.56998
3687.35	5.15014
3689.88	3.14159
3692.41	1.61449
3694.94	1.7828
3697.47	7.95569
3700	10.1397