File: Example Data/Raman/Kara/12-20-10/Si-Graphene/6bulk/SGbulk_4.txt
300	172.549
302.53	188.369
305.06	207.469
307.589	228.916
310.119	227.946
312.649	213.119
315.179	207.191
317.708	207.092
320.238	207.081
322.768	222.288
325.298	214.035
327.827	208.355
330.357	212.857
332.887	224.474
335.417	223.826
337.946	218.357
340.476	220.093
343.006	221.842
345.536	218.233
348.065	207.725
350.595	204.805
353.125	197.377
355.655	196.333
358.185	198.316
360.714	194.543
363.244	191.943
365.774	191.459
368.304	189.845
370.833	185.152
373.363	178.05
375.893	174.958
378.423	179.9
380.952	177.996
383.482	171.188
386.012	166.066
388.542	171.449
391.071	172.753
393.601	171.017
396.131	167.808
398.661	168.15
401.19	173.001
403.72	159.446
406.25	155.235
408.78	158.665
411.31	160.925
413.839	159.376
416.369	161.953
418.899	174.704
421.429	168.496
423.958	168.326
426.488	176.39
429.018	181.797
431.548	171.975
434.077	179.708
436.607	185.364
439.137	186.948
441.667	186.436
444.196	187.257
446.726	180.201
449.256	172.618
451.786	170.739
454.315	173.037
456.845	173.245
459.375	161.25
461.905	175.06
464.435	180.068
466.964	184.722
469.494	194.588
472.024	206.934
474.554	212.2
477.083	228.639
479.613	245.726
482.143	261.481
484.673	277.69
487.202	298.619
489.732	325.603
492.262	352.262
494.792	394.208
497.321	442.118
499.851	482.457
502.381	542.049
504.911	625.627
507.44	759.255
509.97	986.862
512.5	1359.18
515.03	1962.5
517.56	3199.69
520.089	5366.07
522.619	6813.66
525.149	6427.98
527.679	4412.79
530.208	2508.16
532.738	1463.86
535.268	914.651
537.798	616.987
540.327	446.385
542.857	339.313
545.387	286.029
547.917	232.11
550.446	201.249
552.976	179.458
555.506	156.637
558.036	130.742
560.565	113.133
563.095	100.457
565.625	97.9313
568.155	90.873
570.685	82.7599
573.214	80.8833
575.744	78.0525
578.274	67.8641
580.804	61.6996
583.333	62.4988
585.863	64.84
588.393	63.6211
590.923	65.9562
593.452	62.4005
595.982	59.3818
598.512	57.4206
601.042	59.9489
603.571	67.1257
606.101	67.794
608.631	68.7938
611.161	76.9681
613.69	81.2999
616.22	84.0845
618.75	88.1042
621.28	83.7964
623.81	83.4616
626.339	78.8901
628.869	75.2376
631.399	73.4413
633.929	71.6568
636.458	67.0776
638.988	68.9221
641.518	71.9069
644.048	68.3698
646.577	66.9419
649.107	71.3349
651.637	73.9385
654.167	75.6193
656.696	73.7007
659.226	67.8076
661.756	66.3528
664.286	70.6118
666.815	73.6094
669.345	67.721
671.875	61.035
674.405	62.8438
676.935	67.0076
679.464	67.8531
681.994	63.5764
684.524	58.3907
687.054	57.3786
689.583	54.7003
692.113	55.8599
694.643	54.7444
697.173	48.6254
699.702	44.8676
702.232	48.0759
704.762	49.6156
707.292	41.7712
709.821	39.6422
712.351	43.0086
714.881	42.3937
717.411	47.1325
719.94	42.1965
722.47	40.1111
725	42.4486
727.53	41.8523
730.06	36.6888
732.589	37.6916
735.119	46.1707
737.649	41.7964
740.179	43.0228
742.708	42.8585
745.238	41.2845
747.768	43.4409
750.298	46.7504
752.827	42.3324
755.357	40.3238
757.887	45.2785
760.417	49.9275
762.946	49.3606
765.476	46.8867
768.006	50.6311
770.536	52.7509
773.065	54.9274
775.595	50.639
778.125	46.9049
780.655	49.7721
783.185	53.1707
785.714	52.8296
788.244	53.1116
790.774	51.4288
793.304	53.9981
795.833	58.5477
798.363	60.3102
800.893	61.3187
803.423	56.3634
805.952	61.1024
808.482	64.6382
811.012	60.3703
813.542	57.8893
816.071	65.9233
818.601	67.7046
821.131	75.0716
823.661	72.707
826.19	72.3264
828.72	75.3894
831.25	75.7154
833.78	69.2904
836.31	66.0213
838.839	66.5359
841.369	61.639
843.899	64.5174
846.429	66.6493
848.958	65.2095
851.488	63.5873
854.018	62.0177
856.548	65.9737
859.077	64.559
861.607	61.3649
864.137	61.4597
866.667	65.2946
869.196	68.9476
871.726	67.7274
874.256	64.453
876.786	57.8369
879.315	58.5673
881.845	60.736
884.375	60.1458
886.905	59.077
889.435	64.3048
891.964	74.6656
894.494	72.827
897.024	63.584
899.554	64.9872
902.083	70.8841
904.613	75.451
907.143	79.6083
909.673	75.6296
912.202	84.1101
914.732	83.0877
917.262	92.703
919.792	105.039
922.321	120.799
924.851	143.017
927.381	163.002
929.911	184.852
932.44	197.834
934.97	216.955
937.5	233.325
940.03	238.013
942.56	238.574
945.089	249.562
947.619	259.449
950.149	255.451
952.679	263.334
955.208	261.821
957.738	252.537
960.268	245.571
962.798	242.875
965.327	236.321
967.857	238.586
970.387	232.536
972.917	235.881
975.446	233.497
977.976	225.988
980.506	210.463
983.036	187.727
985.565	172.498
988.095	166.385
990.625	148.239
993.155	124.666
995.685	109.782
998.214	101.812
1000.74	94.2173
1003.27	84.5931
1005.8	77.0273
1008.33	73.526
1010.86	74.4129
1013.39	58.3199
1015.92	57.4888
1018.45	59.7813
1020.98	54.8451
1023.51	48.238
1026.04	46.4835
1028.57	42.0971
1031.1	31.3516
1033.63	30.042
1036.16	24.7906
1038.69	24.3581
1041.22	23.8306
1043.75	18.3523
1046.28	19.7919
1048.81	18.3271
1051.34	11.4618
1053.87	17.5246
1056.4	14.1409
1058.93	12.6852
1061.46	11.7792
1063.99	8.83397
1066.52	9.36527
1069.05	9.25547
1071.58	10.1371
1074.11	10.2
1076.64	9.49791
1079.17	9.78461
1081.7	10.8545
1084.23	9.77545
1086.76	6.68125
1089.29	7.71777
1091.82	8.59298
1094.35	5.40915
1096.875	9.47216
1099.4	11.0622
1101.93	10.119
1104.46	7.32596
1106.99	3.6159
1109.52	2.18528
1112.05	7.35163
1114.58	11.0746
1117.11	2.28885
1119.64	6.89927
1122.17	9.25241
1124.7	6.28906
1127.23	4.04993
1129.76	5.35299
1132.29	6.12705
1134.82	5.715
1137.35	4.64853
1139.88	2.05258
1142.41	5.5879
1144.94	5.86961
1147.47	5.6142
1150	3.79815
1152.53	0.540361
1155.06	0.4
1157.59	0.479906
1160.12	1.37094
1162.65	2.09025
1165.18	6.57573
1167.71	4.89598
1170.24	5.67917
1172.77	4.17758
1175.3	0.631244
1177.83	3.2
1180.36	2.46725
1182.89	-3.39135
1185.42	-1.60298
1187.95	0.660373
1190.48	-1.96028
1193.01	-1.30631
1195.54	-0.0859041
1198.07	0.864674
1200.6	2.57173
1203.125	0.909385
1205.65	-1.26841
1208.18	3.75208
1210.71	-0.603408
1213.24	1.14826
1215.77	1.48259
1218.3	3.04938
1220.83	3.45234
1223.36	2.54309
1225.89	2.88681
1228.42	1.0089
1230.95	3.47359
1233.48	0.236889
1236.01	2.83396
1238.54	0.174273
1241.07	4.06401
1243.6	5.40066
1246.13	2.78543
1248.66	2.40526
1251.19	3.81018
1253.72	1.01047
1256.25	3.82931
1258.78	9.23932
1261.31	9.26305
1263.84	4.58296
1266.37	2.87057
1268.9	0.70906
1271.43	1.35829
1273.96	4.41404
1276.49	3.49804
1279.02	0.557305
1281.55	4.8533
1284.08	10.8256
1286.61	9.94622
1289.14	8.07634
1291.67	4.84527
1294.2	1.81678
1296.73	4.50211
1299.26	8.72511
1301.79	9.45047
1304.32	8.63656
1306.85	4.17979
1309.375	6.82047
1311.9	7.36511
1314.43	9.43842
1316.96	9.64849
1319.49	17.9927
1322.02	18.6357
1324.55	14.4513
1327.08	13.5075
1329.61	15.9903
1332.14	19.3273
1334.67	20.02
1337.2	21.4435
1339.73	17.0725
1342.26	16.4583
1344.79	23.2883
1347.32	22.2866
1349.85	22.6834
1352.38	24.1002
1354.91	24.3654
1357.44	24.0133
1359.97	24.0412
1362.5	27.3627
1365.03	23.5401
1367.56	19.8857
1370.09	23.7292
1372.62	27.2673
1375.15	27.5671
1377.68	24.2171
1380.21	22.4
1382.74	21.3729
1385.27	18.2106
1387.8	17.9268
1390.33	22.9101
1392.86	15.5003
1395.39	12.4689
1397.92	17.6061
1400.45	17.9765
1402.98	12.7185
1405.51	15.8541
1408.04	15.5634
1410.57	15.2878
1413.1	14.4836
1415.625	13.35
1418.15	13.6385
1420.68	12.4463
1423.21	12.2663
1425.74	10.2561
1428.27	8.41619
1430.8	12.0509
1433.33	10.5655
1435.86	8.53847
1438.39	8.40613
1440.92	9.31856
1443.45	11.4672
1445.98	10.0732
1448.51	6.4
1451.04	5.93738
1453.57	4.8
1456.1	4.60969
1458.63	3.37612
1461.16	3.00649
1463.69	4.81625
1466.22	5.33332
1468.75	6.30996
1471.28	9.47047
1473.81	6.17265
1476.34	4.37679
1478.87	2.81748
1481.4	2.0468
1483.93	5.85127
1486.46	6.2552
1488.99	5.66523
1491.52	4.55698
1494.05	0.447839
1496.58	2.30475
1499.11	3.63274
1501.64	1.53343
1504.17	0.409378
1506.7	2.20303
1509.23	2.48347
1511.76	2.73769
1514.29	2.21102
1516.82	1.4203
1519.35	1.76362
1521.875	0.699267
1524.4	1.96168
1526.93	3.8477
1529.46	5.5951
1531.99	1.30957
1534.52	2.47226
1537.05	6.97624
1539.58	4.70127
1542.11	3.65839
1544.64	3.47166
1547.17	2.93947
1549.7	4.94531
1552.23	7.11114
1554.76	6.24188
1557.29	5.56533
1559.82	7.44835
1562.35	9.21495
1564.88	8.18147
1567.41	6.65752
1569.94	7.59392
1572.47	6.29714
1575	8.62911
1577.53	8.35577
1580.06	6.56555
1582.59	3.82176
1585.12	7.38175
1587.65	11.7616
1590.18	10.8147
1592.71	10.4306
1595.24	12.4247
1597.77	10.6656
1600.3	9.16883
1602.83	12.8208
1605.36	15.5755
1607.89	11.5385
1610.42	10.822
1612.95	11.9513
1615.48	7.13261
1618.01	7.78112
1620.54	10.6713
1623.07	11.1087
1625.6	7.23987
1628.125	6.26075
1630.65	7.24678
1633.18	5.39086
1635.71	4.18111
1638.24	3.99439
1640.77	1.66592
1643.3	1.96048
1645.83	2.76836
1648.36	0.634236
1650.89	0.823406
1653.42	1
1655.95	0.996154
1658.48	0.617208
1661.01	-2.29283
1663.54	-5.66468
1666.07	-2.68495
1668.6	-1.94934
1671.13	-2.55623
1673.66	-1.89856
1676.19	-3.65176
1678.72	-4.65811
1681.25	-4.59315
1683.78	-3.8535
1686.31	-2.7128
1688.84	-3.60977
1691.37	-5.45131
1693.9	-7.17331
1696.43	-4.52232
1698.96	-4.63777
1701.49	-7.27798
1704.02	-7.93019
1706.55	-6.5934
1709.08	-4.11734
1711.61	-6.90597
1714.14	-6.51068
1716.67	-9.0077
1719.2	-8.06222
1721.73	-7.31069
1724.26	-7.60677
1726.79	-6.40766
1729.32	-4.5414
1731.85	-3.14766
1734.375	-3.89762
1736.9	-5.01806
1739.43	-5.70464
1741.96	-6.63217
1744.49	-5.87002
1747.02	-7.12611
1749.55	-9.17511
1752.08	-4.50815
1754.61	-8.22027
1757.14	-4.1143
1759.67	-5.26249
1762.2	-8.61911
1764.73	-9.19501
1767.26	-4.82447
1769.79	-7.15074
1772.32	-6.00542
1774.85	-6.46562
1777.38	-4.22204
1779.91	-4.50488
1782.44	-7.8049
1784.97	-5.4776
1787.5	-3.8
1790.03	-4.88332
1792.56	-7.97072
1795.09	-6.84635
1797.62	-4.98557
1800.15	-6.16361
1802.68	-4.50862
1805.21	-3.59006
1807.74	-6.93887
1810.27	-6.82595
1812.8	-5.6676
1815.33	-5.3822
1817.86	-7.4918
1820.39	-8.80932
1822.92	-9.2107
1825.45	-5.40735
1827.98	-4.24409
1830.51	-9.77519
1833.04	-9.18755
1835.57	-7.83254
1838.1	-7.61101
1840.625	-9.79218
1843.15	-3.6485
1845.68	-1.94824
1848.21	-5.08469
1850.74	-8.17226
1853.27	-7.58293
1855.8	-4.569
1858.33	-3.17893
1860.86	-4.3455
1863.39	-7.44651
1865.92	-5.96837
1868.45	-6.54987
1870.98	-4.61753
1873.51	-5.41943
1876.04	-10.6191
1878.57	-8.96811
1881.1	-5.3613
1883.63	-5.8
1886.16	-5.72014
1888.69	-5.74946
1891.22	-6.9748
1893.75	-8.67066
1896.28	-8.69862
1898.81	-9.50957
1901.34	-7.69994
1903.87	-2.98446
1906.4	-8.03455
1908.93	-6.45614
1911.46	-5.48697
1913.99	-4.87244
1916.52	-11.621
1919.05	-10.11
1921.58	-8.80326
1924.11	-3.45655
1926.64	-4.70966
1929.17	-8.8043
1931.7	-9.58796
1934.23	-11.3379
1936.76	-7.80635
1939.29	-5.74762
1941.82	-3.96747
1944.35	-7.35201
1946.875	-9.36589
1949.4	-9.42967
1951.93	-9.56672
1954.46	-8.78362
1956.99	-5.72342
1959.52	-3.90537
1962.05	-6.20279
1964.58	-8.49814
1967.11	-6.80016
1969.64	-7.43496
1972.17	-10.6685
1974.7	-7.12491
1977.23	-7.15239
1979.76	-6.62023
1982.29	-7.34547
1984.82	-9.83838
1987.35	-6.3584
1989.88	-4.92864
1992.41	-8.87462
1994.94	-7.2974
1997.47	-5.84558
2000	-5.4695
2002.53	-4.94291
2005.06	-6.14443
2007.59	-6.17498
2010.12	-5.08973
2012.65	-7.89994
2015.18	-9.73002
2017.71	-7.43152
2020.24	-7.73019
2022.77	-8.16875
2025.3	-8.55999
2027.83	-7.35069
2030.36	-6.42194
2032.89	-9.28507
2035.42	-8.51564
2037.95	-8.15105
2040.48	-7.06577
2043.01	-6.16059
2045.54	-6.71638
2048.07	-7.27793
2050.6	-8.28465
2053.125	-9.7922
2055.65	-8.12537
2058.18	-7.94718
2060.71	-9.88955
2063.24	-5.07586
2065.77	-5.35048
2068.3	-7.54444
2070.83	-9.10716
2073.36	-7.57659
2075.89	-6.6588
2078.42	-4.41215
2080.95	-6.43671
2083.48	-6.87941
2086.01	-5.11645
2088.54	-5.73494
2091.07	-8.1374
2093.6	-8.65469
2096.13	-8.07756
2098.66	-5.03592
2101.19	-7.79932
2103.72	-8.75215
2106.25	-6.96343
2108.78	-5.14568
2111.31	-6.89938
2113.84	-5.84666
2116.37	-3.62901
2118.9	-4.93831
2121.43	-5.54106
2123.96	-4.41408
2126.49	-6.61182
2129.02	-6.89233
2131.55	-5.74476
2134.08	-5.30343
2136.61	-5.37537
2139.14	-5.80095
2141.67	-5.36231
2144.2	-5.51161
2146.73	-6.94193
2149.26	-8.45349
2151.79	-6.77396
2154.32	-5.04424
2156.85	-6.09243
2159.375	-3.88254
2161.9	-4.77836
2164.43	-6.47996
2166.96	-6.23738
2169.49	-8.57418
2172.02	-6.65583
2174.55	-3.3992
2177.08	-4.68596
2179.61	-8.30726
2182.14	-6.28392
2184.67	-5.40731
2187.2	-6.5445
2189.73	-5.60983
2192.26	-6.4716
2194.79	-7.08243
2197.32	-6.84285
2199.85	-4.44137
2202.38	-3.28104
2204.91	-5.27153
2207.44	-7.17632
2209.97	-7.59396
2212.5	-6.39838
2215.03	-6.21259
2217.56	-7.62619
2220.09	-6.18501
2222.62	-4.77111
2225.15	-5.432
2227.68	-6.44374
2230.21	-6.64723
2232.74	-8.46141
2235.27	-5.31082
2237.8	-5.66975
2240.33	-7.11042
2242.86	-4.68539
2245.39	-3.70477
2247.92	-7.23396
2250.45	-4.23424
2252.98	-3.5422
2255.51	-5.0663
2258.04	-5.04305
2260.57	-5.67512
2263.1	-6.85947
2265.625	-4.73174
2268.15	-4.54988
2270.68	-5.96982
2273.21	-4.54235
2275.74	-5.50065
2278.27	-5.27249
2280.8	-5.88297
2283.33	-3.96207
2285.86	-3.36449
2288.39	-3.79532
2290.92	-3.05664
2293.45	-0.49157
2295.98	-1.7484
2298.51	-4.02592
2301.04	-5.77981
2303.57	-6.15794
2306.1	-3.95051
2308.63	-4.49062
2311.16	-4.61131
2313.69	-1.54491
2316.22	-2.51354
2318.75	-4.94395
2321.28	-6.07146
2323.81	-4.10662
2326.34	-4.5134
2328.87	-3.62463
2331.4	-0.938104
2333.93	0.444957
2336.46	4.08378
2338.99	1.22297
2341.52	-2.65464
2344.05	-9.81768
2346.58	-5.45579
2349.11	-3.71663
2351.64	-1.94923
2354.17	-4.42042
2356.7	-3.70484
2359.23	-5.42052
2361.76	-6.0924
2364.29	-3.5946
2366.82	-3.16838
2369.35	-1.06781
2371.875	-2.78271
2374.4	-3.64939
2376.93	-2.25448
2379.46	-2.75312
2381.99	-3.34551
2384.52	-2.99025
2387.05	-2.51948
2389.58	-2.29586
2392.11	-2.57822
2394.64	-1.14842
2397.17	-0.262116
2399.7	1.38282
2402.23	0.329599
2404.76	-1.41307
2407.29	-3.17779
2409.82	-2.81552
2412.35	-1.30561
2414.88	0.688052
2417.41	0.479059
2419.94	3.80721
2422.47	3.53721
2425	4.16179
2427.53	5.72463
2430.06	7.81972
2432.59	10.5984
2435.12	10.1066
2437.65	13.1193
2440.18	13.6898
2442.71	16.3922
2445.24	15.2543
2447.77	13.9473
2450.3	12.7334
2452.83	8.3895
2455.36	8.19241
2457.89	5.66848
2460.42	4.92735
2462.95	2.01015
2465.48	2.83147
2468.01	3.70964
2470.54	3.96946
2473.07	2.11671
2475.6	2.51524
2478.125	3.19935
2480.65	3.0651
2483.18	2.30959
2485.71	1.56499
2488.24	1.11946
2490.77	1.37625
2493.3	1.57077
2495.83	0.741166
2498.36	-0.204218
2500.89	0.686111
2503.42	2.09298
2505.95	1.69503
2508.48	1.03266
2511.01	1.93413
2513.54	1.22345
2516.07	3.48627
2518.6	1.58335
2521.13	2.24623
2523.66	2.50659
2526.19	4.05257
2528.72	4.26955
2531.25	4.00036
2533.78	3.31884
2536.31	4.32942
2538.84	2.49502
2541.37	2.88091
2543.9	0.465154
2546.43	0.539078
2548.96	2.24364
2551.49	0.55218
2554.02	0.220335
2556.55	2.19919
2559.08	0.814127
2561.61	0.0756147
2564.14	1.45428
2566.67	1.77195
2569.2	2.01195
2571.73	0.664642
2574.26	0.481298
2576.79	1.8245
2579.32	3.76123
2581.85	2.95784
2584.375	-0.306938
2586.9	-1.07711
2589.43	2.41839
2591.96	1.22397
2594.49	0.880198
2597.02	1.30025
2599.55	2.83192
2602.08	3.1979
2604.61	3.45273
2607.14	3.08092
2609.67	0.686391
2612.2	-0.314921
2614.73	2.67596
2617.26	1.39383
2619.79	0.00912402
2622.32	2.14154
2624.85	0.950378
2627.38	0.996351
2629.91	2.65458
2632.44	3.54204
2634.97	3.23518
2637.5	1.93199
2640.03	2.4827
2642.56	5.5001
2645.09	4.22131
2647.62	1.94769
2650.15	1.4838
2652.68	2.89483
2655.21	3.23507
2657.74	3.02601
2660.27	2.83497
2662.8	3.35096
2665.33	5.81836
2667.86	3.10389
2670.39	2.23842
2672.92	2.99355
2675.45	2.58766
2677.98	5.93128
2680.51	5.41547
2683.04	5.53468
2685.57	6.32474
2688.1	4.9493
2690.625	7.04248
2693.15	6.58953
2695.68	5.43078
2698.21	3.30371
2700.74	6.6593
2703.27	4.18132
2705.8	4.34323
2708.33	3.52355
2710.86	4.14719
2713.39	5.31209
2715.92	4.44926
2718.45	5.21221
2720.98	5.54999
2723.51	3.09664
2726.04	5.24073
2728.57	7.77999
2731.1	7.77205
2733.63	1.79304
2736.16	5.54881
2738.69	4.20527
2741.22	3.46618
2743.75	3.04334
2746.28	3.43778
2748.81	4.29287
2751.34	4.16863
2753.87	5.79842
2756.4	5.03151
2758.93	5.87486
2761.46	6.86206
2763.99	5.81982
2766.52	3.65855
2769.05	7.68035
2771.58	5.35507
2774.11	3.29093
2776.64	4.09983
2779.17	4.77895
2781.7	3.87314
2784.23	4.58993
2786.76	4.51806
2789.29	6.60322
2791.82	2.76418
2794.35	5.48842
2796.875	3.98316
2799.4	3.76617
2801.93	5.85686
2804.46	5.19585
2806.99	4.16749
2809.52	6.50373
2812.05	7.03242
2814.58	5.95178
2817.11	5.42924
2819.64	4.07209
2822.17	3.80282
2824.7	6.21608
2827.23	4.56645
2829.76	7.53696
2832.29	6.40317
2834.82	6.21965
2837.35	5.18061
2839.88	6.20497
2842.41	5.63072
2844.94	5.58129
2847.47	7.15318
2850	1.41524
2852.53	0.786263
2855.06	5.84414
2857.59	6.95823
2860.12	6.31925
2862.65	5.96874
2865.18	4.89594
2867.71	5.10174
2870.24	4.91096
2872.77	4.82908
2875.3	4.26421
2877.83	6.07274
2880.36	4.21367
2882.89	7.33663
2885.42	7.68101
2887.95	7.30531
2890.48	8.25151
2893.01	9.35954
2895.54	6.98366
2898.07	8.69284
2900.6	9.21346
2903.125	5.42739
2905.65	4.20813
2908.18	5.10639
2910.71	9.23622
2913.24	8.43504
2915.77	8.49558
2918.3	8.99534
2920.83	10.0937
2923.36	10.6145
2925.89	9.03882
2928.42	6.53558
2930.95	8.7725
2933.48	10.5431
2936.01	6.97538
2938.54	7.74709
2941.07	10.99
2943.6	10.4794
2946.13	5.14145
2948.66	9.00956
2951.19	10.3459
2953.72	8.29504
2956.25	7.31885
2958.78	10.9318
2961.31	9.15803
2963.84	10.1018
2966.37	9.23923
2968.9	8.02009
2971.43	8.38026
2973.96	9.48964
2976.49	7.1288
2979.02	8.48397
2981.55	8.73902
2984.08	9.7083
2986.61	10.2188
2989.14	4.71339
2991.67	10.004
2994.2	6.9191
2996.73	4.48475
2999.26	5.27797
3001.79	5.81437
3004.32	4.44623
3006.85	7.57134
3009.375	5.16446
3011.9	4.91778
3014.43	4.91778
3016.96	5.21369
3019.49	6.67033
3022.02	5.1226
3024.55	3.31593
3027.08	7.92414
3029.61	3.65461
3032.14	6.13849
3034.67	6.71778
3037.2	6.94466
3039.73	7.84495
3042.26	8.63866
3044.79	8.52143
3047.32	0.917077
3049.85	2.02525
3052.38	5.42781
3054.91	4.12777
3057.44	6.33831
3059.97	5.00805
3062.5	6.1491
3065.03	4.73711
3067.56	5.11778
3070.09	3.79906
3072.62	7.39916
3075.15	3.76485
3077.68	5.05018
3080.21	5.14218
3082.74	5.83969
3085.27	7.85212
3087.8	5.26955
3090.33	7.3051
3092.86	3.89786
3095.39	5.06528
3097.92	5.31448
3100.45	3.89921
3102.98	4.51584
3105.51	6.03837
3108.04	6.11778
3110.57	7.61545
3113.1	5.3535
3115.625	2.82806
3118.15	4.43369
3120.68	4.66365
3123.21	3.59792
3125.74	6.35178
3128.27	8.25195
3130.8	2.23582
3133.33	5.25354
3135.86	6.07646
3138.39	6.37943
3140.92	3.86527
3143.45	2.1602
3145.98	2.45017
3148.51	9.01518
3151.04	8.11559
3153.57	4.82829
3156.1	4.71778
3158.63	3.98364
3161.16	4.06903
3163.69	3.93585
3166.22	5.1868
3168.75	6.45417
3171.28	2.92586
3173.81	4.29797
3176.34	5.51716
3178.87	6.21527
3181.4	3.55348
3183.93	5.31723
3186.46	9.99387
3188.99	5.74211
3191.52	4.77564
3194.05	9.20512
3196.58	3.35417
3199.11	3.75202
3201.64	4.96859
3204.17	7.25362
3206.7	6.51778
3209.23	8.17263
3211.76	1.67895
3214.29	3.49793
3216.82	5.61681
3219.35	8.39789
3221.875	7.5738
3224.4	8.49635
3226.93	7.53733
3229.46	5.45201
3231.99	6.10358
3234.52	3.68127
3237.05	4.3045
3239.58	2.88623
3242.11	5.16227
3244.64	6.8297
3247.17	4.09419
3249.7	2.18786
3252.23	5.80772
3254.76	8.57399
3257.29	7.03383
3259.82	5.70867
3262.35	3.77373
3264.88	5.99461
3267.41	11.0609
3269.94	11.0232
3272.47	7.96889
3275	7.33439
3277.53	5.09059
3280.06	9.27931
3282.59	8.03647
3285.12	4.75635
3287.65	4.6571
3290.18	6.82065
3292.71	7.13449
3295.24	7.26858
3297.77	7.16299
3300.3	8.18681
3302.83	5.16584
3305.36	6.30515
3307.89	4.94067
3310.42	9.77005
3312.95	7.86803
3315.48	7.70356
3318.01	8.51778
3320.54	7.00419
3323.07	9.66805
3325.6	9.1436
3328.125	11.2999
3330.65	6.40543
3333.18	6.2738
3335.71	8.61987
3338.24	8.17305
3340.77	8.92265
3343.3	10.5179
3345.83	6.29812
3348.36	8.34222
3350.89	5.55355
3353.42	6.90779
3355.95	7.20854
3358.48	8.88312
3361.01	6.84457
3363.54	9.65759
3366.07	5.16199
3368.6	14.0624
3371.13	6.19477
3373.66	7.28129
3376.19	7.86997
3378.72	1.98973
3381.25	10.7073
3383.78	5.86649
3386.31	7.52545
3388.84	6.78557
3391.37	6.71847
3393.9	7.13492
3396.43	8.55308
3398.96	9.71778
3401.49	8.45588
3404.02	5.24702
3406.55	5.53529
3409.08	5.16207
3411.61	5.74353
3414.14	6.73381
3416.67	7.02179
3419.2	5.92838
3421.73	5.24757
3424.26	5.09505
3426.79	5.78834
3429.32	9.28992
3431.85	8.89941
3434.375	8.03404
3436.9	10.1064
3439.43	8.69775
3441.96	8.83647
3444.49	9.36702
3447.02	6.36077
3449.55	7.22705
3452.08	3.33605
3454.61	8.16509
3457.14	10.0213
3459.67	12.5321
3462.2	10.99
3464.73	10.0055
3467.26	11.5601
3469.79	9.781
3472.32	8.34307
3474.85	5.02462
3477.38	12.4462
3479.91	8.13841
3482.44	6.88516
3484.97	9.94131
3487.5	11.8294
3490.03	5.6691
3492.56	8.1211
3495.09	7.89909
3497.62	12.2121
3500.15	12.0614
3502.68	9.59536
3505.21	4.26861
3507.74	10.2504
3510.27	9.50006
3512.8	9.22511
3515.33	3.56419
3517.86	7.51936
3520.39	5.60231
3522.92	8.09591
3525.45	5.97266
3527.98	6.47808
3530.51	10.4598
3533.04	14.7178
3535.57	11.7457
3538.1	8.20217
3540.625	9.82069
3543.15	7.36362
3545.68	9.71807
3548.21	9.24406
3550.74	6.33823
3553.27	13.4532
3555.8	8.98327
3558.33	9.95045
3560.86	9.41757
3563.39	8.92575
3565.92	5.96444
3568.45	9.42251
3570.98	9.68101
3573.51	11.4466
3576.04	7.1604
3578.57	9.27972
3581.1	8.70533
3583.63	10.8487
3586.16	10.7443
3588.69	13.66
3591.22	9.34778
3593.75	12.0339
3596.28	11.7
3598.81	10.1864
3601.34	7.89089
3603.87	11.2189
3606.4	10.056
3608.93	12.8105
3611.46	11.0659
3613.99	9.26821
3616.52	9.11778
3619.05	10.49
3621.58	9.66844
3624.11	11.1638
3626.64	10.1749
3629.17	8.71373
3631.7	10.7306
3634.23	10.495
3636.76	9.36102
3639.29	10.2892
3641.82	9.07023
3644.35	10.9646
3646.875	8.68617
3649.4	8.10593
3651.93	8.18347
3654.46	9.329
3656.99	8.30587
3659.52	7.14909
3662.05	8.58969
3664.58	13.0861
3667.11	9.37767
3669.64	9.85193
3672.17	11.541
3674.7	6.39529
3677.23	9.90133
3679.76	14.2625
3682.29	8.62667
3684.82	12.245
3687.35	12.3624
3689.88	5.20567
3692.41	14.8915
3694.94	12.1602
3697.47	10.1874
3700	11.7859