File: Example Data/Raman/CNT - TIM/Raytheon/Al foil/2010/07-02-10/Batch 13 - bottom.txt
400	109.457
401.517	105.45
403.035	104.276
404.552	114.689
406.069	120.98
407.587	109.92
409.104	123.794
410.621	120.502
412.138	121.117
413.656	115.662
415.173	114.297
416.69	117.119
418.208	113.256
419.725	115.875
421.242	114.825
422.76	119.432
424.277	119.571
425.794	120.467
427.312	118.675
428.829	113.988
430.346	115.66
431.863	119.752
433.381	116.378
434.898	114.762
436.415	111.154
437.933	121.266
439.45	118.745
440.967	112.94
442.485	109.104
444.002	112.353
445.519	114.761
447.036	105.966
448.554	114.407
450.071	111.267
451.588	112.603
453.106	113.085
454.623	105.712
456.14	114.494
457.658	112.175
459.175	101.75
460.692	107.167
462.21	107.782
463.727	105.386
465.244	107.897
466.762	112.222
468.279	112.173
469.796	106.585
471.313	120.396
472.831	115.432
474.348	101.392
475.865	95.7093
477.383	108.405
478.9	100.336
480.417	105.755
481.935	109.841
483.452	106.147
484.969	105.493
486.486	104.297
488.004	106.365
489.521	102.023
491.038	102.978
492.556	106.25
494.073	100.468
495.59	105.385
497.108	100.619
498.625	101.415
500.142	97.9552
501.66	103.227
503.177	89.306
504.694	104.385
506.211	88.147
507.729	94.1467
509.246	97.8052
510.763	91.6505
512.281	92.1203
513.798	93.7607
515.315	92.0206
516.833	97.5676
518.35	100.903
519.867	96.3706
521.385	100.988
522.902	96.6825
524.419	101.243
525.936	95.516
527.454	96.3348
528.971	86.4831
530.488	87.6788
532.006	92.7266
533.523	92.1477
535.04	96.9691
536.558	90.6529
538.075	93.159
539.592	92.261
541.11	96.4985
542.627	92.5343
544.144	96.1995
545.661	99.5499
547.179	95.875
548.696	100.779
550.213	97.391
551.731	93.002
553.248	99.4585
554.765	95.4704
556.283	104.111
557.8	91.5
559.317	97.9599
560.835	103.021
562.352	98.0719
563.869	98.204
565.386	100.386
566.904	99.8626
568.421	101.269
569.938	96.4818
571.456	99.542
572.973	94.6837
574.49	104.864
576.008	93.6721
577.525	91.3282
579.042	94.8613
580.56	98.2459
582.077	97.851
583.594	104.099
585.111	102.83
586.629	101.703
588.146	105.909
589.663	91.2678
591.181	106.86
592.698	91.8809
594.215	100.997
595.733	101.78
597.25	102.499
598.767	99.0845
600.284	103.257
601.802	100.031
603.319	101.024
604.836	99.4836
606.354	100.129
607.871	103.685
609.388	108.027
610.906	103.879
612.423	98.2793
613.94	105.28
615.458	101.36
616.975	110.022
618.492	108.237
620.009	106.057
621.527	103.767
623.044	104.601
624.561	103.07
626.079	102.745
627.596	98.5033
629.113	104.75
630.631	104.993
632.148	112.309
633.665	102.047
635.183	105.538
636.7	97.9191
638.217	97.9455
639.734	107.983
641.252	105.554
642.769	102.057
644.286	106.458
645.804	108.672
647.321	102.691
648.838	110.796
650.356	106.708
651.873	111.071
653.39	108.031
654.908	97.9065
656.425	110.696
657.942	112.689
659.459	115.138
660.977	113.012
662.494	111.739
664.011	110.331
665.529	106.223
667.046	101.887
668.563	111.204
670.081	109.967
671.598	116.29
673.115	113.657
674.633	111.743
676.15	115.699
677.667	117.124
679.184	110.991
680.702	103.723
682.219	111.357
683.736	111.086
685.254	120.837
686.771	110.996
688.288	115.83
689.806	118.282
691.323	115.662
692.84	103.974
694.358	103.549
695.875	109.025
697.392	116.461
698.909	111.629
700.427	112.785
701.944	110.024
703.461	121.358
704.979	117.27
706.496	117
708.013	118.843
709.531	119.789
711.048	120
712.565	108.881
714.083	124.8
715.6	117.138
717.117	111.973
718.634	122.289
720.152	121.078
721.669	117.55
723.186	121.201
724.704	118.799
726.221	114.3
727.738	132.26
729.256	122.588
730.773	130.477
732.29	121.943
733.807	130.181
735.325	126.007
736.842	127.865
738.359	131.096
739.877	127.487
741.394	128.661
742.911	133.807
744.429	128.472
745.946	132.482
747.463	127.354
748.981	124.752
750.498	126.068
752.015	130.832
753.532	129.259
755.05	136.184
756.567	133.129
758.084	126.998
759.602	140.363
761.119	133
762.636	136.627
764.154	133.523
765.671	133.405
767.188	135.851
768.706	134.531
770.223	127.025
771.74	145.574
773.257	144.299
774.775	139.163
776.292	134.553
777.809	147.31
779.327	133.946
780.844	136.07
782.361	146.402
783.879	144.022
785.396	131.939
786.913	141.182
788.431	138.437
789.948	155.563
791.465	140.67
792.982	135.4
794.5	141.474
796.017	142.714
797.534	132.732
799.052	144.313
800.569	133.086
802.086	151.091
803.604	147.715
805.121	142.553
806.638	149.013
808.156	154.996
809.673	146.817
811.19	146.051
812.707	152.637
814.225	151.474
815.742	151.551
817.259	149.391
818.777	154.404
820.294	148.652
821.811	149.945
823.329	157.832
824.846	155.013
826.363	152.245
827.88	155.921
829.398	156.195
830.915	158.131
832.432	157.004
833.95	150.18
835.467	149.3
836.984	150.525
838.502	141.535
840.019	156.419
841.536	158.631
843.054	152.556
844.571	159.272
846.088	158.256
847.606	158.896
849.123	154.672
850.64	150.602
852.157	156.25
853.675	167.097
855.192	156.116
856.709	153.599
858.227	159.399
859.744	153.877
861.261	156.679
862.779	150.93
864.296	156.184
865.813	152.07
867.331	143.761
868.848	147.181
870.365	147.044
871.882	144.528
873.4	140.036
874.917	151.038
876.434	137.461
877.952	141.615
879.469	138.775
880.986	148.114
882.504	134.124
884.021	134.554
885.538	131.427
887.055	131.487
888.573	135.973
890.09	136.358
891.607	126.758
893.125	132.677
894.642	132.221
896.159	142.789
897.677	122.41
899.194	124.512
900.711	129.154
902.229	126.55
903.746	129.112
905.263	134.969
906.78	124.423
908.298	121.422
909.815	120.659
911.332	128.018
912.85	125.059
914.367	131.649
915.884	129.026
917.402	126.459
918.919	125.471
920.436	130.592
921.954	123.454
923.471	123.337
924.988	127.356
926.505	122.062
928.023	116.81
929.54	126.939
931.057	119.539
932.575	122.648
934.092	123.229
935.609	122.35
937.127	120.338
938.644	118.916
940.161	128.314
941.679	124.735
943.196	117.517
944.713	131.865
946.23	123.982
947.748	115.829
949.265	122.62
950.782	114.387
952.3	121.669
953.817	123.286
955.334	124.901
956.852	119.995
958.369	121.125
959.886	120.478
961.404	124.457
962.921	118.307
964.438	113.803
965.955	126.15
967.473	122.14
968.99	130.887
970.507	119.121
972.025	126.407
973.542	125.619
975.059	119.479
976.577	123.111
978.094	125.042
979.611	125.078
981.128	127.376
982.646	121.817
984.163	133.954
985.68	125.667
987.198	127.296
988.715	126.542
990.232	136.581
991.75	130.299
993.267	127.284
994.784	138.668
996.302	135.191
997.819	134.857
999.336	135.068
1000.85	130.567
1002.37	139.357
1003.89	137.474
1005.41	132.002
1006.92	138.585
1008.44	134.52
1009.96	150.04
1011.47	146.496
1012.99	145.724
1014.51	135.467
1016.03	144.461
1017.54	151.069
1019.06	140.231
1020.58	143.18
1022.1	155.763
1023.61	150.829
1025.13	157.083
1026.65	148.289
1028.17	147.918
1029.68	156.42
1031.2	150.047
1032.72	158.527
1034.23	160.458
1035.75	159.644
1037.27	161.445
1038.79	163.692
1040.3	161.503
1041.82	159.175
1043.34	159.062
1044.86	171.765
1046.37	158.261
1047.89	173.455
1049.41	175.508
1050.92	168.398
1052.44	171.777
1053.96	171.881
1055.48	176.453
1056.99	173.745
1058.51	163.635
1060.03	183.624
1061.55	174.101
1063.06	173.101
1064.58	179.624
1066.1	178.574
1067.61	176.646
1069.13	171.149
1070.65	187.528
1072.17	177.377
1073.68	179.868
1075.2	185.983
1076.72	182.98
1078.24	186.85
1079.75	185.526
1081.27	188.008
1082.79	188.604
1084.31	189.662
1085.82	187.009
1087.34	193.152
1088.86	195.433
1090.37	189.164
1091.89	192.169
1093.41	188.909
1094.93	188.75
1096.44	199.514
1097.96	194.185
1099.48	199.78
1101	202.64
1102.51	199.32
1104.03	199.931
1105.55	204.307
1107.06	198
1108.58	196.781
1110.1	207.731
1111.62	204.004
1113.13	214.422
1114.65	213.049
1116.17	217.557
1117.69	214.925
1119.2	204.947
1120.72	215.789
1122.24	217.28
1123.76	220.314
1125.27	227.137
1126.79	209.051
1128.31	234.202
1129.82	215.578
1131.34	234.596
1132.86	239.13
1134.38	237.219
1135.89	243.08
1137.41	232.748
1138.93	229.515
1140.45	255.916
1141.96	246.236
1143.48	246.091
1145	244.463
1146.51	241.533
1148.03	247.632
1149.55	256.849
1151.07	244.024
1152.58	244.62
1154.1	252.238
1155.62	252.147
1157.14	269.283
1158.65	250.784
1160.17	274.804
1161.69	262.943
1163.21	265.624
1164.72	266.5
1166.24	265.564
1167.76	260.924
1169.27	256.612
1170.79	270.522
1172.31	262.949
1173.83	267.495
1175.34	269.352
1176.86	276.58
1178.38	267.604
1179.9	276.937
1181.41	273.732
1182.93	277.185
1184.45	276.622
1185.96	287.113
1187.48	284.493
1189	284.027
1190.52	277.568
1192.03	279.544
1193.55	281.979
1195.07	283.145
1196.59	296.912
1198.1	282.552
1199.62	295.455
1201.14	286.319
1202.66	289.993
1204.17	291.532
1205.69	296.244
1207.21	299.719
1208.72	299.275
1210.24	299.953
1211.76	298.825
1213.28	306.626
1214.79	292.711
1216.31	308.118
1217.83	307.46
1219.35	320.549
1220.86	314.617
1222.38	316.248
1223.9	317.723
1225.41	317.712
1226.93	317.04
1228.45	327.701
1229.97	349.086
1231.48	333.111
1233	328.054
1234.52	344.302
1236.04	353.816
1237.55	355.84
1239.07	361.963
1240.59	350.765
1242.11	348.884
1243.62	361.681
1245.14	364.623
1246.66	376.22
1248.17	387.575
1249.69	379.195
1251.21	383.944
1252.73	404.847
1254.24	390.631
1255.76	404.156
1257.28	394.842
1258.8	415.075
1260.31	427.441
1261.83	430.144
1263.35	431.256
1264.86	440.039
1266.38	440.034
1267.9	454.456
1269.42	444.848
1270.93	454.815
1272.45	479.063
1273.97	466.808
1275.49	490.632
1277	479.142
1278.52	489.002
1280.04	500.069
1281.56	498.159
1283.07	524.938
1284.59	549.289
1286.11	542.371
1287.62	553.494
1289.14	560.265
1290.66	581.844
1292.18	587.831
1293.69	575.533
1295.21	611.571
1296.73	621.203
1298.25	605.349
1299.76	646.411
1301.28	695.583
1302.8	684.653
1304.31	680.799
1305.83	710.757
1307.35	709.262
1308.87	752.902
1310.38	741.98
1311.9	769.439
1313.42	788.536
1314.94	810.746
1316.45	838.936
1317.97	848.715
1319.49	863.513
1321.01	885.237
1322.52	890.536
1324.04	886.685
1325.56	927.648
1327.07	971.994
1328.59	974.313
1330.11	961.706
1331.63	998.182
1333.14	1023.52
1334.66	1036.51
1336.18	1028.85
1337.7	1041.05
1339.21	1036.81
1340.73	1033.74
1342.25	1051.32
1343.76	1053.43
1345.28	1043.69
1346.8	1055.36
1348.32	1029.03
1349.83	1038.03
1351.35	1049.77
1352.87	1016.9
1354.39	996.146
1355.9	970.575
1357.42	968.336
1358.94	966.131
1360.46	946.711
1361.97	921.347
1363.49	916.925
1365.01	888.89
1366.52	888.729
1368.04	842.26
1369.56	844.452
1371.08	830.919
1372.59	810.396
1374.11	778.258
1375.63	797.893
1377.15	761.548
1378.66	756.058
1380.18	734.942
1381.7	720.366
1383.21	705.45
1384.73	698.387
1386.25	686.226
1387.77	667.577
1389.28	649.235
1390.8	644.041
1392.32	632.719
1393.84	618.664
1395.35	624.068
1396.87	599.379
1398.39	593.619
1399.91	582.513
1401.42	554.09
1402.94	567.938
1404.46	546.717
1405.97	549.093
1407.49	526.373
1409.01	541.463
1410.53	516.475
1412.04	546.044
1413.56	527.893
1415.08	504.915
1416.6	498.06
1418.11	506.249
1419.63	512.471
1421.15	489.301
1422.66	488.169
1424.18	483.841
1425.7	477.502
1427.22	491.75
1428.73	476.185
1430.25	464.475
1431.77	454.036
1433.29	480.904
1434.8	448.116
1436.32	466.077
1437.84	464.32
1439.36	449.535
1440.87	458.404
1442.39	472.422
1443.91	456.675
1445.42	433.455
1446.94	452.933
1448.46	441.794
1449.98	448.254
1451.49	420.382
1453.01	441.816
1454.53	439.12
1456.05	443.25
1457.56	437.608
1459.08	445.611
1460.6	443.757
1462.11	448.173
1463.63	451.38
1465.15	434.507
1466.67	445.849
1468.18	443.676
1469.7	441.827
1471.22	446.049
1472.74	434.144
1474.25	440.475
1475.77	430.662
1477.29	423.62
1478.81	414.636
1480.32	439.748
1481.84	435.095
1483.36	425.398
1484.87	429.3
1486.39	450.989
1487.91	443.972
1489.43	434.729
1490.94	446.545
1492.46	440.675
1493.98	436.905
1495.5	452.301
1497.01	448.086
1498.53	437.045
1500.05	429.781
1501.56	452.571
1503.08	443.111
1504.6	447.154
1506.12	426.595
1507.63	451.294
1509.15	453.718
1510.67	445.624
1512.19	452.57
1513.7	456.174
1515.22	462.57
1516.74	454.193
1518.26	462.821
1519.77	468
1521.29	464.038
1522.81	488.825
1524.32	486.899
1525.84	481.13
1527.36	484.236
1528.88	492.248
1530.39	488.655
1531.91	494.259
1533.43	499.725
1534.95	507.28
1536.46	507.78
1537.98	521.518
1539.5	529.152
1541.01	529.884
1542.53	537.78
1544.05	555.507
1545.57	559.233
1547.08	568.919
1548.6	581.129
1550.12	593.433
1551.64	599.151
1553.15	615.373
1554.67	638.097
1556.19	648.912
1557.71	678.814
1559.22	676.891
1560.74	685.444
1562.26	713.047
1563.77	719.929
1565.29	716.266
1566.81	737.729
1568.33	742.399
1569.84	779.266
1571.36	770.957
1572.88	802.029
1574.4	818.024
1575.91	829.152
1577.43	851.55
1578.95	850.267
1580.46	873.088
1581.98	869.918
1583.5	895.317
1585.02	907.807
1586.53	899.393
1588.05	899.312
1589.57	915.091
1591.09	920.99
1592.6	915.464
1594.12	916.568
1595.64	925.401
1597.16	909.561
1598.67	917.478
1600.19	897.675
1601.71	895.585
1603.22	899.629
1604.74	877.091
1606.26	868.06
1607.78	857.361
1609.29	847.594
1610.81	837.974
1612.33	812.597
1613.85	798.719
1615.36	779.327
1616.88	741.734
1618.4	729.664
1619.91	706.602
1621.43	687.505
1622.95	652.552
1624.47	642.102
1625.98	610.969
1627.5	592.93
1629.02	563.167
1630.54	536.982
1632.05	521.191
1633.57	508.439
1635.09	481.127
1636.6	464.647
1638.12	441.358
1639.64	413.402
1641.16	396.818
1642.67	388.298
1644.19	368.831
1645.71	352.824
1647.23	349.723
1648.74	325.58
1650.26	315.937
1651.78	307.642
1653.3	291.05
1654.81	280.486
1656.33	276.766
1657.85	261.252
1659.36	239.567
1660.88	243.187
1662.4	225.198
1663.92	228.277
1665.43	212.15
1666.95	201.272
1668.47	193.284
1669.99	189.073
1671.5	182.829
1673.02	176.121
1674.54	171.888
1676.06	166.203
1677.57	164.276
1679.09	154.166
1680.61	150.185
1682.12	143.076
1683.64	143.059
1685.16	138.797
1686.68	135.031
1688.19	130.372
1689.71	123.794
1691.23	126.776
1692.75	129.749
1694.26	117.597
1695.78	119.187
1697.3	120.979
1698.81	112.687
1700.33	108.765
1701.85	108.912
1703.37	111.575
1704.88	105.667
1706.4	105.923
1707.92	110.484
1709.44	102.519
1710.95	98.7842
1712.47	96.622
1713.99	99.0729
1715.51	102.619
1717.02	97.6588
1718.54	101.48
1720.06	91.5983
1721.57	101.125
1723.09	99.0035
1724.61	95.4503
1726.13	91.2625
1727.64	88.7067
1729.16	88.482
1730.68	85.9019
1732.2	90.9537
1733.71	88.2621
1735.23	89.7335
1736.75	89.1822
1738.26	88.007
1739.78	80.7882
1741.3	85.3844
1742.82	90.6218
1744.33	83.1526
1745.85	83.6497
1747.37	80.5583
1748.89	86.6952
1750.4	81.5451
1751.92	77.3272
1753.44	80.273
1754.95	82.4225
1756.47	84.7512
1757.99	78.8236
1759.51	78.767
1761.02	76.7542
1762.54	74.5767
1764.06	83.5668
1765.58	79.4124
1767.09	81.1529
1768.61	73.9556
1770.13	78.0129
1771.65	82.1893
1773.16	79.9686
1774.68	80.6542
1776.2	81.1743
1777.71	81.6413
1779.23	75.7308
1780.75	77.694
1782.27	73.96
1783.78	71.2257
1785.3	73.8754
1786.82	76.1862
1788.34	73.4358
1789.85	75.8062
1791.37	77.3702
1792.89	72.7373
1794.4	75.222
1795.92	75.1163
1797.44	73.3362
1798.96	75.2833
1800.47	72.7325
1801.99	77.194
1803.51	80.2289
1805.03	76.5332
1806.54	72.4114
1808.06	73.5847
1809.58	74.7746
1811.1	70.4941
1812.61	71.2678
1814.13	71.4411
1815.65	70.1885
1817.16	74.9313
1818.68	75.8622
1820.2	68.7953
1821.72	75.0303
1823.23	68.8091
1824.75	71.8773
1826.27	71.9017
1827.79	77.5718
1829.3	77.2785
1830.82	71.8423
1832.34	74.3104
1833.85	70.4926
1835.37	78.7983
1836.89	75.2632
1838.41	75.1426
1839.92	71.4878
1841.44	75.7415
1842.96	70.7172
1844.48	74.664
1845.99	73.2291
1847.51	74.9733
1849.03	72.3394
1850.55	75.4208
1852.06	76.3811
1853.58	74.2849
1855.1	73.9665
1856.61	74.6447
1858.13	70.6764
1859.65	72.5784
1861.17	69.5075
1862.68	70.322
1864.2	69.3871
1865.72	69.8217
1867.24	70.0335
1868.75	75.1922
1870.27	71.2667
1871.79	70.3454
1873.3	70.4856
1874.82	72.7137
1876.34	78.182
1877.86	70.0294
1879.37	73.1808
1880.89	71.052
1882.41	73.3338
1883.93	76.625
1885.44	71.7343
1886.96	69.7478
1888.48	66.7739
1890	69.7639
1891.51	67.8352
1893.03	75.4031
1894.55	67.5589
1896.06	67.7303
1897.58	72.5003
1899.1	72.179
1900.62	69.4443
1902.13	75.4798
1903.65	72.3287
1905.17	76.7361
1906.69	72.2314
1908.2	74.7365
1909.72	82.2082
1911.24	72.1833
1912.75	74.3341
1914.27	70.1665
1915.79	68.0128
1917.31	67.129
1918.82	70.9929
1920.34	65.4854
1921.86	67.8775
1923.38	70.4402
1924.89	66.6955
1926.41	72.9144
1927.93	76.0106
1929.45	66.2665
1930.96	70.6445
1932.48	72.4104
1934	68.7039
1935.51	69.7246
1937.03	64.5376
1938.55	68.6517
1940.07	74.7851
1941.58	71.8825
1943.1	67.7522
1944.62	68.2013
1946.14	71.7719
1947.65	78.4929
1949.17	70.2111
1950.69	72.364
1952.2	65.8333
1953.72	67.8352
1955.24	69.7349
1956.76	72.2828
1958.27	71.9397
1959.79	76.7496
1961.31	69.5475
1962.83	62.5322
1964.34	69.3691
1965.86	70.2202
1967.38	68.1386
1968.9	68.6115
1970.41	68.2844
1971.93	69.9415
1973.45	68.8857
1974.96	77
1976.48	68.4248
1978	68.5346
1979.52	69.477
1981.03	72.2442
1982.55	73.8283
1984.07	67.1657
1985.59	73.2432
1987.1	70.3003
1988.62	67.2486
1990.14	75.5982
1991.65	74.4167
1993.17	72.284
1994.69	67.9167
1996.21	67.8938
1997.72	73.2546
1999.24	66.9262
2000	72.6658