File: Example Data/Raman/CNT - TIM/Raytheon/Al foil/2010/07-02-10/Batch 13 - top.txt
400	86.3322
401.517	91.6116
403.035	92.8561
404.552	96.4364
406.069	93.914
407.587	87.3352
409.104	90.6754
410.621	92.4177
412.138	92.1834
413.656	87.7356
415.173	87.4804
416.69	93.7404
418.208	92.6622
419.725	82.1716
421.242	89.8736
422.76	87.4892
424.277	97.4191
425.794	85.275
427.312	87.3701
428.829	86.928
430.346	87.25
431.863	91.1219
433.381	87.9776
434.898	86.3955
436.415	89.9231
437.933	91.5392
439.45	85.7801
440.967	86.2432
442.485	88.1257
444.002	80.3806
445.519	86.3978
447.036	78.0899
448.554	87.1014
450.071	88.3715
451.588	87.1283
453.106	86.7256
454.623	86.6137
456.14	85.9383
457.658	90.6611
459.175	76.9469
460.692	84.8334
462.21	78.7374
463.727	75.6082
465.244	83.5214
466.762	86.7189
468.279	84.2884
469.796	85.7148
471.313	92.191
472.831	79.8845
474.348	85.2151
475.865	81.264
477.383	82.2512
478.9	81.0057
480.417	85.4008
481.935	86.25
483.452	86.2549
484.969	77.7837
486.486	90.7665
488.004	72.809
489.521	80.2
491.038	81.3371
492.556	77.2507
494.073	80.6084
495.59	80.8816
497.108	71.3493
498.625	83.3351
500.142	81.2926
501.66	81.3969
503.177	75.8995
504.694	82.9005
506.211	70.7641
507.729	71.844
509.246	78.5291
510.763	74.278
512.281	75.0964
513.798	77.9786
515.315	79.2706
516.833	78.5736
518.35	76.1663
519.867	73.8095
521.385	80.1466
522.902	75.4124
524.419	77.9119
525.936	76.328
527.454	77.3431
528.971	73.759
530.488	77.3328
532.006	75.6904
533.523	71.9065
535.04	69.2809
536.558	79.4927
538.075	79.1311
539.592	72.8398
541.11	74.6228
542.627	78.75
544.144	67.7945
545.661	75.96
547.179	74.1561
548.696	77.3827
550.213	72.25
551.731	75.37
553.248	77.3417
554.765	79.2903
556.283	72.4473
557.8	74.3823
559.317	79.127
560.835	77.9504
562.352	80.4684
563.869	74.5725
565.386	80.4093
566.904	78.4154
568.421	75.1291
569.938	75.6066
571.456	75.2323
572.973	83.9692
574.49	74.3826
576.008	73.5617
577.525	72.3596
579.042	72.0013
580.56	73.6527
582.077	84.4994
583.594	73.6547
585.111	77.773
586.629	75.0945
588.146	73.6323
589.663	84.655
591.181	84.2521
592.698	74.4025
594.215	86.3736
595.733	69.4878
597.25	76.0003
598.767	83.1707
600.284	81.2574
601.802	82.0591
603.319	76.8278
604.836	76.5658
606.354	78.8191
607.871	78.6845
609.388	79.71
610.906	82.2643
612.423	78.0711
613.94	77.0609
615.458	83.4466
616.975	83.8848
618.492	81.3872
620.009	83.3266
621.527	78.8242
623.044	77.6439
624.561	80.8945
626.079	80.9594
627.596	79.1424
629.113	85.538
630.631	76.2674
632.148	82.0754
633.665	89.025
635.183	84.2922
636.7	77.9119
638.217	89.9704
639.734	80.8577
641.252	83.4124
642.769	87.641
644.286	85.8137
645.804	88.3039
647.321	80.2938
648.838	86.5657
650.356	85.6897
651.873	90.0716
653.39	84.0491
654.908	94.3467
656.425	87.9866
657.942	86.3294
659.459	88.383
660.977	98.2428
662.494	86.7561
664.011	89.2707
665.529	88.031
667.046	94.8032
668.563	82.1284
670.081	93.4239
671.598	89.7316
673.115	96.1833
674.633	95.9947
676.15	93.0839
677.667	95.9499
679.184	94.5363
680.702	92.5075
682.219	88.465
683.736	94.0683
685.254	87.6648
686.771	91.8574
688.288	94.3067
689.806	96.7879
691.323	89.3431
692.84	95.8159
694.358	85.1359
695.875	95.7081
697.392	95.4606
698.909	95.6846
700.427	91.6219
701.944	95.6016
703.461	98.0106
704.979	95.663
706.496	95.8155
708.013	98.7963
709.531	93.1055
711.048	102.625
712.565	101.667
714.083	96.3242
715.6	97.056
717.117	91.0775
718.634	98.4689
720.152	104.164
721.669	96.6979
723.186	98.8509
724.704	103.444
726.221	96.55
727.738	100.628
729.256	103.022
730.773	99.8154
732.29	98.8607
733.807	95.9827
735.325	101.362
736.842	106.56
738.359	109.443
739.877	100.525
741.394	112.412
742.911	94.3265
744.429	102.417
745.946	108.582
747.463	107.354
748.981	107.7
750.498	102.238
752.015	107.669
753.532	115.139
755.05	109.995
756.567	106.75
758.084	115.86
759.602	103.221
761.119	121.834
762.636	109.978
764.154	115.914
765.671	109.905
767.188	110.102
768.706	114.113
770.223	110.652
771.74	114.962
773.257	113.964
774.775	113.069
776.292	118.242
777.809	113.973
779.327	120.818
780.844	115.114
782.361	117.215
783.879	109.141
785.396	119.173
786.913	116.132
788.431	112.415
789.948	120.074
791.465	118.663
792.982	124.461
794.5	125.101
796.017	122.522
797.534	125.366
799.052	122.162
800.569	119.432
802.086	122.825
803.604	122.418
805.121	127.492
806.638	120.38
808.156	118.668
809.673	118.7
811.19	131.748
812.707	126.178
814.225	127.881
815.742	123.63
817.259	129.151
818.777	130.397
820.294	127.542
821.811	121.341
823.329	134.796
824.846	129.386
826.363	127.344
827.88	128.535
829.398	129.643
830.915	131.204
832.432	126.583
833.95	137.233
835.467	130.675
836.984	128.601
838.502	136.238
840.019	139.774
841.536	135.948
843.054	134.127
844.571	129.915
846.088	138.622
847.606	134.114
849.123	128.97
850.64	131.205
852.157	129.714
853.675	137.6
855.192	139.591
856.709	134.058
858.227	132.701
859.744	136.484
861.261	133.237
862.779	126.057
864.296	140.352
865.813	127.779
867.331	127.78
868.848	127.286
870.365	124.041
871.882	119.732
873.4	127.174
874.917	121.923
876.434	116.823
877.952	119.948
879.469	118.33
880.986	111.736
882.504	112.125
884.021	116.67
885.538	116.775
887.055	106.433
888.573	111.439
890.09	113.581
891.607	103.453
893.125	105.429
894.642	111.54
896.159	103.793
897.677	102.981
899.194	105.204
900.711	102.433
902.229	103.011
903.746	108.233
905.263	107.91
906.78	105.077
908.298	100.891
909.815	96.3681
911.332	92.4795
912.85	94.9757
914.367	95.4772
915.884	99.2441
917.402	105.426
918.919	101.362
920.436	95.7024
921.954	95.2119
923.471	102.188
924.988	103.569
926.505	99.75
928.023	84.9372
929.54	89.3436
931.057	96.9876
932.575	88.1994
934.092	94.2522
935.609	99.8662
937.127	91.75
938.644	93.918
940.161	90.1782
941.679	99.3877
943.196	94.219
944.713	100.662
946.23	94.8925
947.748	98.2907
949.265	89.2051
950.782	89.5616
952.3	97.8088
953.817	95.1072
955.334	100.957
956.852	94.3379
958.369	92.2495
959.886	95.8067
961.404	95.521
962.921	93.2397
964.438	94.8244
965.955	92.6217
967.473	91.8604
968.99	90.5565
970.507	98.7411
972.025	97.5774
973.542	98.1102
975.059	97.7438
976.577	91.756
978.094	98.6968
979.611	96.6681
981.128	96.0582
982.646	93.6096
984.163	100.178
985.68	96.0945
987.198	92.0065
988.715	96.3541
990.232	95.7643
991.75	100.751
993.267	103.896
994.784	103.911
996.302	101.948
997.819	104.975
999.336	102.604
1000.85	108.265
1002.37	109.102
1003.89	106.175
1005.41	100.969
1006.92	109.508
1008.44	106.12
1009.96	103.515
1011.47	109.493
1012.99	107
1014.51	112.836
1016.03	101.422
1017.54	115.28
1019.06	110.867
1020.58	115.086
1022.1	111.514
1023.61	115.384
1025.13	117.293
1026.65	112.5
1028.17	118.674
1029.68	114.25
1031.2	121.868
1032.72	115.947
1034.23	122.584
1035.75	113.736
1037.27	119.463
1038.79	122.48
1040.3	125.787
1041.82	128.663
1043.34	117.266
1044.86	120.881
1046.37	124.917
1047.89	129.118
1049.41	122.695
1050.92	119.385
1052.44	124.658
1053.96	137.918
1055.48	129.614
1056.99	135.378
1058.51	124.5
1060.03	136.883
1061.55	137.681
1063.06	133.948
1064.58	127.473
1066.1	131.93
1067.61	139.396
1069.13	136.066
1070.65	127.961
1072.17	134.58
1073.68	129.844
1075.2	132.586
1076.72	133.535
1078.24	139.29
1079.75	144.537
1081.27	138.91
1082.79	139.857
1084.31	140.243
1085.82	135.262
1087.34	148.433
1088.86	144.115
1090.37	143.424
1091.89	144.913
1093.41	146.318
1094.93	146.946
1096.44	149.079
1097.96	143.95
1099.48	153.437
1101	154.792
1102.51	150.656
1104.03	147.848
1105.55	149.608
1107.06	160.674
1108.58	157.659
1110.1	155.546
1111.62	157.054
1113.13	156.276
1114.65	165.34
1116.17	159.63
1117.69	152.285
1119.2	175.79
1120.72	166.852
1122.24	160.575
1123.76	156.392
1125.27	157.683
1126.79	164.12
1128.31	162.046
1129.82	177.06
1131.34	182.642
1132.86	170.665
1134.38	173.005
1135.89	174.507
1137.41	191.479
1138.93	179.938
1140.45	181.503
1141.96	182.652
1143.48	177.764
1145	180.887
1146.51	181.208
1148.03	187.206
1149.55	179.911
1151.07	179.955
1152.58	185.126
1154.1	182.676
1155.62	183.158
1157.14	186.117
1158.65	190.815
1160.17	184.882
1161.69	187.918
1163.21	184.243
1164.72	188.044
1166.24	193.008
1167.76	195.672
1169.27	195.74
1170.79	193.68
1172.31	194.392
1173.83	194.484
1175.34	205.935
1176.86	193.672
1178.38	202.076
1179.9	206.606
1181.41	195.171
1182.93	206.318
1184.45	196.643
1185.96	205.607
1187.48	202.479
1189	203.334
1190.52	203.642
1192.03	202.937
1193.55	205.745
1195.07	206.493
1196.59	204.535
1198.1	206.041
1199.62	213.771
1201.14	206.051
1202.66	213.222
1204.17	210.592
1205.69	214.474
1207.21	216.42
1208.72	214.776
1210.24	216.634
1211.76	221.83
1213.28	222.993
1214.79	222.665
1216.31	228.009
1217.83	217.498
1219.35	224.338
1220.86	227.751
1222.38	230.536
1223.9	228.437
1225.41	219.085
1226.93	240.166
1228.45	231.743
1229.97	235.494
1231.48	238.487
1233	246.434
1234.52	244.81
1236.04	246.992
1237.55	252.704
1239.07	249.133
1240.59	255.807
1242.11	265.557
1243.62	254.273
1245.14	250.502
1246.66	267.665
1248.17	265.75
1249.69	272.474
1251.21	270.131
1252.73	276.449
1254.24	273.137
1255.76	292.196
1257.28	287.528
1258.8	286.053
1260.31	294.468
1261.83	295.451
1263.35	301.069
1264.86	298.641
1266.38	308.642
1267.9	302.921
1269.42	319.419
1270.93	329.29
1272.45	314.385
1273.97	338.51
1275.49	334.398
1277	345.357
1278.52	345.901
1280.04	365.464
1281.56	370.612
1283.07	370.894
1284.59	357.866
1286.11	384.069
1287.62	380.382
1289.14	392.17
1290.66	395.075
1292.18	399.639
1293.69	422.74
1295.21	435.712
1296.73	444.845
1298.25	450.962
1299.76	472.97
1301.28	485.28
1302.8	486.413
1304.31	487.765
1305.83	503.51
1307.35	516
1308.87	538.935
1310.38	530.043
1311.9	556.593
1313.42	587.992
1314.94	595.92
1316.45	612.359
1317.97	624.701
1319.49	634.5
1321.01	657.227
1322.52	649.345
1324.04	673.935
1325.56	679.129
1327.07	696.655
1328.59	713.318
1330.11	737.814
1331.63	734.262
1333.14	761.475
1334.66	770.56
1336.18	783.903
1337.7	788.054
1339.21	802.681
1340.73	796.852
1342.25	823.892
1343.76	830.071
1345.28	822.54
1346.8	821.302
1348.32	803.117
1349.83	807.441
1351.35	826.833
1352.87	827.3
1354.39	804.823
1355.9	798.672
1357.42	780.469
1358.94	809.978
1360.46	784.928
1361.97	763.881
1363.49	727.067
1365.01	733.745
1366.52	698.587
1368.04	700.83
1369.56	686.124
1371.08	680.322
1372.59	672.994
1374.11	657.102
1375.63	642.062
1377.15	613.201
1378.66	613.201
1380.18	587.331
1381.7	580.143
1383.21	577.48
1384.73	571.01
1386.25	543.632
1387.77	536.645
1389.28	534.143
1390.8	508.447
1392.32	502.405
1393.84	501.843
1395.35	480.367
1396.87	480.905
1398.39	475.084
1399.91	464.128
1401.42	456.46
1402.94	473.083
1404.46	451.334
1405.97	437.913
1407.49	459.77
1409.01	420.805
1410.53	418.272
1412.04	419.263
1413.56	414.575
1415.08	400.737
1416.6	391.417
1418.11	394.784
1419.63	386.199
1421.15	390.854
1422.66	386.533
1424.18	376.632
1425.7	382.149
1427.22	372.75
1428.73	367.631
1430.25	363.211
1431.77	366.429
1433.29	353.831
1434.8	351.534
1436.32	342.483
1437.84	356.371
1439.36	353.823
1440.87	345.827
1442.39	347.533
1443.91	340.134
1445.42	346.328
1446.94	345.344
1448.46	354.912
1449.98	339.245
1451.49	339.146
1453.01	346.196
1454.53	341.863
1456.05	338.722
1457.56	344.131
1459.08	336.722
1460.6	346.058
1462.11	338.424
1463.63	342.067
1465.15	335.581
1466.67	337.193
1468.18	341.907
1469.7	345.268
1471.22	331.024
1472.74	338.842
1474.25	330.477
1475.77	328.16
1477.29	327.213
1478.81	331.285
1480.32	343.999
1481.84	329.795
1483.36	339.042
1484.87	345.519
1486.39	337.71
1487.91	333.361
1489.43	337.178
1490.94	326.672
1492.46	329.591
1493.98	346.628
1495.5	344.219
1497.01	333.388
1498.53	326.332
1500.05	343.964
1501.56	342.29
1503.08	326.064
1504.6	335.721
1506.12	343.376
1507.63	340.814
1509.15	342.032
1510.67	337.378
1512.19	347.695
1513.7	341.378
1515.22	344.574
1516.74	341.596
1518.26	360.013
1519.77	341.749
1521.29	349
1522.81	361.423
1524.32	354.354
1525.84	356.788
1527.36	363.568
1528.88	377.541
1530.39	361.608
1531.91	364.101
1533.43	372.997
1534.95	372.896
1536.46	371.806
1537.98	378.264
1539.5	400.93
1541.01	382.782
1542.53	396.869
1544.05	403.411
1545.57	425.839
1547.08	417.919
1548.6	431.14
1550.12	438.263
1551.64	429.119
1553.15	478.42
1554.67	460.918
1556.19	477.061
1557.71	495.83
1559.22	513.478
1560.74	494.704
1562.26	507.262
1563.77	532.946
1565.29	533.004
1566.81	547.504
1568.33	571.349
1569.84	576.837
1571.36	603.528
1572.88	606.577
1574.4	594.244
1575.91	637.049
1577.43	627.144
1578.95	663.441
1580.46	659.083
1581.98	682.015
1583.5	700.878
1585.02	703.921
1586.53	722.904
1588.05	736.406
1589.57	723.821
1591.09	740.476
1592.6	766.45
1594.12	747.587
1595.64	741.323
1597.16	745.158
1598.67	741.306
1600.19	760.362
1601.71	728.886
1603.22	762.467
1604.74	754.405
1606.26	736.03
1607.78	725.415
1609.29	715.268
1610.81	704.3
1612.33	699.895
1613.85	695.361
1615.36	680.165
1616.88	654.224
1618.4	658.401
1619.91	640.364
1621.43	604.825
1622.95	595.955
1624.47	579.055
1625.98	558.115
1627.5	547.702
1629.02	512.762
1630.54	497.24
1632.05	479.131
1633.57	454.552
1635.09	449.479
1636.6	414.001
1638.12	388.896
1639.64	391.912
1641.16	366.735
1642.67	350.666
1644.19	331.448
1645.71	313.583
1647.23	309.337
1648.74	292.333
1650.26	277.87
1651.78	266.085
1653.3	254.076
1654.81	246.324
1656.33	243.52
1657.85	219.272
1659.36	210.853
1660.88	207.579
1662.4	200.765
1663.92	177.512
1665.43	177.855
1666.95	175.169
1668.47	158.917
1669.99	151.332
1671.5	146.769
1673.02	141.66
1674.54	137.864
1676.06	135.059
1677.57	130.247
1679.09	126.011
1680.61	112.021
1682.12	112.16
1683.64	106.771
1685.16	104.149
1686.68	101.649
1688.19	93.9198
1689.71	96.168
1691.23	94.5899
1692.75	88.4131
1694.26	84.6744
1695.78	79.9944
1697.3	80.5714
1698.81	80.984
1700.33	78.685
1701.85	75.7571
1703.37	76.1572
1704.88	75.3985
1706.4	75.1397
1707.92	72.7176
1709.44	66.0321
1710.95	69.0816
1712.47	67.7596
1713.99	63.2213
1715.51	64.9476
1717.02	62.9188
1718.54	62.0404
1720.06	68.0529
1721.57	55.3148
1723.09	61.426
1724.61	59.8278
1726.13	54.4606
1727.64	57.7854
1729.16	59.9491
1730.68	59.5381
1732.2	55.4931
1733.71	55.7259
1735.23	55.5075
1736.75	54.7657
1738.26	54.4881
1739.78	54.3427
1741.3	54.0541
1742.82	54.2093
1744.33	52.6471
1745.85	56.7725
1747.37	51.8791
1748.89	53.0799
1750.4	47.2784
1751.92	48.2301
1753.44	50.5185
1754.95	55.4832
1756.47	54.2935
1757.99	50.8325
1759.51	48.3292
1761.02	49.1736
1762.54	46.8788
1764.06	46.5144
1765.58	51.2473
1767.09	52.9487
1768.61	48.1087
1770.13	49.2807
1771.65	45.5037
1773.16	47.4695
1774.68	47.5473
1776.2	48.6494
1777.71	51.7553
1779.23	49.45
1780.75	47.7243
1782.27	48.0355
1783.78	45.2788
1785.3	45.4362
1786.82	47.1012
1788.34	49.3006
1789.85	45.5273
1791.37	51.3141
1792.89	45.6869
1794.4	44.8938
1795.92	44.6538
1797.44	46.2034
1798.96	43.5623
1800.47	43.3079
1801.99	45.0205
1803.51	47.8058
1805.03	49.5638
1806.54	44.1617
1808.06	45.2037
1809.58	46.8937
1811.1	44.3939
1812.61	39.0914
1814.13	42.082
1815.65	45.1276
1817.16	48.3409
1818.68	45.2397
1820.2	43.6289
1821.72	48.539
1823.23	48.4571
1824.75	46.3791
1826.27	45.2503
1827.79	43.9762
1829.3	47.1615
1830.82	41.7038
1832.34	46.5344
1833.85	46.0865
1835.37	41.0848
1836.89	46.5136
1838.41	46.6349
1839.92	42.9388
1841.44	43.3728
1842.96	46.6304
1844.48	52.5009
1845.99	46.1971
1847.51	45.7991
1849.03	46.4169
1850.55	42.4565
1852.06	42.4618
1853.58	50.0634
1855.1	49.986
1856.61	47.9629
1858.13	48.1195
1859.65	48.1951
1861.17	44.8046
1862.68	43.9432
1864.2	42.5077
1865.72	44.8065
1867.24	41.59
1868.75	53.0958
1870.27	46.4665
1871.79	47.4517
1873.3	46.1672
1874.82	41.6684
1876.34	38.7864
1877.86	41.193
1879.37	44.3768
1880.89	45.3819
1882.41	48.525
1883.93	44.2835
1885.44	44.8962
1886.96	43.129
1888.48	44.5459
1890	44.8447
1891.51	44.2556
1893.03	46.2112
1894.55	43.4711
1896.06	44.2149
1897.58	46.3749
1899.1	38.1885
1900.62	46.36
1902.13	48.1664
1903.65	47.2319
1905.17	42.5245
1906.69	43.8782
1908.2	42.0658
1909.72	36.464
1911.24	43.6835
1912.75	48.2522
1914.27	48.083
1915.79	38.8113
1917.31	41.4308
1918.82	43.6857
1920.34	42.7403
1921.86	44.4271
1923.38	47.451
1924.89	38.9455
1926.41	40.9238
1927.93	45.4985
1929.45	48.8544
1930.96	38.7001
1932.48	42.1902
1934	39.9949
1935.51	43.9276
1937.03	44.3916
1938.55	44.4574
1940.07	38.9554
1941.58	39.5152
1943.1	47.7404
1944.62	45.1337
1946.14	39.9337
1947.65	44.2904
1949.17	43.6385
1950.69	43.6042
1952.2	40.6969
1953.72	45.2367
1955.24	44.0454
1956.76	43.3276
1958.27	41.3184
1959.79	41.7015
1961.31	47.6621
1962.83	44.9543
1964.34	48.6635
1965.86	45.7362
1967.38	49.1657
1968.9	41.4331
1970.41	43.5964
1971.93	44.7477
1973.45	43.195
1974.96	46.804
1976.48	41.874
1978	47.3552
1979.52	39.1856
1981.03	38.7416
1982.55	41.8374
1984.07	44.9848
1985.59	44.2905
1987.1	47.0847
1988.62	48.9044
1990.14	48.1375
1991.65	42.7892
1993.17	46.3965
1994.69	48.4305
1996.21	46.2151
1997.72	46.8246
1999.24	42.4504
2000	44.9752