File: Example Data/Raman/CNT - TIM/Raytheon/Al foil/2010/06-23-10/Batch 12 - bottom_2.txt
400	113.294
401.517	109.096
403.035	110.595
404.552	114.409
406.069	109.955
407.587	107.829
409.104	103.608
410.621	105.986
412.138	111.8
413.656	107.314
415.173	116.246
416.69	110.575
418.208	109.188
419.725	109.771
421.242	110.3
422.76	109.105
424.277	117.673
425.794	119.26
427.312	103.887
428.829	106.88
430.346	105.805
431.863	104.144
433.381	104.947
434.898	111.333
436.415	108.526
437.933	100.532
439.45	114.148
440.967	107.967
442.485	104.889
444.002	107.36
445.519	99.651
447.036	106.539
448.554	107.524
450.071	102.875
451.588	100.932
453.106	102.488
454.623	102.342
456.14	107.49
457.658	110.486
459.175	103.441
460.692	107.664
462.21	105.163
463.727	101.568
465.244	113.215
466.762	100.797
468.279	105.846
469.796	104.884
471.313	101.554
472.831	111.284
474.348	109.928
475.865	104.734
477.383	111.4
478.9	106.13
480.417	106.058
481.935	103.353
483.452	98.9738
484.969	97.4374
486.486	90.9091
488.004	96.1261
489.521	92.3453
491.038	99.3195
492.556	98.666
494.073	101.058
495.59	100.741
497.108	97.8786
498.625	88.0638
500.142	88.2751
501.66	91.5369
503.177	91.3926
504.694	93.4448
506.211	94.3521
507.729	91.5718
509.246	95.394
510.763	92.0612
512.281	95.1489
513.798	89.9796
515.315	86.1689
516.833	88.2372
518.35	90.5639
519.867	83.7362
521.385	97.1098
522.902	101.905
524.419	98.507
525.936	95.3125
527.454	89.5969
528.971	89
530.488	96.4437
532.006	89.3994
533.523	92.4971
535.04	83.0589
536.558	98.7265
538.075	90.9542
539.592	89.8462
541.11	93.9181
542.627	79.366
544.144	90.3709
545.661	91.2934
547.179	84.25
548.696	92.1174
550.213	98.566
551.731	92.0613
553.248	101.365
554.765	96.2232
556.283	100.154
557.8	93.423
559.317	96.2779
560.835	95.58
562.352	91.3103
563.869	102.315
565.386	90.0658
566.904	91.4462
568.421	96.8171
569.938	94.7227
571.456	85.8732
572.973	91.245
574.49	96.7328
576.008	97.7976
577.525	96.0623
579.042	92.0433
580.56	100.548
582.077	97.4657
583.594	98.448
585.111	97.1814
586.629	98.0228
588.146	81.9057
589.663	105.568
591.181	96.4802
592.698	96.0434
594.215	94.3616
595.733	97.4768
597.25	104.663
598.767	102.208
600.284	102.796
601.802	101.963
603.319	98.8284
604.836	98.864
606.354	89.0616
607.871	94.1879
609.388	98.3066
610.906	92.7947
612.423	102.244
613.94	97.5854
615.458	99.8182
616.975	99.9354
618.492	91.7744
620.009	104.564
621.527	96.9104
623.044	109.448
624.561	100.3
626.079	109.179
627.596	103.238
629.113	109.117
630.631	102.982
632.148	97.5772
633.665	92.3167
635.183	110.712
636.7	101.255
638.217	97.7655
639.734	98.3383
641.252	104.781
642.769	105.052
644.286	106.785
645.804	110.216
647.321	108.207
648.838	115.466
650.356	112.669
651.873	103.873
653.39	111.202
654.908	107.546
656.425	106.886
657.942	103.623
659.459	102.631
660.977	110.34
662.494	104.34
664.011	105.844
665.529	109.37
667.046	113.53
668.563	113.87
670.081	111.957
671.598	113.054
673.115	105.305
674.633	109.003
676.15	108.613
677.667	109.802
679.184	109.781
680.702	111.176
682.219	115.39
683.736	109.59
685.254	115.703
686.771	111.659
688.288	111.783
689.806	108.979
691.323	120.015
692.84	110.382
694.358	110.74
695.875	107.222
697.392	110.727
698.909	115.024
700.427	110.956
701.944	110.935
703.461	120.382
704.979	107.685
706.496	119.334
708.013	112.22
709.531	118.144
711.048	115.334
712.565	122.881
714.083	116.245
715.6	108.823
717.117	120.594
718.634	115.807
720.152	119.175
721.669	121.568
723.186	120.511
724.704	119.071
726.221	123.833
727.738	119.994
729.256	118.251
730.773	123
732.29	115.962
733.807	122.211
735.325	122.368
736.842	116.16
738.359	125.241
739.877	126.548
741.394	122.588
742.911	130.022
744.429	132.739
745.946	116.921
747.463	129.328
748.981	125.002
750.498	135.365
752.015	119.349
753.532	125.467
755.05	136.29
756.567	129.833
758.084	127.389
759.602	131.54
761.119	136
762.636	125.945
764.154	139.62
765.671	129.018
767.188	136.01
768.706	137.978
770.223	129.758
771.74	134.89
773.257	128.267
774.775	134.494
776.292	135.909
777.809	133.68
779.327	132.947
780.844	138.797
782.361	139.456
783.879	139.377
785.396	141.979
786.913	129.658
788.431	137.637
789.948	142.667
791.465	132.664
792.982	131.9
794.5	145.776
796.017	136.457
797.534	145.449
799.052	146.984
800.569	150.927
802.086	140.028
803.604	143.776
805.121	147.761
806.638	153.079
808.156	140.203
809.673	148.001
811.19	149.289
812.707	151.134
814.225	150.158
815.742	151.795
817.259	147.244
818.777	142.262
820.294	141.259
821.811	153.649
823.329	150.605
824.846	140.054
826.363	155.9
827.88	157.908
829.398	158.536
830.915	145.112
832.432	148.548
833.95	157.757
835.467	148.933
836.984	156.198
838.502	164.33
840.019	154.811
841.536	157.094
843.054	155.768
844.571	149.238
846.088	150.821
847.606	146.371
849.123	153.604
850.64	154.785
852.157	153.81
853.675	161.036
855.192	151.155
856.709	158.155
858.227	158.268
859.744	158.834
861.261	156.906
862.779	162.299
864.296	150.611
865.813	151.851
867.331	148.989
868.848	146.176
870.365	136.731
871.882	133.263
873.4	142.497
874.917	146.515
876.434	142.547
877.952	145.885
879.469	130.395
880.986	137.851
882.504	139.667
884.021	134.567
885.538	129.017
887.055	135.555
888.573	135.829
890.09	140.204
891.607	134.333
893.125	135.489
894.642	129.673
896.159	135.553
897.677	134.918
899.194	131.837
900.711	129.569
902.229	129.505
903.746	125.697
905.263	114.17
906.78	117.403
908.298	115.709
909.815	113.45
911.332	121.167
912.85	108.572
914.367	125.836
915.884	112.789
917.402	112.703
918.919	117
920.436	122.673
921.954	118.545
923.471	123.271
924.988	123.241
926.505	110.028
928.023	117.675
929.54	111.267
931.057	119.397
932.575	115.601
934.092	123.078
935.609	111.734
937.127	115.663
938.644	111.667
940.161	117.535
941.679	107.517
943.196	112.81
944.713	119.575
946.23	115.477
947.748	106.493
949.265	114.711
950.782	126.854
952.3	109.87
953.817	112.619
955.334	114.815
956.852	121.051
958.369	119.14
959.886	112.398
961.404	111.575
962.921	117.255
964.438	123.454
965.955	114.142
967.473	121.352
968.99	119.842
970.507	113.988
972.025	119.74
973.542	120.655
975.059	120.847
976.577	116.096
978.094	125.139
979.611	122.54
981.128	115.235
982.646	127.146
984.163	111.499
985.68	121.853
987.198	124.002
988.715	117.162
990.232	120.378
991.75	119.332
993.267	127.34
994.784	116.801
996.302	128.894
997.819	125.255
999.336	115.699
1000.85	125.114
1002.37	126.59
1003.89	125.4
1005.41	133.517
1006.92	130.564
1008.44	137.147
1009.96	131.64
1011.47	135.67
1012.99	147.72
1014.51	140.223
1016.03	139.513
1017.54	137.362
1019.06	141.565
1020.58	141.104
1022.1	146.685
1023.61	143.415
1025.13	149.411
1026.65	149.082
1028.17	142.685
1029.68	153.308
1031.2	148.409
1032.72	143.743
1034.23	146.253
1035.75	144.186
1037.27	149.47
1038.79	155.55
1040.3	148.038
1041.82	159.683
1043.34	153.784
1044.86	160.914
1046.37	142.621
1047.89	161.12
1049.41	148.021
1050.92	158.136
1052.44	164.136
1053.96	164.768
1055.48	171.644
1056.99	162.502
1058.51	155.219
1060.03	159.675
1061.55	175.286
1063.06	161.23
1064.58	160.004
1066.1	164.638
1067.61	167.261
1069.13	169.297
1070.65	174.254
1072.17	177.055
1073.68	162.068
1075.2	173.725
1076.72	174.964
1078.24	162.573
1079.75	172.039
1081.27	174.672
1082.79	176.424
1084.31	193.557
1085.82	176.354
1087.34	177.333
1088.86	179.265
1090.37	177.736
1091.89	184.001
1093.41	174.97
1094.93	188.404
1096.44	185.226
1097.96	189.7
1099.48	181.841
1101	191.459
1102.51	189.323
1104.03	187.348
1105.55	191.083
1107.06	182.45
1108.58	202.923
1110.1	192.701
1111.62	204.506
1113.13	200.822
1114.65	194.459
1116.17	197.189
1117.69	206.419
1119.2	201.193
1120.72	211.086
1122.24	203.984
1123.76	209.165
1125.27	209.183
1126.79	201.033
1128.31	220.141
1129.82	213.841
1131.34	219.174
1132.86	221.755
1134.38	209.466
1135.89	217.034
1137.41	230.34
1138.93	226.772
1140.45	216.586
1141.96	216.915
1143.48	235.411
1145	232.319
1146.51	238.585
1148.03	231.973
1149.55	249.905
1151.07	237.781
1152.58	248.695
1154.1	240.762
1155.62	240.078
1157.14	246.387
1158.65	253.609
1160.17	257.856
1161.69	259.988
1163.21	251.351
1164.72	250.806
1166.24	256.056
1167.76	243.91
1169.27	261.551
1170.79	253.499
1172.31	260.82
1173.83	260.92
1175.34	259.198
1176.86	256.43
1178.38	264.41
1179.9	265.464
1181.41	263.355
1182.93	267.823
1184.45	254.73
1185.96	278.33
1187.48	257.199
1189	276.076
1190.52	265.553
1192.03	266.641
1193.55	272.697
1195.07	281.929
1196.59	269.774
1198.1	283.557
1199.62	277.902
1201.14	275.934
1202.66	287.479
1204.17	283.409
1205.69	281.049
1207.21	287.58
1208.72	292.453
1210.24	287.802
1211.76	302.54
1213.28	301.715
1214.79	298.748
1216.31	291.41
1217.83	296.26
1219.35	303.429
1220.86	314.881
1222.38	285.175
1223.9	294.649
1225.41	298.977
1226.93	311.721
1228.45	320.408
1229.97	323.102
1231.48	314.259
1233	319.269
1234.52	329.831
1236.04	311.772
1237.55	329.909
1239.07	331.485
1240.59	347.427
1242.11	346.217
1243.62	345.673
1245.14	350.17
1246.66	339.436
1248.17	357.306
1249.69	355.248
1251.21	357.358
1252.73	358.905
1254.24	366.957
1255.76	371.525
1257.28	380.125
1258.8	384.656
1260.31	390.042
1261.83	398.609
1263.35	391.326
1264.86	395.242
1266.38	408.478
1267.9	413.044
1269.42	428.42
1270.93	407.609
1272.45	441.498
1273.97	428.978
1275.49	429.414
1277	433.904
1278.52	449.101
1280.04	464.282
1281.56	459.032
1283.07	477.366
1284.59	472.378
1286.11	493.331
1287.62	497.641
1289.14	495.18
1290.66	536.108
1292.18	522.308
1293.69	548.369
1295.21	563.686
1296.73	557.334
1298.25	569.667
1299.76	594.684
1301.28	585.955
1302.8	602.819
1304.31	611.018
1305.83	616.666
1307.35	649.962
1308.87	626.391
1310.38	644.414
1311.9	651.008
1313.42	691.2
1314.94	682.343
1316.45	705.936
1317.97	718.002
1319.49	750
1321.01	748.304
1322.52	769.921
1324.04	761.064
1325.56	771.28
1327.07	809.009
1328.59	822.176
1330.11	800.644
1331.63	823.391
1333.14	834.688
1334.66	842.349
1336.18	865.613
1337.7	833.741
1339.21	864.019
1340.73	871.416
1342.25	858.083
1343.76	878.412
1345.28	864.759
1346.8	874.767
1348.32	879.158
1349.83	882.636
1351.35	858.166
1352.87	877.266
1354.39	827.109
1355.9	864.717
1357.42	846.167
1358.94	823.93
1360.46	804.948
1361.97	803.149
1363.49	819.385
1365.01	790.523
1366.52	771.952
1368.04	775.839
1369.56	757.47
1371.08	737.573
1372.59	753.659
1374.11	720.703
1375.63	702.55
1377.15	698.481
1378.66	669.085
1380.18	668.02
1381.7	663.512
1383.21	660.835
1384.73	639.402
1386.25	621.991
1387.77	609.505
1389.28	613.549
1390.8	589.962
1392.32	596.845
1393.84	591.059
1395.35	553.199
1396.87	558.299
1398.39	546.897
1399.91	540.858
1401.42	541.64
1402.94	538.488
1404.46	534.536
1405.97	523.573
1407.49	523.331
1409.01	489.469
1410.53	508.168
1412.04	511.038
1413.56	498.476
1415.08	486.894
1416.6	470.736
1418.11	482.424
1419.63	472.858
1421.15	469.874
1422.66	470.206
1424.18	466.36
1425.7	457.884
1427.22	449.001
1428.73	451.446
1430.25	460.879
1431.77	456.601
1433.29	438.876
1434.8	441.455
1436.32	442.416
1437.84	421.487
1439.36	424.949
1440.87	431.14
1442.39	432.889
1443.91	420.966
1445.42	413.295
1446.94	431.403
1448.46	436.216
1449.98	398.713
1451.49	410.527
1453.01	411.757
1454.53	413.983
1456.05	398.613
1457.56	419.645
1459.08	416.456
1460.6	412.32
1462.11	416.58
1463.63	426.257
1465.15	416.521
1466.67	414.033
1468.18	422.51
1469.7	398.823
1471.22	419.366
1472.74	419.585
1474.25	407.333
1475.77	403.122
1477.29	416.437
1478.81	412.538
1480.32	416.162
1481.84	408.6
1483.36	415.015
1484.87	403.105
1486.39	420
1487.91	402.37
1489.43	416.008
1490.94	403.397
1492.46	407.91
1493.98	419.331
1495.5	410.128
1497.01	425.728
1498.53	422.03
1500.05	414.651
1501.56	412.808
1503.08	406.363
1504.6	402.63
1506.12	431.328
1507.63	414.359
1509.15	418.086
1510.67	425.811
1512.19	423.826
1513.7	412.731
1515.22	419.79
1516.74	441.439
1518.26	435.347
1519.77	422.009
1521.29	438.18
1522.81	419.666
1524.32	420.918
1525.84	448.47
1527.36	453.495
1528.88	438.053
1530.39	452.123
1531.91	463.573
1533.43	469.13
1534.95	444.498
1536.46	461.135
1537.98	500.53
1539.5	496.486
1541.01	489.331
1542.53	494.677
1544.05	497.455
1545.57	526.114
1547.08	514.411
1548.6	516.145
1550.12	521.378
1551.64	540.782
1553.15	546.876
1554.67	538.25
1556.19	598.38
1557.71	593.03
1559.22	586.71
1560.74	598.548
1562.26	598.764
1563.77	625.248
1565.29	643.967
1566.81	645.886
1568.33	665.039
1569.84	677.907
1571.36	685.362
1572.88	705.851
1574.4	722.966
1575.91	738.504
1577.43	761.011
1578.95	779.248
1580.46	764.098
1581.98	809.611
1583.5	797.307
1585.02	814.365
1586.53	825.004
1588.05	811.427
1589.57	854.087
1591.09	835.805
1592.6	845.823
1594.12	842.765
1595.64	846.408
1597.16	867.7
1598.67	863.282
1600.19	846.287
1601.71	832.19
1603.22	822.907
1604.74	832.068
1606.26	832.001
1607.78	793.443
1609.29	789.125
1610.81	772.648
1612.33	763.888
1613.85	748.104
1615.36	733.794
1616.88	712.6
1618.4	679.671
1619.91	660.716
1621.43	645.292
1622.95	624.771
1624.47	596.989
1625.98	577.283
1627.5	559.19
1629.02	528.842
1630.54	511.915
1632.05	508.45
1633.57	477.82
1635.09	465.421
1636.6	442.825
1638.12	414.473
1639.64	411.587
1641.16	378.726
1642.67	375.38
1644.19	361.996
1645.71	337.117
1647.23	338.509
1648.74	317.871
1650.26	295.436
1651.78	296.997
1653.3	283.235
1654.81	270.044
1656.33	254.772
1657.85	251.419
1659.36	240.233
1660.88	223.825
1662.4	218.878
1663.92	212.869
1665.43	199.81
1666.95	203.138
1668.47	196.958
1669.99	181.185
1671.5	179.357
1673.02	171.575
1674.54	161.834
1676.06	160.503
1677.57	161.4
1679.09	143.6
1680.61	141.459
1682.12	136.298
1683.64	135.173
1685.16	127.84
1686.68	132.035
1688.19	129.403
1689.71	117.299
1691.23	122.006
1692.75	116.839
1694.26	112.588
1695.78	113.292
1697.3	107.258
1698.81	104.128
1700.33	107.442
1701.85	96.9846
1703.37	106.38
1704.88	101.05
1706.4	108.457
1707.92	97.9009
1709.44	103.124
1710.95	92.1192
1712.47	98.4274
1713.99	88.3475
1715.51	88.3442
1717.02	89.1098
1718.54	91.706
1720.06	90.7771
1721.57	86.5032
1723.09	85.5185
1724.61	86.0866
1726.13	80.6341
1727.64	88.9996
1729.16	81.8591
1730.68	87.8493
1732.2	83.2481
1733.71	80.7429
1735.23	79.1305
1736.75	79.7889
1738.26	80.3491
1739.78	79.3652
1741.3	80.8642
1742.82	82.502
1744.33	81.1533
1745.85	78.2479
1747.37	76.7663
1748.89	71.2138
1750.4	73.5946
1751.92	76.1211
1753.44	72.668
1754.95	70.5035
1756.47	74.6447
1757.99	78.7691
1759.51	71.6824
1761.02	71.4793
1762.54	72.8277
1764.06	68.8768
1765.58	69.9625
1767.09	76.9394
1768.61	71.2749
1770.13	72.9547
1771.65	71.342
1773.16	65.7532
1774.68	75.8919
1776.2	70.2561
1777.71	71.8975
1779.23	72.7787
1780.75	73.5145
1782.27	68.2289
1783.78	65.612
1785.3	68.7629
1786.82	76.6329
1788.34	69.9436
1789.85	72.0687
1791.37	71.6974
1792.89	70.73
1794.4	69.5387
1795.92	69.7198
1797.44	66.8219
1798.96	71.3695
1800.47	68.3489
1801.99	65.0162
1803.51	67.9759
1805.03	67.4217
1806.54	69.5761
1808.06	67.6349
1809.58	70.8395
1811.1	70.9034
1812.61	70.0771
1814.13	70.4223
1815.65	65.4747
1817.16	71.4905
1818.68	65.5417
1820.2	70.0286
1821.72	67.6628
1823.23	64.4179
1824.75	69.2557
1826.27	69.7542
1827.79	66.3201
1829.3	69.7699
1830.82	62.7688
1832.34	76.3433
1833.85	68.4791
1835.37	70.8943
1836.89	66.6881
1838.41	71.3928
1839.92	71.6974
1841.44	67.1565
1842.96	69.2253
1844.48	64.0267
1845.99	73.5127
1847.51	69.7025
1849.03	69.3119
1850.55	65.3472
1852.06	63.0802
1853.58	68.8395
1855.1	70.1939
1856.61	64.3379
1858.13	72.1713
1859.65	67.2155
1861.17	65.2771
1862.68	72.1298
1864.2	64.6748
1865.72	62.4026
1867.24	67.0739
1868.75	71.2365
1870.27	71.8428
1871.79	69.9874
1873.3	69.3967
1874.82	67.9186
1876.34	64.7082
1877.86	65.1982
1879.37	64.074
1880.89	58.244
1882.41	69.0748
1883.93	67.697
1885.44	70.3941
1886.96	64.3809
1888.48	65.5686
1890	63.2356
1891.51	68.3258
1893.03	63.8218
1894.55	58.1031
1896.06	60.3568
1897.58	68.8332
1899.1	69.8233
1900.62	70.9228
1902.13	63.3333
1903.65	67.7897
1905.17	64.0116
1906.69	64.86
1908.2	71.8986
1909.72	67.0339
1911.24	63.7556
1912.75	65.1994
1914.27	60.1111
1915.79	69.8027
1917.31	65.7128
1918.82	67.3286
1920.34	62.4697
1921.86	56.5316
1923.38	61.5326
1924.89	72.8417
1926.41	66.7683
1927.93	66.4768
1929.45	60.5165
1930.96	69.9777
1932.48	67.9203
1934	61.1703
1935.51	61.9325
1937.03	63.5969
1938.55	64.3767
1940.07	72.7766
1941.58	60.4596
1943.1	63.8536
1944.62	59.0881
1946.14	64.69
1947.65	68.101
1949.17	65.6517
1950.69	64.5322
1952.2	61.6364
1953.72	59.9612
1955.24	60.8589
1956.76	67.5609
1958.27	62.1661
1959.79	66.2041
1961.31	69.8561
1962.83	72.1076
1964.34	64.3256
1965.86	64.5474
1967.38	71.7772
1968.9	64.7959
1970.41	69.3728
1971.93	70.2342
1973.45	61.1524
1974.96	77.2247
1976.48	63.6755
1978	70.3574
1979.52	64.1987
1981.03	70.3788
1982.55	66.1247
1984.07	62.9798
1985.59	71.7342
1987.1	67.2567
1988.62	66.7961
1990.14	66.4025
1991.65	65.2223
1993.17	63.43
1994.69	67.4352
1996.21	69.0947
1997.72	56.1055
1999.24	69.1318
2000	58.9208