File: Example Data/Raman/CNT - TIM/Raytheon/Al foil/2010/06-23-10/Batch 12 b - top_2.txt
400	75.605
401.517	83.7988
403.035	91.2626
404.552	100.619
406.069	85.5306
407.587	85.6988
409.104	90.0234
410.621	91.521
412.138	87.5775
413.656	102.336
415.173	97.5903
416.69	87.2315
418.208	94.7659
419.725	97.4168
421.242	85.8665
422.76	93.9049
424.277	89.9559
425.794	88.6667
427.312	96.5844
428.829	88.7433
430.346	92.6545
431.863	91.5249
433.381	88.3953
434.898	93.0162
436.415	87.8478
437.933	85.7504
439.45	92.5184
440.967	88.9437
442.485	88.1939
444.002	87.0505
445.519	99.3033
447.036	94.6699
448.554	84.1752
450.071	87.2639
451.588	83.7009
453.106	84.1301
454.623	91.4857
456.14	80.5391
457.658	83.8576
459.175	83.7979
460.692	87.6663
462.21	87
463.727	85.4666
465.244	87.5403
466.762	86.8592
468.279	84.2548
469.796	88.0578
471.313	79.603
472.831	88.9759
474.348	83.3325
475.865	75.1591
477.383	79.0555
478.9	82.8046
480.417	87.5489
481.935	82.5688
483.452	75.9934
484.969	78.6935
486.486	76.0134
488.004	77.0787
489.521	86.8001
491.038	82.9874
492.556	76.9992
494.073	80.2752
495.59	87.123
497.108	70.8577
498.625	82.0266
500.142	67.0538
501.66	76.6198
503.177	79.3086
504.694	76.4025
506.211	69.225
507.729	80.5964
509.246	70.2687
510.763	82.0715
512.281	71.3777
513.798	73.9612
515.315	69.6483
516.833	75.5315
518.35	74
519.867	79.5318
521.385	75.9715
522.902	75.1533
524.419	76.1787
525.936	64.7081
527.454	73.8605
528.971	71.7702
530.488	77.1038
532.006	71.3566
533.523	74.8836
535.04	73.0468
536.558	81.4579
538.075	72.7116
539.592	65.4509
541.11	70.1833
542.627	76.1351
544.144	68.0673
545.661	66.0267
547.179	70.5417
548.696	75.3528
550.213	79.5884
551.731	68.7359
553.248	78.2579
554.765	74.404
556.283	72.9228
557.8	82.0979
559.317	83.6687
560.835	78.4404
562.352	75.7931
563.869	75.6674
565.386	85.8929
566.904	75.9483
568.421	72.4431
569.938	74.944
571.456	84.2035
572.973	72.3062
574.49	78.444
576.008	80.2294
577.525	76.4931
579.042	71.6667
580.56	79.805
582.077	87.265
583.594	77.1463
585.111	84.58
586.629	82.0152
588.146	76.2431
589.663	83.2157
591.181	85.0424
592.698	80.2322
594.215	83.6741
595.733	82.6465
597.25	81.3341
598.767	74.8943
600.284	77.0345
601.802	78
603.319	82
604.836	78.171
606.354	83.8676
607.871	79.4198
609.388	80.5033
610.906	78.1926
612.423	86.9119
613.94	73.8562
615.458	82.9985
616.975	86.2519
618.492	85.275
620.009	91.2825
621.527	90.2014
623.044	80.717
624.561	83.5729
626.079	82.6023
627.596	79.5387
629.113	85.3256
630.631	81.5436
632.148	89.1758
633.665	80.7154
635.183	81.4916
636.7	95.4509
638.217	77.3431
639.734	82.4881
641.252	87.5053
642.769	83.0766
644.286	94.7401
645.804	84.3333
647.321	85.8625
648.838	85.1221
650.356	96.5498
651.873	92.7619
653.39	90.2186
654.908	88.14
656.425	85.6881
657.942	93.5546
659.459	85.0142
660.977	92.1683
662.494	90.4325
664.011	85.9254
665.529	90.9984
667.046	88.7898
668.563	93.3824
670.081	89.7444
671.598	91.2598
673.115	89.8381
674.633	88.3346
676.15	90.781
677.667	96.6713
679.184	95.3454
680.702	83.8863
682.219	98.3951
683.736	91.434
685.254	105.439
686.771	93.7031
688.288	92.3373
689.806	91.0363
691.323	98.9387
692.84	96.5357
694.358	99.0392
695.875	93.1297
697.392	94.8615
698.909	98.6195
700.427	93.245
701.944	100.401
703.461	95.4825
704.979	106.768
706.496	105.79
708.013	93.3818
709.531	91.6208
711.048	103.999
712.565	100.628
714.083	98.8124
715.6	99.7786
717.117	104.671
718.634	109.574
720.152	100.914
721.669	97.099
723.186	111.428
724.704	103.329
726.221	97.0667
727.738	97.6692
729.256	98.2634
730.773	98.4637
732.29	105.22
733.807	106.797
735.325	99.811
736.842	103.145
738.359	105.808
739.877	110.745
741.394	109.392
742.911	108.276
744.429	111.51
745.946	111.897
747.463	107.339
748.981	114.47
750.498	110.173
752.015	114.359
753.532	121.98
755.05	115.862
756.567	121.686
758.084	103.814
759.602	111.194
761.119	110.779
762.636	116.547
764.154	115.073
765.671	112.072
767.188	115.771
768.706	111.206
770.223	114.601
771.74	118.759
773.257	119.795
774.775	121.31
776.292	109.516
777.809	108.412
779.327	120.487
780.844	120.501
782.361	122.287
783.879	125.203
785.396	122.402
786.913	123.068
788.431	123.451
789.948	126.432
791.465	125.017
792.982	118.635
794.5	125.968
796.017	123.086
797.534	125.07
799.052	132.624
800.569	125.389
802.086	132.1
803.604	127.617
805.121	131.626
806.638	133.046
808.156	123.006
809.673	123.043
811.19	136.157
812.707	129.381
814.225	130.14
815.742	128.901
817.259	129.501
818.777	132.133
820.294	131.333
821.811	129.122
823.329	130.654
824.846	129.721
826.363	136.604
827.88	137.874
829.398	138.029
830.915	131.457
832.432	134.892
833.95	137.096
835.467	141.733
836.984	129.225
838.502	136.041
840.019	131.52
841.536	140.588
843.054	140.037
844.571	133.097
846.088	142.225
847.606	134.781
849.123	130.441
850.64	135.021
852.157	128.715
853.675	137.805
855.192	143.126
856.709	130.683
858.227	128.571
859.744	138.11
861.261	123.599
862.779	126.886
864.296	128.056
865.813	130.845
867.331	128.026
868.848	120.979
870.365	124.701
871.882	127.044
873.4	118.918
874.917	123.942
876.434	124.396
877.952	128.551
879.469	131.757
880.986	124.602
882.504	124.417
884.021	118.663
885.538	118.898
887.055	117.084
888.573	118.181
890.09	113.01
891.607	122.135
893.125	109.825
894.642	110.523
896.159	108.837
897.677	110.612
899.194	102.084
900.711	107.518
902.229	107.877
903.746	108.839
905.263	102.744
906.78	105.684
908.298	108.926
909.815	105.763
911.332	112.191
912.85	98.9458
914.367	106.945
915.884	97.8329
917.402	97.6674
918.919	98.746
920.436	107.043
921.954	102.273
923.471	100.596
924.988	94.6459
926.505	86.7496
928.023	100.453
929.54	92.7304
931.057	95.0744
932.575	96.6693
934.092	93.0661
935.609	99.9324
937.127	102.85
938.644	92.68
940.161	91.3068
941.679	90.7484
943.196	91.2259
944.713	102.747
946.23	102.537
947.748	98.9506
949.265	94.6228
950.782	95.1249
952.3	96.9615
953.817	98.1904
955.334	100.313
956.852	90.2856
958.369	97.8773
959.886	93.6639
961.404	95.1837
962.921	98.5438
964.438	107.518
965.955	95.0507
967.473	98.73
968.99	98.4237
970.507	93.0863
972.025	97.0442
973.542	99.9266
975.059	103.866
976.577	97.2088
978.094	105.525
979.611	94.8821
981.128	103.099
982.646	105.756
984.163	104.21
985.68	100.23
987.198	100.659
988.715	98.0231
990.232	102.045
991.75	112.604
993.267	112.398
994.784	110.671
996.302	104.904
997.819	105.697
999.336	107.726
1000.85	118.546
1002.37	112.422
1003.89	109.801
1005.41	120.879
1006.92	111.179
1008.44	112.493
1009.96	114.673
1011.47	113.008
1012.99	113.772
1014.51	105.25
1016.03	113.667
1017.54	116.971
1019.06	105.324
1020.58	120.881
1022.1	123.092
1023.61	120.845
1025.13	123.64
1026.65	120.6
1028.17	122.807
1029.68	118.654
1031.2	118.984
1032.72	127.217
1034.23	124.89
1035.75	125.667
1037.27	129.761
1038.79	131.799
1040.3	125.341
1041.82	134.2
1043.34	143.345
1044.86	143.682
1046.37	130.047
1047.89	139.894
1049.41	136.708
1050.92	142.4
1052.44	144.06
1053.96	132.311
1055.48	138.066
1056.99	137.176
1058.51	143.306
1060.03	142.896
1061.55	135.333
1063.06	139.115
1064.58	143.858
1066.1	140.489
1067.61	133.389
1069.13	145.31
1070.65	133.681
1072.17	141.065
1073.68	145.914
1075.2	136.534
1076.72	154.586
1078.24	157.52
1079.75	145.775
1081.27	140.202
1082.79	143.519
1084.31	154.616
1085.82	148.85
1087.34	149.845
1088.86	148.313
1090.37	148.073
1091.89	154.448
1093.41	160.242
1094.93	151.762
1096.44	157.861
1097.96	163.436
1099.48	160.229
1101	167.501
1102.51	158.49
1104.03	173.045
1105.55	157.94
1107.06	163.463
1108.58	165.091
1110.1	167.027
1111.62	173.943
1113.13	174.557
1114.65	174.525
1116.17	181.607
1117.69	184.384
1119.2	173
1120.72	180.982
1122.24	172.361
1123.76	171.985
1125.27	178.579
1126.79	178.358
1128.31	191.027
1129.82	175.719
1131.34	173.687
1132.86	194.116
1134.38	188.984
1135.89	198.057
1137.41	193.008
1138.93	190.772
1140.45	191.143
1141.96	181.71
1143.48	198.788
1145	189.272
1146.51	194.979
1148.03	216.646
1149.55	202.511
1151.07	192.252
1152.58	210.093
1154.1	213.226
1155.62	206.95
1157.14	212.317
1158.65	205.154
1160.17	215.472
1161.69	221.639
1163.21	226.889
1164.72	220.945
1166.24	221.344
1167.76	229.115
1169.27	225.541
1170.79	223.009
1172.31	226.202
1173.83	227.238
1175.34	226.862
1176.86	230.497
1178.38	231.052
1179.9	235.911
1181.41	215.651
1182.93	221.71
1184.45	223.692
1185.96	228.343
1187.48	229.668
1189	221.912
1190.52	232.464
1192.03	231.428
1193.55	238.972
1195.07	237.058
1196.59	239.669
1198.1	245.217
1199.62	233.583
1201.14	232.899
1202.66	243.85
1204.17	246.229
1205.69	244.546
1207.21	247.377
1208.72	255.348
1210.24	260.525
1211.76	250.772
1213.28	256.257
1214.79	250.162
1216.31	253.726
1217.83	260.749
1219.35	251.381
1220.86	239.907
1222.38	251.969
1223.9	264.333
1225.41	265.786
1226.93	264.168
1228.45	259.435
1229.97	262.761
1231.48	260.506
1233	267.209
1234.52	291.159
1236.04	285.653
1237.55	284.23
1239.07	299.05
1240.59	302.292
1242.11	278.605
1243.62	305.939
1245.14	306.576
1246.66	305.898
1248.17	314.68
1249.69	312.632
1251.21	307.81
1252.73	314.946
1254.24	330.028
1255.76	325.596
1257.28	322.257
1258.8	330.586
1260.31	328.535
1261.83	327.884
1263.35	339.163
1264.86	362.91
1266.38	352.829
1267.9	346.213
1269.42	359.708
1270.93	384.107
1272.45	379.606
1273.97	379.852
1275.49	377.896
1277	394.857
1278.52	395.561
1280.04	421.033
1281.56	408.735
1283.07	425.025
1284.59	429
1286.11	435.387
1287.62	449.219
1289.14	447.127
1290.66	453.306
1292.18	455.626
1293.69	456.578
1295.21	480.471
1296.73	495.91
1298.25	496.746
1299.76	527.983
1301.28	498.901
1302.8	513.634
1304.31	555.684
1305.83	548.67
1307.35	566.651
1308.87	600.579
1310.38	567.099
1311.9	599.366
1313.42	614.552
1314.94	630.918
1316.45	645.986
1317.97	652.362
1319.49	692.326
1321.01	662.734
1322.52	727.572
1324.04	695.498
1325.56	743.482
1327.07	740.385
1328.59	756.242
1330.11	767.882
1331.63	788.218
1333.14	790.695
1334.66	804.033
1336.18	854.063
1337.7	847.293
1339.21	842.585
1340.73	866.667
1342.25	839.348
1343.76	890.401
1345.28	896.598
1346.8	874.631
1348.32	895.161
1349.83	873.792
1351.35	886.25
1352.87	868.513
1354.39	868.276
1355.9	852.742
1357.42	844.177
1358.94	820.085
1360.46	827.961
1361.97	804.692
1363.49	806.011
1365.01	796.254
1366.52	761.732
1368.04	754.76
1369.56	754.095
1371.08	741.566
1372.59	745.864
1374.11	719.999
1375.63	729.351
1377.15	689.846
1378.66	681.806
1380.18	673.936
1381.7	638.381
1383.21	632.576
1384.73	619.952
1386.25	619.621
1387.77	581.975
1389.28	580.31
1390.8	578.459
1392.32	550.837
1393.84	556.805
1395.35	549.439
1396.87	525.712
1398.39	529.218
1399.91	502.744
1401.42	523.227
1402.94	515.208
1404.46	508.319
1405.97	497.282
1407.49	480.618
1409.01	481.398
1410.53	453.729
1412.04	455.488
1413.56	463.672
1415.08	453.004
1416.6	448.624
1418.11	457.975
1419.63	442.683
1421.15	434.481
1422.66	414.443
1424.18	423.68
1425.7	427.155
1427.22	424.836
1428.73	404.027
1430.25	420.714
1431.77	424.428
1433.29	399.568
1434.8	402.584
1436.32	417.43
1437.84	402.555
1439.36	406.448
1440.87	405.822
1442.39	392.458
1443.91	374.543
1445.42	383.675
1446.94	400.597
1448.46	403.98
1449.98	385.439
1451.49	391.338
1453.01	376.863
1454.53	382.224
1456.05	387.844
1457.56	386.844
1459.08	370.515
1460.6	361.563
1462.11	376.49
1463.63	377.042
1465.15	383.668
1466.67	374.802
1468.18	365.004
1469.7	373.745
1471.22	383.933
1472.74	381.959
1474.25	362.048
1475.77	364.049
1477.29	354.712
1478.81	365.675
1480.32	379.747
1481.84	373.139
1483.36	381.648
1484.87	367.514
1486.39	377.898
1487.91	379.148
1489.43	366.907
1490.94	378.543
1492.46	366.138
1493.98	377.117
1495.5	383.916
1497.01	367.677
1498.53	364.415
1500.05	391.022
1501.56	373.788
1503.08	369.795
1504.6	383.334
1506.12	379.087
1507.63	373.803
1509.15	379.82
1510.67	376.189
1512.19	388.126
1513.7	382.027
1515.22	372.219
1516.74	388.435
1518.26	374.165
1519.77	411.531
1521.29	396.219
1522.81	372.266
1524.32	380.559
1525.84	384.363
1527.36	399.215
1528.88	414.684
1530.39	412.374
1531.91	421.384
1533.43	411.87
1534.95	429.989
1536.46	414.829
1537.98	438.696
1539.5	457.092
1541.01	440.269
1542.53	431.929
1544.05	462.336
1545.57	475.231
1547.08	487.475
1548.6	487.439
1550.12	483.105
1551.64	500.823
1553.15	506.66
1554.67	512.953
1556.19	533.076
1557.71	543.452
1559.22	569.405
1560.74	586.76
1562.26	567.067
1563.77	583.963
1565.29	615.125
1566.81	613.462
1568.33	646.552
1569.84	643.561
1571.36	670.469
1572.88	665.754
1574.4	665.496
1575.91	710.046
1577.43	723.855
1578.95	737.542
1580.46	746.591
1581.98	754.266
1583.5	791.552
1585.02	789.963
1586.53	807.024
1588.05	814.717
1589.57	868.965
1591.09	860.477
1592.6	853.522
1594.12	845.039
1595.64	855.283
1597.16	837.392
1598.67	858.234
1600.19	837.015
1601.71	831.022
1603.22	845.11
1604.74	813.792
1606.26	833.302
1607.78	816.662
1609.29	820.865
1610.81	804.005
1612.33	795.665
1613.85	797.403
1615.36	749.922
1616.88	762.766
1618.4	700.528
1619.91	716.226
1621.43	676.694
1622.95	659.292
1624.47	631.906
1625.98	604.461
1627.5	605.205
1629.02	547.74
1630.54	549.165
1632.05	513.243
1633.57	486.829
1635.09	482.864
1636.6	468.477
1638.12	448.685
1639.64	434.138
1641.16	397.21
1642.67	383.39
1644.19	372.502
1645.71	358.418
1647.23	348.33
1648.74	323.747
1650.26	302.226
1651.78	296.7
1653.3	282.143
1654.81	271.529
1656.33	262.085
1657.85	251.248
1659.36	239.363
1660.88	220.803
1662.4	221.497
1663.92	199.476
1665.43	200.321
1666.95	186.357
1668.47	183.131
1669.99	177.029
1671.5	168.545
1673.02	163.791
1674.54	157.778
1676.06	155.992
1677.57	140.196
1679.09	138.195
1680.61	139.602
1682.12	129.734
1683.64	124.357
1685.16	119.532
1686.68	114.631
1688.19	113.346
1689.71	110.344
1691.23	103.634
1692.75	105.652
1694.26	100.856
1695.78	102.549
1697.3	95.7992
1698.81	94.4337
1700.33	93.8201
1701.85	87.1422
1703.37	88.6751
1704.88	83.7977
1706.4	83.093
1707.92	79.3474
1709.44	83.3225
1710.95	85.5522
1712.47	78.6254
1713.99	83.0138
1715.51	79.0136
1717.02	75.0271
1718.54	76.0172
1720.06	76.1133
1721.57	74.0853
1723.09	75.0543
1724.61	71.1311
1726.13	71.8275
1727.64	70.7535
1729.16	67.8509
1730.68	72.8007
1732.2	70.2293
1733.71	66.9235
1735.23	63.7718
1736.75	68.2176
1738.26	66.5609
1739.78	67.3635
1741.3	59.9188
1742.82	63.0369
1744.33	62.5619
1745.85	57.9094
1747.37	60.4029
1748.89	57.6841
1750.4	59.5268
1751.92	60.6691
1753.44	64.0944
1754.95	58.641
1756.47	57.9364
1757.99	61.4342
1759.51	54.9524
1761.02	58.8118
1762.54	58.1622
1764.06	58.0336
1765.58	59.2616
1767.09	56.799
1768.61	53.4866
1770.13	58.6485
1771.65	56.4271
1773.16	61.9519
1774.68	57.9208
1776.2	59.198
1777.71	56.4094
1779.23	56.4311
1780.75	54.9441
1782.27	55.9283
1783.78	53.2858
1785.3	54.6274
1786.82	56.7888
1788.34	65.9829
1789.85	54.6412
1791.37	59.8244
1792.89	53.8196
1794.4	60.0503
1795.92	54.1249
1797.44	55.2434
1798.96	55.7636
1800.47	57.404
1801.99	61.2495
1803.51	52.3812
1805.03	59.5248
1806.54	53.8074
1808.06	57.2762
1809.58	60.7751
1811.1	53.215
1812.61	57.9489
1814.13	57.6446
1815.65	56.8721
1817.16	46.8449
1818.68	51.7574
1820.2	55.8017
1821.72	58.9759
1823.23	50.4467
1824.75	49.1783
1826.27	63.2086
1827.79	59.9013
1829.3	58.329
1830.82	53.6735
1832.34	59.7264
1833.85	55.5756
1835.37	54.4649
1836.89	51.5463
1838.41	53.2005
1839.92	63.0537
1841.44	55.3676
1842.96	46.5743
1844.48	53.4129
1845.99	54.3173
1847.51	50.9988
1849.03	58.0264
1850.55	58.3953
1852.06	73.6831
1853.58	74.0457
1855.1	56.4966
1856.61	57.2032
1858.13	58.1066
1859.65	53.223
1861.17	62.5415
1862.68	49.2698
1864.2	55.2692
1865.72	48.1788
1867.24	54.005
1868.75	59.8481
1870.27	50.7943
1871.79	58.5989
1873.3	53.3365
1874.82	49.9727
1876.34	50.6026
1877.86	55.1672
1879.37	46.9639
1880.89	54.5215
1882.41	56.4862
1883.93	59.9303
1885.44	58.6945
1886.96	52.673
1888.48	52.1447
1890	52.8568
1891.51	52.8864
1893.03	54.7415
1894.55	54.9484
1896.06	53.3391
1897.58	55.9992
1899.1	59.612
1900.62	56.9981
1902.13	53.5831
1903.65	54.0899
1905.17	52.9441
1906.69	51.5081
1908.2	57.8266
1909.72	49.3782
1911.24	56.5777
1912.75	45.1965
1914.27	53.1111
1915.79	50.7347
1917.31	52.6225
1918.82	53.8809
1920.34	54.9848
1921.86	47.3645
1923.38	51.5471
1924.89	53.2606
1926.41	53.2238
1927.93	56.3151
1929.45	60.4359
1930.96	48.0223
1932.48	50.7504
1934	54.7891
1935.51	51.1207
1937.03	49.8801
1938.55	52.8411
1940.07	56.6649
1941.58	53.0353
1943.1	57.1236
1944.62	58.1069
1946.14	50.9534
1947.65	48.9292
1949.17	51.6716
1950.69	56.4722
1952.2	53.4343
1953.72	51.0319
1955.24	54.3773
1956.76	54.9057
1958.27	50.3388
1959.79	51.2267
1961.31	54.7297
1962.83	52.9391
1964.34	50.2619
1965.86	54.107
1967.38	54.221
1968.9	57.4185
1970.41	60.1438
1971.93	52.8469
1973.45	46.079
1974.96	47.9882
1976.48	55.1504
1978	55.8203
1979.52	51.2231
1981.03	48.5929
1982.55	57.2209
1984.07	52.2891
1985.59	52.1982
1987.1	51.3621
1988.62	50.8244
1990.14	48.3143
1991.65	57.9282
1993.17	51.4734
1994.69	47.8056
1996.21	50.8091
1997.72	60.2172
1999.24	53.2004
2000	58.033