File: Example Data/Raman/CNT - TIM/Raytheon/Al foil/2010/06-23-10/Batch 12 b - bottom_1.txt
400	114.342
401.517	125.103
403.035	126.123
404.552	126.173
406.069	118.403
407.587	124.195
409.104	125.357
410.621	129.056
412.138	131.489
413.656	125.448
415.173	124.745
416.69	122.633
418.208	123.791
419.725	130.021
421.242	128.764
422.76	125.667
424.277	134.364
425.794	130.227
427.312	121.584
428.829	135.177
430.346	133.303
431.863	122.394
433.381	126.263
434.898	122.581
436.415	128.435
437.933	134.77
439.45	122.833
440.967	117.098
442.485	131.832
444.002	117.989
445.519	120.106
447.036	124.557
448.554	120.87
450.071	122.194
451.588	120.747
453.106	118.976
454.623	120.606
456.14	119.312
457.658	114.664
459.175	129.69
460.692	119.223
462.21	121.816
463.727	109.301
465.244	117.789
466.762	124.581
468.279	110.742
469.796	115.132
471.313	113.539
472.831	113.513
474.348	120.027
475.865	122.878
477.383	109.804
478.9	106.333
480.417	112.141
481.935	112.078
483.452	113.85
484.969	108.076
486.486	110.835
488.004	118.165
489.521	111.333
491.038	109.422
492.556	106.999
494.073	101.623
495.59	109.5
497.108	107.534
498.625	112.956
500.142	103.191
501.66	106.356
503.177	107.009
504.694	110.305
506.211	99.7314
507.729	111.437
509.246	114.409
510.763	107.656
512.281	101.365
513.798	103.022
515.315	106.397
516.833	104.339
518.35	103.427
519.867	102.198
521.385	113.037
522.902	113.182
524.419	100.342
525.936	98.5628
527.454	104.538
528.971	103.633
530.488	104.89
532.006	115.725
533.523	104.339
535.04	103.158
536.558	113.418
538.075	106.675
539.592	98.5602
541.11	108.908
542.627	108.575
544.144	105.262
545.661	101.92
547.179	104.25
548.696	105.804
550.213	111.544
551.731	103.563
553.248	109.322
554.765	104.353
556.283	104.204
557.8	96.0254
559.317	112.446
560.835	109.684
562.352	110.609
563.869	102.716
565.386	110.788
566.904	118.798
568.421	112.143
569.938	104.548
571.456	104.676
572.973	108.497
574.49	106.668
576.008	103.481
577.525	108.486
579.042	112.902
580.56	102.288
582.077	109.533
583.594	111.418
585.111	108.249
586.629	109.232
588.146	108.524
589.663	109.282
591.181	108.215
592.698	113.116
594.215	110.376
595.733	113.98
597.25	110.668
598.767	105.514
600.284	114.164
601.802	103.207
603.319	118.974
604.836	117.294
606.354	116.983
607.871	107.782
609.388	116.97
610.906	106.302
612.423	112.237
613.94	116.865
615.458	114.886
616.975	115.137
618.492	108.175
620.009	114.667
621.527	117.456
623.044	113.95
624.561	115.343
626.079	112.208
627.596	108.971
629.113	120.312
630.631	125.141
632.148	114.143
633.665	115.89
635.183	116.628
636.7	108.618
638.217	116.716
639.734	116.443
641.252	118.928
642.769	112.881
644.286	109.509
645.804	124.295
647.321	116.184
648.838	128.29
650.356	118.086
651.873	123.429
653.39	119.292
654.908	126.02
656.425	119.742
657.942	116.012
659.459	124.085
660.977	115.832
662.494	117.011
664.011	114.116
665.529	129.919
667.046	112.115
668.563	128.864
670.081	120.024
671.598	125.02
673.115	117.241
674.633	116.347
676.15	128.878
677.667	122.338
679.184	129.895
680.702	135.47
682.219	121.293
683.736	125.686
685.254	130.979
686.771	125.897
688.288	119.308
689.806	132.776
691.323	130.156
692.84	123.941
694.358	122.855
695.875	120.237
697.392	132.008
698.909	122.963
700.427	124.829
701.944	131.166
703.461	129.52
704.979	138.023
706.496	123.035
708.013	122.557
709.531	129.749
711.048	136.944
712.565	133.333
714.083	128.177
715.6	134.24
717.117	129.602
718.634	130.935
720.152	127.241
721.669	128.067
723.186	126.615
724.704	136.331
726.221	138.55
727.738	134.842
729.256	127.959
730.773	138.7
732.29	136.481
733.807	133.854
735.325	139.702
736.842	133.587
738.359	130.056
739.877	122.74
741.394	139.059
742.911	134.078
744.429	132.484
745.946	136.327
747.463	146.333
748.981	146.293
750.498	144.491
752.015	158.768
753.532	138.08
755.05	143.898
756.567	139.488
758.084	142.963
759.602	149.072
761.119	154.111
762.636	140.373
764.154	137.506
765.671	140.946
767.188	139.116
768.706	152.719
770.223	148.706
771.74	150.488
773.257	161.083
774.775	141.137
776.292	150.795
777.809	164.215
779.327	143.498
780.844	152.676
782.361	156.567
783.879	156.275
785.396	155.346
786.913	150.536
788.431	154.422
789.948	157.227
791.465	159.778
792.982	156.293
794.5	157.135
796.017	159.796
797.534	151.004
799.052	154.974
800.569	167.348
802.086	155.187
803.604	162.828
805.121	159.363
806.638	162.875
808.156	155.461
809.673	166.244
811.19	161.315
812.707	164.656
814.225	164.842
815.742	158.166
817.259	163.877
818.777	176.272
820.294	161.704
821.811	157.192
823.329	166.605
824.846	156.36
826.363	168.151
827.88	169.778
829.398	165.843
830.915	158.122
832.432	172.332
833.95	173.67
835.467	171.233
836.984	171.039
838.502	180.975
840.019	171.729
841.536	166.023
843.054	165.093
844.571	173.255
846.088	170.093
847.606	174.561
849.123	165.678
850.64	157.328
852.157	169.714
853.675	168.244
855.192	168.609
856.709	178.879
858.227	180.634
859.744	162.685
861.261	162.471
862.779	167.005
864.296	165.653
865.813	167.201
867.331	159.894
868.848	159.558
870.365	156.4
871.882	156.391
873.4	152.183
874.917	156.776
876.434	158.946
877.952	170.013
879.469	147.597
880.986	151.652
882.504	153.584
884.021	148.856
885.538	150.518
887.055	151.725
888.573	151.325
890.09	149.68
891.607	161.646
893.125	145.879
894.642	139.293
896.159	133.501
897.677	145.699
899.194	137.776
900.711	146.333
902.229	140.979
903.746	146.625
905.263	139.526
906.78	144.411
908.298	135.592
909.815	140.489
911.332	126.737
912.85	133.138
914.367	135.94
915.884	140.693
917.402	131.666
918.919	137.52
920.436	134.4
921.954	133.696
923.471	133.361
924.988	136.793
926.505	128.43
928.023	138.631
929.54	127.926
931.057	137.535
932.575	130.939
934.092	127.983
935.609	135.846
937.127	137.59
938.644	130.752
940.161	130.93
941.679	139.041
943.196	129.632
944.713	128.052
946.23	132.094
947.748	133.005
949.265	126.4
950.782	125.118
952.3	134.337
953.817	136.238
955.334	133.753
956.852	133.048
958.369	135.798
959.886	135.562
961.404	134.669
962.921	136.669
964.438	125.34
965.955	133.323
967.473	130.446
968.99	139.416
970.507	141.381
972.025	133.162
973.542	142.588
975.059	137.929
976.577	131.819
978.094	139.018
979.611	145.677
981.128	132.009
982.646	128.863
984.163	141.529
985.68	139.979
987.198	150.294
988.715	142.301
990.232	140.904
991.75	138.67
993.267	140.674
994.784	146.709
996.302	147.454
997.819	150.7
999.336	152.564
1000.85	145.408
1002.37	155.343
1003.89	154.133
1005.41	158.915
1006.92	148.99
1008.44	145.987
1009.96	153.238
1011.47	159.673
1012.99	160.421
1014.51	167.591
1016.03	153.274
1017.54	171.638
1019.06	157.054
1020.58	160.989
1022.1	164.61
1023.61	164.994
1025.13	165.263
1026.65	165.685
1028.17	163.239
1029.68	174.409
1031.2	171.647
1032.72	182.842
1034.23	169.584
1035.75	175.384
1037.27	170.908
1038.79	183.247
1040.3	170.058
1041.82	180.433
1043.34	188.605
1044.86	194.193
1046.37	188.301
1047.89	184.551
1049.41	190.875
1050.92	186.326
1052.44	192.074
1053.96	187.37
1055.48	186.764
1056.99	186.134
1058.51	197.349
1060.03	186.739
1061.55	191.14
1063.06	197.813
1064.58	193.927
1066.1	187.021
1067.61	193.817
1069.13	207.522
1070.65	214.569
1072.17	202.915
1073.68	212.725
1075.2	194.806
1076.72	199.627
1078.24	202.453
1079.75	207.26
1081.27	202.023
1082.79	214.915
1084.31	210.833
1085.82	218.593
1087.34	204.747
1088.86	215.465
1090.37	215.934
1091.89	221.882
1093.41	209
1094.93	218.988
1096.44	217.21
1097.96	223.899
1099.48	230.348
1101	219.68
1102.51	234.802
1104.03	229.816
1105.55	238.419
1107.06	232.29
1108.58	226.778
1110.1	236.07
1111.62	248.603
1113.13	240.916
1114.65	242.915
1116.17	246.477
1117.69	252.36
1119.2	238.49
1120.72	255.084
1122.24	253.067
1123.76	255.366
1125.27	252.389
1126.79	260.502
1128.31	263.243
1129.82	256.699
1131.34	276.015
1132.86	277.741
1134.38	274.509
1135.89	282.014
1137.41	275.333
1138.93	279.941
1140.45	278.066
1141.96	287.255
1143.48	293.839
1145	284.924
1146.51	283.565
1148.03	292.521
1149.55	306.225
1151.07	319.693
1152.58	323.324
1154.1	328.406
1155.62	318.537
1157.14	312.864
1158.65	321.446
1160.17	317.072
1161.69	327.436
1163.21	315.176
1164.72	328.109
1166.24	329.318
1167.76	338.752
1169.27	328.907
1170.79	324.173
1172.31	339.074
1173.83	340.814
1175.34	336.064
1176.86	332.775
1178.38	337.906
1179.9	336.918
1181.41	339.174
1182.93	336.855
1184.45	340.995
1185.96	351.808
1187.48	346.948
1189	349.571
1190.52	354.295
1192.03	356.629
1193.55	349.565
1195.07	344.402
1196.59	350.65
1198.1	358.64
1199.62	356.413
1201.14	355.61
1202.66	361.059
1204.17	362.363
1205.69	371.836
1207.21	371.219
1208.72	364.922
1210.24	366.513
1211.76	385.038
1213.28	355.314
1214.79	374.764
1216.31	380.559
1217.83	373.206
1219.35	386.809
1220.86	394.498
1222.38	396.729
1223.9	381.929
1225.41	398.617
1226.93	380.113
1228.45	394.518
1229.97	399.188
1231.48	397.328
1233	402.584
1234.52	429.725
1236.04	420.571
1237.55	417
1239.07	414.69
1240.59	426.419
1242.11	424.807
1243.62	436.993
1245.14	437.38
1246.66	441.56
1248.17	463.609
1249.69	461.506
1251.21	465.37
1252.73	479.103
1254.24	478.835
1255.76	477.121
1257.28	481.11
1258.8	495.985
1260.31	494.667
1261.83	516.166
1263.35	505.489
1264.86	515.144
1266.38	531
1267.9	528.191
1269.42	544.3
1270.93	562.304
1272.45	566.394
1273.97	541.277
1275.49	576.799
1277	580.428
1278.52	573.06
1280.04	615.696
1281.56	580.795
1283.07	604.816
1284.59	628.748
1286.11	630.568
1287.62	663.857
1289.14	652.833
1290.66	691.081
1292.18	679.37
1293.69	690.499
1295.21	709.159
1296.73	724.738
1298.25	716.399
1299.76	713.305
1301.28	746.978
1302.8	771.984
1304.31	778.147
1305.83	787.017
1307.35	806.002
1308.87	817.619
1310.38	832.807
1311.9	883.779
1313.42	868.25
1314.94	877.866
1316.45	871.349
1317.97	918.303
1319.49	929
1321.01	922.371
1322.52	955.873
1324.04	958.205
1325.56	957.277
1327.07	995.798
1328.59	1001.42
1330.11	998.902
1331.63	1036.13
1333.14	1027.61
1334.66	1043.86
1336.18	1039.7
1337.7	1055.95
1339.21	1061.74
1340.73	1051.79
1342.25	1081.35
1343.76	1051.53
1345.28	1059.55
1346.8	1068.01
1348.32	1055.45
1349.83	1068.73
1351.35	1042.35
1352.87	1048.06
1354.39	1015.36
1355.9	1024.64
1357.42	1004.01
1358.94	1008.14
1360.46	1004.78
1361.97	999.662
1363.49	981.377
1365.01	983.673
1366.52	955.232
1368.04	933.927
1369.56	901.675
1371.08	902.44
1372.59	905.331
1374.11	881.366
1375.63	856.957
1377.15	875.411
1378.66	852.558
1380.18	811.026
1381.7	831.75
1383.21	822.367
1384.73	791.567
1386.25	773.29
1387.77	774.866
1389.28	774.887
1390.8	749.645
1392.32	725.884
1393.84	743.918
1395.35	698.459
1396.87	695.553
1398.39	693.829
1399.91	683.784
1401.42	678.827
1402.94	671.823
1404.46	659.898
1405.97	655.851
1407.49	650.32
1409.01	635.809
1410.53	626.478
1412.04	621.44
1413.56	607.333
1415.08	602.223
1416.6	586.452
1418.11	591.757
1419.63	576.999
1421.15	571.397
1422.66	591.612
1424.18	560.73
1425.7	568.429
1427.22	592.164
1428.73	556.026
1430.25	558.437
1431.77	536.428
1433.29	550.88
1434.8	558.32
1436.32	537.582
1437.84	533.277
1439.36	528.321
1440.87	525.398
1442.39	546.246
1443.91	571.927
1445.42	542.228
1446.94	526.412
1448.46	532.177
1449.98	530.06
1451.49	522.149
1453.01	518.491
1454.53	512.115
1456.05	511.278
1457.56	512.136
1459.08	532.908
1460.6	507.173
1462.11	519.558
1463.63	517.377
1465.15	508.917
1466.67	512.79
1468.18	501.519
1469.7	483.207
1471.22	525.068
1472.74	513.434
1474.25	525.115
1475.77	501.009
1477.29	500.198
1478.81	492.139
1480.32	510.25
1481.84	514.255
1483.36	500.348
1484.87	494.705
1486.39	510.184
1487.91	507.445
1489.43	504.568
1490.94	500.331
1492.46	506.101
1493.98	504.26
1495.5	477.219
1497.01	502.976
1498.53	506.096
1500.05	516.444
1501.56	508.97
1503.08	521.418
1504.6	498.524
1506.12	524.26
1507.63	527.612
1509.15	531.043
1510.67	503.124
1512.19	524.79
1513.7	536.339
1515.22	536.178
1516.74	550.258
1518.26	525.862
1519.77	551.774
1521.29	516.832
1522.81	550.353
1524.32	533.19
1525.84	548.274
1527.36	552.718
1528.88	556.364
1530.39	548.881
1531.91	567.262
1533.43	569.304
1534.95	564.178
1536.46	573.445
1537.98	567.803
1539.5	586.498
1541.01	595.624
1542.53	606.328
1544.05	606.584
1545.57	630.174
1547.08	639.039
1548.6	616.759
1550.12	622.968
1551.64	651.713
1553.15	662.933
1554.67	677.662
1556.19	702.347
1557.71	709.965
1559.22	718.616
1560.74	708.027
1562.26	722.76
1563.77	742.653
1565.29	735.173
1566.81	769.59
1568.33	778.321
1569.84	797.067
1571.36	823.236
1572.88	821.644
1574.4	864.38
1575.91	849.313
1577.43	873.103
1578.95	889.551
1580.46	912.9
1581.98	935.175
1583.5	959.767
1585.02	953.621
1586.53	998.674
1588.05	995.292
1589.57	1010.45
1591.09	1010.28
1592.6	1012.55
1594.12	1035.95
1595.64	1015.84
1597.16	1039.26
1598.67	1031.3
1600.19	1047.92
1601.71	1010.01
1603.22	1014.36
1604.74	1000.96
1606.26	1011.65
1607.78	991.15
1609.29	956.204
1610.81	962.265
1612.33	939.376
1613.85	895.544
1615.36	887.641
1616.88	862.113
1618.4	821.027
1619.91	830.48
1621.43	787.746
1622.95	753.765
1624.47	711.833
1625.98	680.035
1627.5	672.166
1629.02	645.608
1630.54	618.726
1632.05	589.143
1633.57	550.152
1635.09	536.816
1636.6	531.584
1638.12	506.524
1639.64	469.065
1641.16	459.178
1642.67	449.193
1644.19	433.178
1645.71	417.965
1647.23	396.426
1648.74	372.907
1650.26	361.642
1651.78	359.729
1653.3	339.624
1654.81	320.452
1656.33	319.508
1657.85	299.439
1659.36	286.976
1660.88	287.33
1662.4	262.423
1663.92	258.356
1665.43	247.599
1666.95	250.534
1668.47	227.125
1669.99	228.737
1671.5	215.49
1673.02	209.965
1674.54	203.619
1676.06	197.362
1677.57	191.701
1679.09	177.983
1680.61	178.803
1682.12	170.938
1683.64	169.469
1685.16	154.703
1686.68	161.207
1688.19	146.263
1689.71	148.474
1691.23	146.763
1692.75	141.727
1694.26	144.304
1695.78	130.782
1697.3	141.362
1698.81	134.766
1700.33	137.884
1701.85	120.988
1703.37	128.999
1704.88	119.915
1706.4	128.026
1707.92	122.078
1709.44	121.36
1710.95	115.385
1712.47	114.382
1713.99	115.491
1715.51	109.892
1717.02	108.334
1718.54	106.124
1720.06	113.242
1721.57	103.183
1723.09	94.7438
1724.61	103.863
1726.13	99.0558
1727.64	102.749
1729.16	108.231
1730.68	100.686
1732.2	101.401
1733.71	96.3109
1735.23	101.296
1736.75	100.525
1738.26	95.3658
1739.78	90.3861
1741.3	98.0873
1742.82	95.3207
1744.33	95.6418
1745.85	93.5545
1747.37	98.0134
1748.89	94.2833
1750.4	90.9883
1751.92	89.159
1753.44	92.1776
1754.95	97.1279
1756.47	88.9993
1757.99	85.6623
1759.51	92.9929
1761.02	92.9042
1762.54	91.6311
1764.06	90.808
1765.58	88.9656
1767.09	91.234
1768.61	87.9935
1770.13	87.9205
1771.65	84.8526
1773.16	93.45
1774.68	88.8669
1776.2	92.3857
1777.71	91.3336
1779.23	89.9106
1780.75	84.4031
1782.27	84.048
1783.78	88.7692
1785.3	88.0316
1786.82	79.3839
1788.34	84.6472
1789.85	90.1228
1791.37	83.6844
1792.89	80.773
1794.4	83.0617
1795.92	84.8613
1797.44	82.0422
1798.96	82.3958
1800.47	88.5033
1801.99	83.5574
1803.51	87.6496
1805.03	88.8095
1806.54	85.4957
1808.06	83.9265
1809.58	88.2882
1811.1	89.2203
1812.61	80.8285
1814.13	81.8716
1815.65	79.6267
1817.16	82.7263
1818.68	88.6023
1820.2	87.972
1821.72	82.5677
1823.23	80.2509
1824.75	86.9438
1826.27	83.5884
1827.79	86.045
1829.3	82.0037
1830.82	85.6869
1832.34	81.0178
1833.85	85.4975
1835.37	86.5288
1836.89	84.5189
1838.41	80.1828
1839.92	82.8564
1841.44	81.6912
1842.96	73.7956
1844.48	84.3638
1845.99	83.2596
1847.51	83.7466
1849.03	83.3473
1850.55	87.6634
1852.06	87.022
1853.58	79.2507
1855.1	84.5613
1856.61	77.6949
1858.13	82.4043
1859.65	86.1266
1861.17	84.7793
1862.68	81.9465
1864.2	84.0182
1865.72	79.4111
1867.24	80.1769
1868.75	84.5116
1870.27	71.0418
1871.79	82.2734
1873.3	82.3021
1874.82	78.2672
1876.34	83.1608
1877.86	73.9182
1879.37	79.3775
1880.89	76.2385
1882.41	79.2957
1883.93	86.021
1885.44	74.937
1886.96	81.0158
1888.48	78.626
1890	80.8637
1891.51	70.9181
1893.03	74.8735
1894.55	76.4881
1896.06	83.1521
1897.58	82.4999
1899.1	70.9779
1900.62	77.0371
1902.13	84.2199
1903.65	78.847
1905.17	80.5571
1906.69	80.2838
1908.2	75.8874
1909.72	79.3453
1911.24	78.8222
1912.75	81.3799
1914.27	88.5554
1915.79	78.4218
1917.31	78.1153
1918.82	86.6714
1920.34	78.474
1921.86	77.8092
1923.38	80.8406
1924.89	76.3333
1926.41	80.1723
1927.93	72.1313
1929.45	83.8754
1930.96	82.9777
1932.48	77.6773
1934	80.2657
1935.51	81.4541
1937.03	86.8013
1938.55	79.2745
1940.07	84.9315
1941.58	80.8636
1943.1	83.089
1944.62	76.4214
1946.14	71.8766
1947.65	77
1949.17	80.8104
1950.69	82.1082
1952.2	85.4142
1953.72	74.7164
1955.24	77.1577
1956.76	80.9471
1958.27	71.3236
1959.79	87.3969
1961.31	77.7386
1962.83	74.8352
1964.34	74.3691
1965.86	82.3914
1967.38	85.3448
1968.9	72.562
1970.41	74.8067
1971.93	77.1652
1973.45	78.1614
1974.96	80.9398
1976.48	79.5075
1978	84.8156
1979.52	87.7525
1981.03	87.318
1982.55	79.2168
1984.07	80.7588
1985.59	78.3423
1987.1	84.7912
1988.62	75.9556
1990.14	74.6476
1991.65	76.7058
1993.17	77.1381
1994.69	80.1111
1996.21	80.9531
1997.72	67.6788
1999.24	84.1318
2000	92.1947