File: Example Data/Raman/CNT - TIM/Raytheon/Al foil/2010/06-23-10/Batch 12 - top_3.txt
400	103.452
401.517	124.541
403.035	119.529
404.552	119.286
406.069	119.691
407.587	122.504
409.104	112.187
410.621	122.571
412.138	117.267
413.656	127.624
415.173	128.371
416.69	123.253
418.208	123.72
419.725	118.979
421.242	125.098
422.76	124.302
424.277	114.743
425.794	123.717
427.312	117.883
428.829	121.947
430.346	115.699
431.863	114.027
433.381	120.402
434.898	121.123
436.415	120.935
437.933	112.401
439.45	118.836
440.967	113.727
442.485	115.223
444.002	121.543
445.519	108.909
447.036	117.406
448.554	119.293
450.071	118.611
451.588	115.883
453.106	115.293
454.623	114.555
456.14	116.945
457.658	106.505
459.175	109.5
460.692	112.444
462.21	111.678
463.727	114.383
465.244	110.041
466.762	112.533
468.279	111.435
469.796	110.705
471.313	112.914
472.831	114.154
474.348	103.144
475.865	112.491
477.383	100.472
478.9	112.276
480.417	114.54
481.935	109.61
483.452	112.909
484.969	109.365
486.486	99.1817
488.004	96.4345
489.521	96.988
491.038	94.0713
492.556	107.665
494.073	101.174
495.59	102.768
497.108	99.0428
498.625	101.507
500.142	104.303
501.66	108.576
503.177	104.579
504.694	108.513
506.211	92.1167
507.729	96.0091
509.246	96.3313
510.763	104.932
512.281	102.418
513.798	94.0694
515.315	100.041
516.833	93.4785
518.35	103.641
519.867	102.137
521.385	112.708
522.902	98.523
524.419	101.155
525.936	103.458
527.454	105.148
528.971	99.1833
530.488	94.2958
532.006	96.8606
533.523	97.9734
535.04	89.6028
536.558	102.866
538.075	89.8567
539.592	94.2777
541.11	105.46
542.627	101.421
544.144	99.4461
545.661	100.44
547.179	93.4167
548.696	97.7651
550.213	98.4899
551.731	107.992
553.248	99.4338
554.765	99.0085
556.283	95.6106
557.8	97.1682
559.317	85.0515
560.835	95.0313
562.352	91.6245
563.869	95.0472
565.386	92.7738
566.904	94.5495
568.421	101.469
569.938	96.7539
571.456	108.127
572.973	101.476
574.49	93.5587
576.008	102.219
577.525	94.8332
579.042	98.1783
580.56	103.503
582.077	106.166
583.594	92.3526
585.111	100.181
586.629	102.427
588.146	107.17
589.663	94.5637
591.181	93.2119
592.698	107.231
594.215	107.82
595.733	109.138
597.25	100.664
598.767	105.063
600.284	100.404
601.802	110.428
603.319	99.0842
604.836	102.382
606.354	102.437
607.871	105.899
609.388	110.1
610.906	104.872
612.423	104.24
613.94	116.697
615.458	96.3743
616.975	111.253
618.492	103.659
620.009	106.384
621.527	102.297
623.044	108.869
624.561	106.836
626.079	107.858
627.596	107.216
629.113	102.891
630.631	108.594
632.148	106.136
633.665	105.65
635.183	111.943
636.7	111.627
638.217	110.01
639.734	113.632
641.252	106.244
642.769	117.974
644.286	102.164
645.804	107.098
647.321	100.198
648.838	109.728
650.356	108.784
651.873	110.984
653.39	115.123
654.908	111.241
656.425	125.216
657.942	114.614
659.459	112.298
660.977	120.699
662.494	109.122
664.011	117.571
665.529	116.984
667.046	120.601
668.563	116.382
670.081	110.177
671.598	120.351
673.115	118.74
674.633	114.669
676.15	120.392
677.667	119.784
679.184	111.832
680.702	112.819
682.219	115.77
683.736	115.885
685.254	122.78
686.771	111.44
688.288	115.939
689.806	111.76
691.323	119.371
692.84	127.771
694.358	121.555
695.875	126.691
697.392	111.622
698.909	119.687
700.427	112.846
701.944	118.631
703.461	120.725
704.979	115.453
706.496	115.912
708.013	116.269
709.531	122.869
711.048	115.222
712.565	118.473
714.083	124.177
715.6	123.821
717.117	128.813
718.634	121.986
720.152	134.007
721.669	128.834
723.186	121.173
724.704	137.14
726.221	126.967
727.738	131.327
729.256	130.497
730.773	127.841
732.29	128
733.807	128.303
735.325	126.497
736.842	135.389
738.359	129.036
739.877	121.87
741.394	135.157
742.911	127.734
744.429	134.404
745.946	137.485
747.463	134.841
748.981	125.891
750.498	133.892
752.015	125.623
753.532	132.228
755.05	142.232
756.567	131.419
758.084	144.166
759.602	139.48
761.119	127.666
762.636	135.672
764.154	141.199
765.671	137.162
767.188	134.104
768.706	141.968
770.223	144.719
771.74	135.988
773.257	138.155
774.775	133.908
776.292	124.042
777.809	140.159
779.327	142.827
780.844	147.199
782.361	131.402
783.879	153.044
785.396	143.171
786.913	144.32
788.431	151.291
789.948	145.626
791.465	148.002
792.982	151.245
794.5	141.996
796.017	142.462
797.534	136.2
799.052	156.68
800.569	137.687
802.086	145.738
803.604	150.096
805.121	158.465
806.638	157.24
808.156	152.216
809.673	159.334
811.19	146.414
812.707	157.995
814.225	153.456
815.742	148.02
817.259	154.77
818.777	153.94
820.294	154.518
821.811	147.545
823.329	158.761
824.846	146.784
826.363	159.057
827.88	169.486
829.398	165.015
830.915	165.993
832.432	156.551
833.95	154.263
835.467	160.9
836.984	160.378
838.502	163.605
840.019	162.422
841.536	160.018
843.054	168.186
844.571	151.635
846.088	165.504
847.606	152.439
849.123	164.659
850.64	159.572
852.157	173.523
853.675	167.045
855.192	163.16
856.709	157.843
858.227	163.289
859.744	169.778
861.261	168.35
862.779	159.591
864.296	165
865.813	155.621
867.331	148.894
868.848	139.786
870.365	155.784
871.882	147.591
873.4	145.781
874.917	146.494
876.434	151.039
877.952	149.036
879.469	137.309
880.986	147.936
882.504	137.997
884.021	146.598
885.538	144.867
887.055	149.565
888.573	139.703
890.09	145.45
891.607	139.948
893.125	135.195
894.642	121.038
896.159	131.317
897.677	140.358
899.194	128.714
900.711	138.844
902.229	127.386
903.746	127.184
905.263	129.931
906.78	136.889
908.298	133
909.815	123.436
911.332	136.074
912.85	126.057
914.367	125.512
915.884	129.035
917.402	121.838
918.919	121.335
920.436	130.466
921.954	121.232
923.471	120.757
924.988	133.645
926.505	126.485
928.023	120.762
929.54	125.801
931.057	120.813
932.575	128.371
934.092	117.511
935.609	119.756
937.127	129.231
938.644	123.365
940.161	131.119
941.679	129.782
943.196	130.142
944.713	128.956
946.23	119.964
947.748	118
949.265	119.902
950.782	122.755
952.3	117.134
953.817	126.714
955.334	124.835
956.852	134.751
958.369	128.149
959.886	127.143
961.404	121.064
962.921	126.081
964.438	123.503
965.955	120.87
967.473	119.387
968.99	121.492
970.507	121.474
972.025	126.469
973.542	135.655
975.059	122.621
976.577	125.341
978.094	136.929
979.611	128.342
981.128	125.565
982.646	124.626
984.163	131.948
985.68	124.788
987.198	126.04
988.715	122.208
990.232	128.365
991.75	142.532
993.267	129.145
994.784	133.252
996.302	131.057
997.819	135.51
999.336	137.689
1000.85	142.675
1002.37	128.213
1003.89	146.236
1005.41	134.149
1006.92	141.304
1008.44	141.88
1009.96	150.667
1011.47	143.673
1012.99	154.843
1014.51	151.039
1016.03	154.493
1017.54	137.546
1019.06	153.44
1020.58	143.232
1022.1	155.26
1023.61	146.526
1025.13	160.451
1026.65	159.166
1028.17	162.965
1029.68	162.757
1031.2	155.625
1032.72	163.216
1034.23	168.206
1035.75	162.105
1037.27	164.022
1038.79	160.417
1040.3	170.994
1041.82	159.366
1043.34	171.802
1044.86	172.759
1046.37	176.888
1047.89	177.296
1049.41	170.542
1050.92	173.435
1052.44	180.618
1053.96	175.13
1055.48	178.667
1056.99	175.836
1058.51	179.318
1060.03	175.029
1061.55	167.669
1063.06	183.331
1064.58	179.443
1066.1	182.389
1067.61	172.65
1069.13	186.231
1070.65	176.777
1072.17	167.903
1073.68	184.09
1075.2	174.921
1076.72	191.967
1078.24	182.333
1079.75	193.333
1081.27	192.344
1082.79	196.629
1084.31	189.926
1085.82	191.378
1087.34	189.482
1088.86	205.063
1090.37	198.16
1091.89	199.67
1093.41	201.576
1094.93	204.178
1096.44	205.313
1097.96	198.899
1099.48	206.592
1101	198.728
1102.51	213.635
1104.03	211.845
1105.55	215.86
1107.06	216.797
1108.58	211.255
1110.1	206.28
1111.62	214.592
1113.13	217.407
1114.65	229.632
1116.17	219.152
1117.69	217.536
1119.2	225.053
1120.72	215.879
1122.24	235.153
1123.76	224.563
1125.27	219.539
1126.79	229.39
1128.31	227.8
1129.82	226.235
1131.34	225.108
1132.86	226.764
1134.38	247.268
1135.89	243.879
1137.41	237.324
1138.93	253.718
1140.45	246.676
1141.96	228.031
1143.48	248.291
1145	252.331
1146.51	261.687
1148.03	251.77
1149.55	269.949
1151.07	249.042
1152.58	258.844
1154.1	253.667
1155.62	252.107
1157.14	258.461
1158.65	262.348
1160.17	258.422
1161.69	262.886
1163.21	272.303
1164.72	262.515
1166.24	264.079
1167.76	265.081
1169.27	275.705
1170.79	268.697
1172.31	271.829
1173.83	276.882
1175.34	267.406
1176.86	270.595
1178.38	271.44
1179.9	279.939
1181.41	277.795
1182.93	271.329
1184.45	288.15
1185.96	281.56
1187.48	279.105
1189	291.207
1190.52	290.42
1192.03	282.882
1193.55	283.322
1195.07	282.372
1196.59	280.916
1198.1	294.389
1199.62	294.647
1201.14	286.381
1202.66	295.519
1204.17	295.481
1205.69	294.613
1207.21	294.535
1208.72	285.458
1210.24	294.401
1211.76	307.892
1213.28	303.29
1214.79	314.345
1216.31	311.173
1217.83	305.31
1219.35	320.389
1220.86	324.003
1222.38	326.933
1223.9	313.204
1225.41	328.594
1226.93	318.11
1228.45	318.963
1229.97	329.812
1231.48	325.081
1233	322.096
1234.52	348.996
1236.04	353.27
1237.55	345.969
1239.07	346.305
1240.59	356.212
1242.11	357.498
1243.62	369.115
1245.14	377.45
1246.66	375.912
1248.17	369.729
1249.69	377.526
1251.21	381.227
1252.73	394.035
1254.24	385.913
1255.76	380.456
1257.28	411.587
1258.8	396.646
1260.31	425.167
1261.83	430.75
1263.35	434.028
1264.86	423.69
1266.38	440.738
1267.9	447.302
1269.42	456.05
1270.93	437.959
1272.45	464.799
1273.97	436.419
1275.49	480.333
1277	465.476
1278.52	505.615
1280.04	495.828
1281.56	501.59
1283.07	529.874
1284.59	515.096
1286.11	521.305
1287.62	535.63
1289.14	530.267
1290.66	553.883
1292.18	562.119
1293.69	562.348
1295.21	590.742
1296.73	603.252
1298.25	626.952
1299.76	629.333
1301.28	624.841
1302.8	660.041
1304.31	661.09
1305.83	685.021
1307.35	696.017
1308.87	703.387
1310.38	715.981
1311.9	731.109
1313.42	772.222
1314.94	786.307
1316.45	823.181
1317.97	812.646
1319.49	853.98
1321.01	850.348
1322.52	862.983
1324.04	894.085
1325.56	895.844
1327.07	888.628
1328.59	917.793
1330.11	949.877
1331.63	990.182
1333.14	960.549
1334.66	969.922
1336.18	1011.24
1337.7	1006.42
1339.21	997.459
1340.73	1035.43
1342.25	1035.82
1343.76	1031.72
1345.28	1051.79
1346.8	1036.28
1348.32	1027.71
1349.83	1021.53
1351.35	1010.88
1352.87	1008.31
1354.39	1024.32
1355.9	1005.63
1357.42	974.573
1358.94	945.573
1360.46	938.779
1361.97	945.801
1363.49	926.279
1365.01	916.763
1366.52	912.076
1368.04	866.8
1369.56	860.784
1371.08	861.612
1372.59	831.406
1374.11	825.055
1375.63	805.711
1377.15	796.892
1378.66	771.488
1380.18	752.356
1381.7	750.702
1383.21	735.923
1384.73	722.892
1386.25	702.016
1387.77	688.763
1389.28	663.972
1390.8	660.207
1392.32	653.202
1393.84	637.557
1395.35	643.604
1396.87	615.589
1398.39	606.492
1399.91	604.062
1401.42	591.2
1402.94	594.675
1404.46	564.148
1405.97	574.047
1407.49	570.177
1409.01	556.156
1410.53	551.505
1412.04	526.549
1413.56	537.524
1415.08	540.498
1416.6	521.272
1418.11	525.603
1419.63	528.323
1421.15	508.97
1422.66	493.661
1424.18	489.446
1425.7	505.786
1427.22	495
1428.73	497.748
1430.25	491.811
1431.77	481.332
1433.29	489.879
1434.8	485.236
1436.32	491.426
1437.84	473.52
1439.36	469.117
1440.87	470.423
1442.39	461.633
1443.91	478.05
1445.42	459.788
1446.94	463.422
1448.46	456.137
1449.98	479.837
1451.49	449.725
1453.01	472.077
1454.53	469.199
1456.05	460.205
1457.56	459.087
1459.08	439.41
1460.6	455.831
1462.11	458.265
1463.63	451.029
1465.15	471.294
1466.67	470.643
1468.18	461.885
1469.7	455.718
1471.22	436.83
1472.74	453.913
1474.25	454.142
1475.77	442.36
1477.29	452.027
1478.81	451.711
1480.32	462.83
1481.84	442.921
1483.36	451.345
1484.87	454.911
1486.39	447.005
1487.91	460.223
1489.43	462.783
1490.94	450.203
1492.46	454.169
1493.98	462.041
1495.5	457.043
1497.01	459.656
1498.53	471.237
1500.05	476.688
1501.56	451.814
1503.08	458.918
1504.6	459.392
1506.12	475.796
1507.63	460.388
1509.15	462.803
1510.67	466.88
1512.19	475.122
1513.7	471.691
1515.22	480.425
1516.74	494.564
1518.26	468.259
1519.77	496.58
1521.29	484.034
1522.81	477.468
1524.32	497.658
1525.84	500.947
1527.36	510.424
1528.88	536.735
1530.39	518.399
1531.91	526.339
1533.43	518.165
1534.95	546.283
1536.46	540.1
1537.98	544.268
1539.5	558.831
1541.01	568.974
1542.53	566.919
1544.05	579.314
1545.57	604.501
1547.08	606.218
1548.6	626.064
1550.12	634.861
1551.64	655.131
1553.15	665.381
1554.67	646.526
1556.19	679.008
1557.71	719.591
1559.22	739.782
1560.74	746.618
1562.26	752.501
1563.77	793.187
1565.29	788.502
1566.81	791.161
1568.33	803.421
1569.84	827.986
1571.36	855.233
1572.88	875.303
1574.4	880.419
1575.91	903.003
1577.43	899.951
1578.95	920.13
1580.46	963.773
1581.98	942.061
1583.5	964.408
1585.02	974.688
1586.53	993.954
1588.05	1012.61
1589.57	1017.95
1591.09	999.134
1592.6	1019.28
1594.12	1035.48
1595.64	1028.94
1597.16	1015.44
1598.67	1020
1600.19	987.228
1601.71	997.537
1603.22	1000.45
1604.74	982.335
1606.26	966.598
1607.78	964.586
1609.29	943.083
1610.81	930.042
1612.33	909.65
1613.85	891.139
1615.36	858.767
1616.88	860.463
1618.4	827.23
1619.91	815.732
1621.43	767.426
1622.95	762.593
1624.47	724.757
1625.98	710.436
1627.5	683.281
1629.02	645.266
1630.54	627.263
1632.05	589.153
1633.57	577.761
1635.09	554.222
1636.6	519.158
1638.12	512.382
1639.64	480.93
1641.16	459.978
1642.67	430.417
1644.19	419.137
1645.71	407.172
1647.23	403.081
1648.74	365.195
1650.26	349.129
1651.78	340.106
1653.3	320.09
1654.81	308.378
1656.33	301.121
1657.85	281.26
1659.36	280.767
1660.88	267.066
1662.4	256.391
1663.92	248.681
1665.43	230.453
1666.95	228.032
1668.47	220.246
1669.99	200.712
1671.5	194.192
1673.02	191.636
1674.54	183.621
1676.06	174.075
1677.57	177.677
1679.09	168.027
1680.61	158.974
1682.12	152.117
1683.64	147.252
1685.16	146.373
1686.68	138.086
1688.19	144.809
1689.71	134.193
1691.23	139.318
1692.75	132.432
1694.26	132.622
1695.78	120.895
1697.3	121.283
1698.81	123.62
1700.33	114.555
1701.85	116.265
1703.37	118.335
1704.88	113.387
1706.4	109.704
1707.92	114.762
1709.44	108.356
1710.95	106.749
1712.47	106.396
1713.99	102.464
1715.51	102.626
1717.02	101.987
1718.54	100.418
1720.06	100.782
1721.57	101.358
1723.09	91.1004
1724.61	96.4527
1726.13	94.1022
1727.64	102.382
1729.16	103.82
1730.68	96.6627
1732.2	91.8197
1733.71	96.1047
1735.23	94.9041
1736.75	90.693
1738.26	91.1554
1739.78	87.1927
1741.3	87.938
1742.82	89.4431
1744.33	88.1038
1745.85	86.8615
1747.37	83.9206
1748.89	82.9919
1750.4	86.8638
1751.92	86.3201
1753.44	84.2255
1754.95	82.8964
1756.47	85.162
1757.99	88.2672
1759.51	84.0384
1761.02	86.2132
1762.54	83.6665
1764.06	86.8533
1765.58	85.7588
1767.09	87.8086
1768.61	85.0007
1770.13	77.9396
1771.65	80.5217
1773.16	76.6423
1774.68	85.342
1776.2	85.3728
1777.71	77.7625
1779.23	76.4021
1780.75	78.8924
1782.27	80.3907
1783.78	79.6174
1785.3	77.7373
1786.82	89.4553
1788.34	85.9236
1789.85	81.4496
1791.37	81.5507
1792.89	76.9028
1794.4	78.1552
1795.92	80.5838
1797.44	74.2554
1798.96	77.2296
1800.47	80.4865
1801.99	82.0792
1803.51	85.6082
1805.03	80.3078
1806.54	83.4405
1808.06	76.403
1809.58	79.6662
1811.1	78.6367
1812.61	80.3811
1814.13	80.3498
1815.65	81.5611
1817.16	78.1139
1818.68	81.0718
1820.2	79.6088
1821.72	76.7104
1823.23	77.3373
1824.75	83.1344
1826.27	80.792
1827.79	74.6673
1829.3	82.7302
1830.82	79.2175
1832.34	74.8636
1833.85	81.0112
1835.37	73.3686
1836.89	77.6554
1838.41	79.9083
1839.92	79.6764
1841.44	79.3615
1842.96	81.8911
1844.48	79.8281
1845.99	80.3071
1847.51	81.9732
1849.03	84.5196
1850.55	78.1033
1852.06	74.9442
1853.58	83.6423
1855.1	80.9207
1856.61	82.0902
1858.13	76.6581
1859.65	75.137
1861.17	73.6001
1862.68	76.8676
1864.2	78.7021
1865.72	70.9884
1867.24	78.5505
1868.75	75.2368
1870.27	79.1167
1871.79	78.0778
1873.3	78.034
1874.82	74.031
1876.34	78.4794
1877.86	85.8393
1879.37	72.4797
1880.89	72.4859
1882.41	82.4516
1883.93	71.847
1885.44	73.0181
1886.96	69.3098
1888.48	71.6992
1890	75.6598
1891.51	70.2757
1893.03	85.1238
1894.55	73.4234
1896.06	73.7251
1897.58	78.1669
1899.1	77.3733
1900.62	75.0704
1902.13	81.5234
1903.65	80.1471
1905.17	75.1212
1906.69	76.321
1908.2	79.7162
1909.72	87.1049
1911.24	77.1109
1912.75	77.4833
1914.27	72.1111
1915.79	68.8469
1917.31	77.3689
1918.82	78.6571
1920.34	76.4004
1921.86	73.847
1923.38	77.5471
1924.89	80.13
1926.41	73.3505
1927.93	74.6869
1929.45	75.7656
1930.96	73.7778
1932.48	75.5179
1934	77.0812
1935.51	73.3769
1937.03	69.179
1938.55	76.741
1940.07	76.8919
1941.58	75.1364
1943.1	73.997
1944.62	80.2369
1946.14	78.7133
1947.65	73.0973
1949.17	74.1796
1950.69	71.1608
1952.2	65.5959
1953.72	73.3616
1955.24	71.7711
1956.76	79.6483
1958.27	79.4082
1959.79	70.7318
1961.31	72.9369
1962.83	72.0143
1964.34	78.1904
1965.86	76.5199
1967.38	80.7753
1968.9	75.6021
1970.41	80.8168
1971.93	72.2613
1973.45	71.9177
1974.96	74.4508
1976.48	76.9587
1978	71.147
1979.52	73.4616
1981.03	73.964
1982.55	77.8632
1984.07	78.2809
1985.59	84.0676
1987.1	73.0096
1988.62	80.6685
1990.14	77.4834
1991.65	85.5098
1993.17	70.8856
1994.69	72.8241
1996.21	77.7617
1997.72	80.8626
1999.24	74.2337
2000	76.7426