File: Example Data/Raman/CNT - TIM/Raytheon/Al foil/2010/06-23-10/Batch 12 a - top_2.txt
400	104.86
401.517	104.291
403.035	94.037
404.552	103.494
406.069	100.283
407.587	92.6827
409.104	101.006
410.621	105.241
412.138	102.423
413.656	101.343
415.173	104.024
416.69	96.4969
418.208	94.5674
419.725	96.6042
421.242	101.466
422.76	102.172
424.277	93.6539
425.794	102.883
427.312	100.065
428.829	97.2687
430.346	109.446
431.863	95.2886
433.381	99.8784
434.898	101.298
436.415	98.9363
437.933	105.673
439.45	105.009
440.967	105.442
442.485	100.306
444.002	92.6067
445.519	107.622
447.036	109.437
448.554	99.5257
450.071	102.148
451.588	94.4816
453.106	104.301
454.623	101.807
456.14	99.3685
457.658	97.5967
459.175	104.785
460.692	101.111
462.21	89.1725
463.727	93.7225
465.244	91.3048
466.762	93.9038
468.279	95.8973
469.796	93.5871
471.313	103.738
472.831	91.7341
474.348	91.0481
475.865	98.1707
477.383	89.0586
478.9	98.2797
480.417	90.3859
481.935	95.6431
483.452	88.7581
484.969	84.4232
486.486	93.9967
488.004	94.3671
489.521	90.7272
491.038	100.552
492.556	90.0011
494.073	95.783
495.59	83.3247
497.108	91.804
498.625	86.4858
500.142	86.6637
501.66	86.6063
503.177	90.8847
504.694	88.146
506.211	85.1083
507.729	89.4925
509.246	82.0995
510.763	76.2992
512.281	93.9521
513.798	89.3129
515.315	92.9908
516.833	88.6296
518.35	89.9398
519.867	84.6032
521.385	93.2888
522.902	84.5498
524.419	76.7048
525.936	81.9378
527.454	89.2134
528.971	91.3094
530.488	92.5695
532.006	85.6667
533.523	79.4555
535.04	98.0936
536.558	95.8705
538.075	85.3486
539.592	85
541.11	88.4132
542.627	83.9869
544.144	80.273
545.661	93.0132
547.179	89.5624
548.696	90.0789
550.213	80.1901
551.731	90.9361
553.248	92.3333
554.765	89.9887
556.283	85.4105
557.8	93.5688
559.317	87.5525
560.835	81.2118
562.352	96.0843
563.869	97.5535
565.386	94.4082
566.904	90.2439
568.421	89.9086
569.938	92.3888
571.456	92.6902
572.973	82.5308
574.49	89.8003
576.008	91.6115
577.525	90.5069
579.042	91.2917
580.56	85.195
582.077	90.0334
583.594	92.448
585.111	100.484
586.629	93.962
588.146	87.8123
589.663	91.4273
591.181	92.4209
592.698	86.3476
594.215	86.1218
595.733	96.1819
597.25	91.3313
598.767	87.2741
600.284	94.998
601.802	85.7901
603.319	90.544
604.836	94.2895
606.354	88.3901
607.871	94.3915
609.388	89.3801
610.906	95.7693
612.423	103.249
613.94	90.0271
615.458	96.0697
616.975	100.459
618.492	88.8754
620.009	98.6664
621.527	90.7161
623.044	104.408
624.561	96.8637
626.079	91.0064
627.596	92.4481
629.113	94.616
630.631	90.443
632.148	84.623
633.665	103.604
635.183	104.028
636.7	95.9215
638.217	89.6467
639.734	106.064
641.252	94.191
642.769	86.7512
644.286	98.3445
645.804	107.288
647.321	95.9464
648.838	94.227
650.356	98.6073
651.873	91.2539
653.39	104.705
654.908	97.514
656.425	104.323
657.942	101.931
659.459	107.245
660.977	99.0086
662.494	102.447
664.011	103.523
665.529	97.3349
667.046	116.866
668.563	114.539
670.081	103.498
671.598	103.611
673.115	112.432
674.633	102.69
676.15	98.6131
677.667	98.7609
679.184	102.835
680.702	96.1756
682.219	96.3288
683.736	101.549
685.254	102.121
686.771	105.602
688.288	100.499
689.806	108.095
691.323	97.9694
692.84	103.941
694.358	108.487
695.875	106.691
697.392	110.951
698.909	98.8656
700.427	106.41
701.944	106.137
703.461	110.9
704.979	98.2397
706.496	109.508
708.013	109.761
709.531	105.287
711.048	116.777
712.565	106.076
714.083	104.839
715.6	113.487
717.117	113.703
718.634	118.114
720.152	100.843
721.669	109.434
723.186	117.129
724.704	124.108
726.221	108.1
727.738	103.49
729.256	111.971
730.773	124.381
732.29	118.333
733.807	115.609
735.325	116.851
736.842	120.795
738.359	121.914
739.877	115.23
741.394	118.47
742.911	116.911
744.429	111.668
745.946	119.03
747.463	120.917
748.981	125.582
750.498	118.561
752.015	123.333
753.532	113.145
755.05	126.964
756.567	125.339
758.084	115.351
759.602	121.739
761.119	127.89
762.636	131.448
764.154	125.928
765.671	122.117
767.188	118.772
768.706	125.485
770.223	126.118
771.74	117.685
773.257	132.476
774.775	120.563
776.292	121.606
777.809	135.359
779.327	130.515
780.844	126.411
782.361	123.625
783.879	122.551
785.396	131.667
786.913	126.919
788.431	129.557
789.948	125.52
791.465	137.481
792.982	133.741
794.5	134.493
796.017	135.522
797.534	126.127
799.052	132.993
800.569	124.09
802.086	139.315
803.604	129.861
805.121	138.068
806.638	130.298
808.156	128.064
809.673	138.177
811.19	152.024
812.707	147.57
814.225	143.473
815.742	138.66
817.259	145.501
818.777	139.215
820.294	137.648
821.811	140.596
823.329	143.282
824.846	145.063
826.363	135.94
827.88	138.955
829.398	147.361
830.915	145.291
832.432	149.456
833.95	146.476
835.467	153.334
836.984	143.35
838.502	142.495
840.019	145.245
841.536	152.112
843.054	154.462
844.571	143.798
846.088	151.815
847.606	146.135
849.123	153.37
850.64	141.228
852.157	148.333
853.675	152.027
855.192	153.483
856.709	154.899
858.227	150.035
859.744	147.273
861.261	138.632
862.779	135.53
864.296	142.624
865.813	144.89
867.331	133.022
868.848	138.558
870.365	135.784
871.882	133.971
873.4	138.277
874.917	129.725
876.434	134.253
877.952	125.044
879.469	129.765
880.986	132.366
882.504	119.666
884.021	126.313
885.538	134.984
887.055	129.595
888.573	124.532
890.09	126.383
891.607	123.021
893.125	122.742
894.642	131.255
896.159	126.703
897.677	117.229
899.194	128.944
900.711	119.474
902.229	112.825
903.746	111.674
905.263	115.481
906.78	99.4438
908.298	105.497
909.815	101.084
911.332	117.904
912.85	106.921
914.367	112.522
915.884	114.842
917.402	108.766
918.919	112.253
920.436	105.537
921.954	106.646
923.471	105.982
924.988	103.88
926.505	110.292
928.023	125.898
929.54	110.267
931.057	112.372
932.575	110.039
934.092	111.647
935.609	99.8204
937.127	107.139
938.644	104.365
940.161	100.383
941.679	102.816
943.196	114.248
944.713	109.564
946.23	104.44
947.748	101.64
949.265	101.956
950.782	98.0312
952.3	113.161
953.817	106.952
955.334	104.486
956.852	105.945
958.369	108.482
959.886	104.621
961.404	104.1
962.921	106.963
964.438	106.773
965.955	113.758
967.473	106.956
968.99	107.699
970.507	108.851
972.025	113.286
973.542	103.22
975.059	107.82
976.577	110.643
978.094	104.478
979.611	119.364
981.128	102.362
982.646	112.204
984.163	102.647
985.68	120.336
987.198	110.001
988.715	107.856
990.232	112.878
991.75	112.265
993.267	114.421
994.784	120.019
996.302	112.8
997.819	114.675
999.336	117.09
1000.85	118.316
1002.37	121.503
1003.89	112.665
1005.41	120.374
1006.92	125.304
1008.44	134.213
1009.96	122.17
1011.47	132.649
1012.99	124.456
1014.51	119.142
1016.03	116.064
1017.54	129.086
1019.06	122.966
1020.58	126.773
1022.1	132.482
1023.61	135.73
1025.13	131.926
1026.65	142.001
1028.17	135.216
1029.68	137.602
1031.2	132.746
1032.72	145.567
1034.23	146.647
1035.75	136.986
1037.27	146.624
1038.79	154.453
1040.3	148.296
1041.82	136.734
1043.34	152.205
1044.86	143.821
1046.37	149.999
1047.89	152.394
1049.41	150.406
1050.92	155.188
1052.44	145.777
1053.96	143.652
1055.48	142.322
1056.99	155.325
1058.51	145.82
1060.03	144.725
1061.55	147.631
1063.06	148.196
1064.58	154.579
1066.1	158.929
1067.61	143.694
1069.13	149.195
1070.65	159.652
1072.17	147.118
1073.68	151.18
1075.2	146.786
1076.72	158.931
1078.24	154.626
1079.75	155.074
1081.27	167.49
1082.79	166.242
1084.31	163.765
1085.82	167.029
1087.34	170.631
1088.86	156.951
1090.37	175.382
1091.89	170.106
1093.41	165.364
1094.93	171.905
1096.44	161.824
1097.96	171.081
1099.48	164.483
1101	178.424
1102.51	187.594
1104.03	181.566
1105.55	178.333
1107.06	183.97
1108.58	186.432
1110.1	178.665
1111.62	184.894
1113.13	185.674
1114.65	185.792
1116.17	200.831
1117.69	201.002
1119.2	180.404
1120.72	196.748
1122.24	191.559
1123.76	195.896
1125.27	187.748
1126.79	200.772
1128.31	195.96
1129.82	188.491
1131.34	201.446
1132.86	200.931
1134.38	212.734
1135.89	209.86
1137.41	217.336
1138.93	204.509
1140.45	231.439
1141.96	223.954
1143.48	225.439
1145	244.67
1146.51	221.42
1148.03	231.778
1149.55	230.673
1151.07	232.111
1152.58	244.973
1154.1	237.57
1155.62	242.198
1157.14	245.098
1158.65	228.303
1160.17	253.021
1161.69	230.624
1163.21	260.382
1164.72	249.347
1166.24	248.925
1167.76	238.148
1169.27	251.171
1170.79	248.991
1172.31	248.078
1173.83	257.155
1175.34	258.618
1176.86	255.967
1178.38	259.72
1179.9	257.492
1181.41	252.604
1182.93	270.369
1184.45	268.248
1185.96	268.721
1187.48	260.405
1189	269.488
1190.52	261.162
1192.03	267.644
1193.55	273.34
1195.07	263.73
1196.59	261.641
1198.1	268.306
1199.62	280.147
1201.14	277.854
1202.66	266.951
1204.17	276.208
1205.69	279.119
1207.21	276.733
1208.72	280.38
1210.24	283.132
1211.76	296.354
1213.28	275.633
1214.79	291.385
1216.31	289.16
1217.83	293.902
1219.35	277.076
1220.86	286.492
1222.38	296.717
1223.9	290.524
1225.41	292.854
1226.93	304.553
1228.45	320.214
1229.97	303.455
1231.48	311.842
1233	305.236
1234.52	326.523
1236.04	325.788
1237.55	326.132
1239.07	335.078
1240.59	334.246
1242.11	336.821
1243.62	328.691
1245.14	341.12
1246.66	344.007
1248.17	355.9
1249.69	366.321
1251.21	342.713
1252.73	351.137
1254.24	362.494
1255.76	369.841
1257.28	365.654
1258.8	388.124
1260.31	382.792
1261.83	389.869
1263.35	388.511
1264.86	397.935
1266.38	386.37
1267.9	412.18
1269.42	407.055
1270.93	425.029
1272.45	423.83
1273.97	434.653
1275.49	437.406
1277	435.286
1278.52	470.191
1280.04	463.583
1281.56	472.325
1283.07	496.293
1284.59	489.682
1286.11	490.64
1287.62	507.424
1289.14	501.02
1290.66	527.837
1292.18	515.139
1293.69	533.659
1295.21	540.103
1296.73	571.584
1298.25	559.667
1299.76	551.853
1301.28	613.347
1302.8	586.956
1304.31	600.985
1305.83	618.007
1307.35	658.297
1308.87	640.656
1310.38	669.22
1311.9	671.302
1313.42	665.505
1314.94	678.672
1316.45	708.321
1317.97	694.355
1319.49	709.685
1321.01	712.065
1322.52	745.68
1324.04	764.559
1325.56	761.264
1327.07	771.216
1328.59	813.311
1330.11	792.294
1331.63	822.872
1333.14	828.485
1334.66	798.414
1336.18	844.579
1337.7	861.595
1339.21	834.937
1340.73	845.946
1342.25	858.63
1343.76	859.468
1345.28	855.695
1346.8	859.738
1348.32	855.779
1349.83	872.076
1351.35	860.266
1352.87	816.251
1354.39	865.471
1355.9	828.301
1357.42	833.99
1358.94	797.058
1360.46	803.313
1361.97	813.139
1363.49	795.765
1365.01	771.158
1366.52	784.85
1368.04	752.227
1369.56	767.996
1371.08	738.554
1372.59	731.732
1374.11	716.286
1375.63	683.32
1377.15	691.286
1378.66	674.093
1380.18	669.362
1381.7	662.131
1383.21	644.57
1384.73	646.979
1386.25	624.854
1387.77	610.744
1389.28	615.076
1390.8	602.689
1392.32	588.263
1393.84	577.799
1395.35	550.568
1396.87	559.175
1398.39	546.221
1399.91	536.298
1401.42	541.093
1402.94	531.695
1404.46	513.073
1405.97	525.885
1407.49	518.361
1409.01	488.47
1410.53	498.729
1412.04	486.024
1413.56	484.19
1415.08	480
1416.6	486.467
1418.11	471.487
1419.63	456.542
1421.15	462.481
1422.66	437.237
1424.18	444.626
1425.7	454.094
1427.22	438.664
1428.73	449.854
1430.25	444.08
1431.77	445.441
1433.29	435.233
1434.8	420.892
1436.32	441.9
1437.84	441.799
1439.36	414.822
1440.87	425.295
1442.39	418.815
1443.91	415.932
1445.42	417.888
1446.94	406.152
1448.46	420.216
1449.98	401.434
1451.49	401.359
1453.01	409.705
1454.53	409.853
1456.05	402.98
1457.56	400.19
1459.08	403.102
1460.6	417.987
1462.11	394.498
1463.63	409.04
1465.15	393.395
1466.67	390.041
1468.18	399.539
1469.7	404.179
1471.22	400.134
1472.74	391.94
1474.25	403
1475.77	386.998
1477.29	386.443
1478.81	411.909
1480.32	408.906
1481.84	393.055
1483.36	408.917
1484.87	388.863
1486.39	382.015
1487.91	395.778
1489.43	390.234
1490.94	392.472
1492.46	402.539
1493.98	381.311
1495.5	396.251
1497.01	396.584
1498.53	383.741
1500.05	396.147
1501.56	389.46
1503.08	401.233
1504.6	395.094
1506.12	397.616
1507.63	388.864
1509.15	402.888
1510.67	396.449
1512.19	404.763
1513.7	416.335
1515.22	404.034
1516.74	403.742
1518.26	407.064
1519.77	419.269
1521.29	410.621
1522.81	423.414
1524.32	408.16
1525.84	412.508
1527.36	419.522
1528.88	414.185
1530.39	425.339
1531.91	422.453
1533.43	441.918
1534.95	435.47
1536.46	451.544
1537.98	425.512
1539.5	452.852
1541.01	453.4
1542.53	456.134
1544.05	456.481
1545.57	472.137
1547.08	463.153
1548.6	475.996
1550.12	494.618
1551.64	498.937
1553.15	504.519
1554.67	512.577
1556.19	535.884
1557.71	546.898
1559.22	558.355
1560.74	570.206
1562.26	559.597
1563.77	576.024
1565.29	574.878
1566.81	596.641
1568.33	591.132
1569.84	592.194
1571.36	625.723
1572.88	664.055
1574.4	658.6
1575.91	655.43
1577.43	689.407
1578.95	706.922
1580.46	702.144
1581.98	732.419
1583.5	748.081
1585.02	748.72
1586.53	766.027
1588.05	775.447
1589.57	793.178
1591.09	799.568
1592.6	804.957
1594.12	806.479
1595.64	822.064
1597.16	821.132
1598.67	819.788
1600.19	807.074
1601.71	831.488
1603.22	813.868
1604.74	806.117
1606.26	792.787
1607.78	806.65
1609.29	779.64
1610.81	766.628
1612.33	748.479
1613.85	756.233
1615.36	726.222
1616.88	707.698
1618.4	689.637
1619.91	660.611
1621.43	631.324
1622.95	623.502
1624.47	591.374
1625.98	566.569
1627.5	549.549
1629.02	513.333
1630.54	507.393
1632.05	477.442
1633.57	462.707
1635.09	437.644
1636.6	426.408
1638.12	413.838
1639.64	396.672
1641.16	372.493
1642.67	359.724
1644.19	337.493
1645.71	334.988
1647.23	325.461
1648.74	315.999
1650.26	296.625
1651.78	287.574
1653.3	269.929
1654.81	263.459
1656.33	262.823
1657.85	243.557
1659.36	232.365
1660.88	230.445
1662.4	216.689
1663.92	213.056
1665.43	200.449
1666.95	193.086
1668.47	185.585
1669.99	175.514
1671.5	170.409
1673.02	163.749
1674.54	156.698
1676.06	151.703
1677.57	147.25
1679.09	147.432
1680.61	136.797
1682.12	129.281
1683.64	126.881
1685.16	131.383
1686.68	126.659
1688.19	130.86
1689.71	116.489
1691.23	117.667
1692.75	108.1
1694.26	108.656
1695.78	109.68
1697.3	107.749
1698.81	103.535
1700.33	106.382
1701.85	95.9229
1703.37	100.357
1704.88	93.0123
1706.4	98.1931
1707.92	94.0049
1709.44	86.4526
1710.95	91.2604
1712.47	85.7492
1713.99	92.4649
1715.51	85.2699
1717.02	81.6954
1718.54	79.7994
1720.06	76.9568
1721.57	77.0729
1723.09	77.9762
1724.61	84.8386
1726.13	81.0071
1727.64	77.1001
1729.16	78.5137
1730.68	74.7946
1732.2	74.7882
1733.71	74.6714
1735.23	75.7359
1736.75	80.596
1738.26	72.6962
1739.78	79.5382
1741.3	78.22
1742.82	75.8383
1744.33	71.2906
1745.85	76.2745
1747.37	72.746
1748.89	75.7355
1750.4	71.938
1751.92	71.4651
1753.44	64.679
1754.95	68.3997
1756.47	68.6668
1757.99	69.4539
1759.51	69.8053
1761.02	68.9104
1762.54	66.2108
1764.06	65.802
1765.58	58.2404
1767.09	65.6604
1768.61	65.8435
1770.13	67.5968
1771.65	66.6545
1773.16	66.4298
1774.68	65.5487
1776.2	65.0048
1777.71	67.4268
1779.23	66.991
1780.75	65.9429
1782.27	64.8325
1783.78	66.999
1785.3	55.5854
1786.82	61.1406
1788.34	63.184
1789.85	63.7012
1791.37	63.1218
1792.89	62.2746
1794.4	68.0834
1795.92	64.1947
1797.44	64.2028
1798.96	64.5767
1800.47	63.0126
1801.99	59.1716
1803.51	64.1953
1805.03	69.1747
1806.54	66.9819
1808.06	57.346
1809.58	61.4294
1811.1	64.5798
1812.61	57.1613
1814.13	60.7915
1815.65	59.2409
1817.16	64.2366
1818.68	61.0976
1820.2	56.5487
1821.72	61.21
1823.23	59.9743
1824.75	58.505
1826.27	60.9723
1827.79	65.0488
1829.3	58.5931
1830.82	58.4607
1832.34	63.7883
1833.85	53.5241
1835.37	64.9032
1836.89	56.8916
1838.41	67.6176
1839.92	63.7128
1841.44	58.7028
1842.96	62.5456
1844.48	59.1353
1845.99	63.2529
1847.51	55.8658
1849.03	57.7762
1850.55	59.7756
1852.06	63.8819
1853.58	59.7248
1855.1	63.8373
1856.61	64.7025
1858.13	58.3714
1859.65	63.293
1861.17	58.2997
1862.68	62.2533
1864.2	62.9597
1865.72	61.5125
1867.24	63.0545
1868.75	59.6372
1870.27	60.2556
1871.79	52.7224
1873.3	55.1462
1874.82	55.7706
1876.34	55.8833
1877.86	56.62
1879.37	63.8635
1880.89	56.4645
1882.41	65.4577
1883.93	50.1854
1885.44	57.1361
1886.96	58.3734
1888.48	58.8502
1890	61.4041
1891.51	58.5531
1893.03	69.9919
1894.55	52.2309
1896.06	63.7456
1897.58	61.1671
1899.1	60.1493
1900.62	54.5924
1902.13	51.2517
1903.65	62.7838
1905.17	56.0094
1906.69	60.5452
1908.2	53.8986
1909.72	59.471
1911.24	59
1912.75	59.6667
1914.27	48.0001
1915.79	56.4522
1917.31	57.0586
1918.82	60.1143
1920.34	57.4178
1921.86	59.1388
1923.38	59.0145
1924.89	61.7973
1926.41	52.9703
1927.93	60
1929.45	64.1208
1930.96	49.5853
1932.48	56.3838
1934	57.3536
1935.51	60.401
1937.03	57.5772
1938.55	58.4056
1940.07	53.8865
1941.58	59.404
1943.1	56.7112
1944.62	60.1551
1946.14	56.5491
1947.65	58.7271
1949.17	58.6766
1950.69	58.5716
1952.2	65.5859
1953.72	56.4432
1955.24	57.7307
1956.76	58.3011
1958.27	60.4191
1959.79	58.3118
1961.31	58.135
1962.83	64.3514
1964.34	56.7024
1965.86	49.2691
1967.38	61.3943
1968.9	61.6964
1970.41	58.6298
1971.93	64.9069
1973.45	58.2347
1974.96	61.1982
1976.48	60.8936
1978	63.2939
1979.52	51.7001
1981.03	57.5321
1982.55	64.0596
1984.07	63.3738
1985.59	61.1532
1987.1	54.6879
1988.62	62.8281
1990.14	60.2261
1991.65	58.634
1993.17	58.0414
1994.69	59.4722
1996.21	55.6655
1997.72	55.1238
1999.24	57.0668
2000	59.7591