File: Example Data/Raman/CNT - TIM/Raytheon/Al foil/2010/06-23-10/Batch 12 a - bottom_1.txt
400	88.6886
401.517	76.6651
403.035	89.3513
404.552	86
406.069	89.3893
407.587	83.3977
409.104	85.8595
410.621	89.9046
412.138	87.3774
413.656	98.542
415.173	87.2701
416.69	93.0106
418.208	86.7378
419.725	95.5209
421.242	84.3318
422.76	81.8845
424.277	86.9118
425.794	88.6233
427.312	87.7533
428.829	92.2373
430.346	83.7429
431.863	86.6219
433.381	90.9404
434.898	84.7198
436.415	86.4607
437.933	84.8326
439.45	81.8518
440.967	82.2958
442.485	82.97
444.002	77.5955
445.519	87.7272
447.036	83.7389
448.554	84.798
450.071	80.4444
451.588	89.3358
453.106	86.4391
454.623	88.767
456.14	77.2332
457.658	84.8173
459.175	81.191
460.692	82.777
462.21	88.4372
463.727	79.3397
465.244	81.5933
466.762	77.615
468.279	79.8712
469.796	77.2588
471.313	71.8689
472.831	88.7533
474.348	74.6635
475.865	80.4702
477.383	83.4784
478.9	69.7509
480.417	81.221
481.935	78.7944
483.452	78.6274
484.969	88.3649
486.486	80.5117
488.004	73.2634
489.521	80.2546
491.038	84.5655
492.556	76.668
494.073	73.797
495.59	75.9869
497.108	69.2328
498.625	76.0461
500.142	78.1136
501.66	80.8915
503.177	74.782
504.694	76.7213
506.211	75.9958
507.729	71.4587
509.246	72.9871
510.763	72.7346
512.281	69.289
513.798	71.3435
515.315	69.3561
516.833	72.3293
518.35	65.5984
519.867	67.7877
521.385	64.0406
522.902	70.895
524.419	71.8213
525.936	68.4169
527.454	69.972
528.971	70.5538
530.488	69.6667
532.006	65.37
533.523	66.3782
535.04	76.2397
536.558	71.8258
538.075	70.1366
539.592	77.158
541.11	70.6667
542.627	76.1808
544.144	68.5055
545.661	78.2001
547.179	77.875
548.696	70.9215
550.213	67.0357
551.731	74.0613
553.248	73.9112
554.765	72.6582
556.283	81.1509
557.8	66.0478
559.317	75.0551
560.835	69.219
562.352	71.4406
563.869	72.5393
565.386	81.8211
566.904	80.7652
568.421	83.1064
569.938	79.2229
571.456	72.1209
572.973	73.1158
574.49	73.3576
576.008	80.6721
577.525	72.0348
579.042	70.5784
580.56	67.5058
582.077	83.7656
583.594	80.642
585.111	72.3653
586.629	74.735
588.146	80.0277
589.663	80.4461
591.181	79.1214
592.698	72.0004
594.215	69.4945
595.733	81.6282
597.25	77.3364
598.767	75.7654
600.284	71.1657
601.802	79.042
603.319	75.7247
604.836	88.4299
606.354	81.5059
607.871	74.7681
609.388	81.8736
610.906	81.7947
612.423	82.8138
613.94	84.3824
615.458	76.447
616.975	83.4408
618.492	77.358
620.009	82.2047
621.527	82.2638
623.044	80.0941
624.561	91.0139
626.079	83.9164
627.596	81.0066
629.113	79.3626
630.631	95.173
632.148	83.502
633.665	83.6051
635.183	83.0844
636.7	84.9607
638.217	85.1121
639.734	85.7066
641.252	79.9724
642.769	81.8289
644.286	86.5763
645.804	88.5545
647.321	82.4896
648.838	84.9813
650.356	94.8793
651.873	86.4762
653.39	93.0984
654.908	85.6582
656.425	89.394
657.942	77.8971
659.459	93.2305
660.977	89.6688
662.494	89.5675
664.011	85.4012
665.529	79.0159
667.046	94.3798
668.563	91.5362
670.081	94.4308
671.598	86.6618
673.115	82.3143
674.633	94.982
676.15	91.3917
677.667	89.3265
679.184	87.6594
680.702	89.1292
682.219	92.4184
683.736	87.4868
685.254	96.863
686.771	86.7695
688.288	96.6558
689.806	88.9351
691.323	85.0613
692.84	95.6459
694.358	80.8512
695.875	92.7785
697.392	99.2473
698.909	93.2389
700.427	82.9918
701.944	83.3625
703.461	94.5757
704.979	87.8987
706.496	92.9122
708.013	94.8253
709.531	91.4281
711.048	104.833
712.565	93.3588
714.083	92.4689
715.6	92.8019
717.117	89.4901
718.634	90.6701
720.152	84.091
721.669	95.1995
723.186	100.476
724.704	98.7495
726.221	96
727.738	92.9987
729.256	90.5902
730.773	101.937
732.29	105.206
733.807	95.2145
735.325	104.597
736.842	103.466
738.359	96.7803
739.877	103.611
741.394	107.667
742.911	97.4018
744.429	108.112
745.946	104.661
747.463	96.9948
748.981	107.763
750.498	105.418
752.015	115.775
753.532	103.345
755.05	111.094
756.567	109.745
758.084	109.61
759.602	111.225
761.119	109.666
762.636	112.348
764.154	98.3828
765.671	105.892
767.188	115.98
768.706	114.915
770.223	116.131
771.74	105.202
773.257	104.937
774.775	112.817
776.292	120.878
777.809	118.518
779.327	116.989
780.844	104.393
782.361	116.069
783.879	112.464
785.396	115.485
786.913	115.802
788.431	120.823
789.948	115.942
791.465	125.548
792.982	121.009
794.5	112.355
796.017	114.073
797.534	123.821
799.052	118.454
800.569	118.596
802.086	112.539
803.604	123.262
805.121	120.737
806.638	124.985
808.156	127.117
809.673	132.045
811.19	130.673
812.707	127.194
814.225	125.711
815.742	138.259
817.259	127.207
818.777	115.992
820.294	134.297
821.811	137.932
823.329	126.702
824.846	132.018
826.363	131.33
827.88	120.667
829.398	127.289
830.915	131.642
832.432	135.888
833.95	124.169
835.467	128.6
836.984	129.966
838.502	144.038
840.019	135.268
841.536	136.206
843.054	138.029
844.571	128.138
846.088	139.681
847.606	130.924
849.123	130.451
850.64	136.788
852.157	142.427
853.675	132.924
855.192	130.082
856.709	126.429
858.227	130.275
859.744	129.352
861.261	130.709
862.779	124.831
864.296	127.987
865.813	128.719
867.331	121.48
868.848	125.198
870.365	124.042
871.882	118.854
873.4	121.019
874.917	120.086
876.434	123.747
877.952	121.036
879.469	105.823
880.986	116.683
882.504	111.583
884.021	110.574
885.538	118.635
887.055	114.616
888.573	111.739
890.09	107.462
891.607	115.136
893.125	109.552
894.642	110.02
896.159	99.6148
897.677	107.562
899.194	110.922
900.711	106.08
902.229	97.0597
903.746	98.9233
905.263	110.88
906.78	96.7603
908.298	104.991
909.815	96.5046
911.332	90.4246
912.85	101.171
914.367	88.5673
915.884	97.7633
917.402	98.6575
918.919	101.84
920.436	101.437
921.954	97.8686
923.471	106.252
924.988	90.4248
926.505	94.8202
928.023	88.7553
929.54	96.0483
931.057	94.1405
932.575	90.7004
934.092	93.4915
935.609	91.9994
937.127	88.7912
938.644	91.6507
940.161	89.8151
941.679	89.5511
943.196	96.3364
944.713	92.6813
946.23	94.9287
947.748	93.1481
949.265	95.8373
950.782	98.9674
952.3	95.1607
953.817	89.1905
955.334	88.3045
956.852	93.2856
958.369	92.5091
959.886	102.715
961.404	103.048
962.921	97.9815
964.438	100.979
965.955	90.7377
967.473	91.4805
968.99	90.2091
970.507	98.5217
972.025	89.3923
973.542	91.4915
975.059	95.4429
976.577	99.0562
978.094	99.3269
979.611	90.5416
981.128	95.0388
982.646	97.5277
984.163	89.1861
985.68	96.8533
987.198	95.0174
988.715	101.468
990.232	98.6858
991.75	103.596
993.267	94.5667
994.784	99.1048
996.302	101.38
997.819	97.7899
999.336	101.886
1000.85	107.791
1002.37	108.399
1003.89	107.868
1005.41	102.225
1006.92	104.263
1008.44	101.947
1009.96	112.129
1011.47	98.6667
1012.99	118.562
1014.51	108.52
1016.03	110.437
1017.54	113.27
1019.06	105.186
1020.58	111.427
1022.1	111.111
1023.61	122.589
1025.13	111.798
1026.65	114.968
1028.17	109.273
1029.68	118.639
1031.2	118.136
1032.72	121.76
1034.23	114.233
1035.75	110.918
1037.27	128.418
1038.79	116.719
1040.3	137.626
1041.82	132.3
1043.34	129.69
1044.86	127.648
1046.37	126.474
1047.89	121.282
1049.41	120.146
1050.92	123.716
1052.44	124.543
1053.96	137.797
1055.48	136.678
1056.99	128.157
1058.51	138.365
1060.03	134.107
1061.55	129.494
1063.06	133.684
1064.58	132.359
1066.1	130.687
1067.61	144.628
1069.13	125.211
1070.65	126.416
1072.17	156.654
1073.68	142.049
1075.2	128.68
1076.72	138.338
1078.24	145.001
1079.75	141.495
1081.27	138.26
1082.79	135.371
1084.31	137.716
1085.82	137.313
1087.34	146.301
1088.86	142.569
1090.37	144.153
1091.89	144.229
1093.41	152.697
1094.93	143.976
1096.44	152.662
1097.96	151.233
1099.48	155.418
1101	145.76
1102.51	161.333
1104.03	152.767
1105.55	153.19
1107.06	156.609
1108.58	160.678
1110.1	153.701
1111.62	156.057
1113.13	153.246
1114.65	162.283
1116.17	157.514
1117.69	163.562
1119.2	162.684
1120.72	164.144
1122.24	163.537
1123.76	163.133
1125.27	170.263
1126.79	161.632
1128.31	170.32
1129.82	176.071
1131.34	172.226
1132.86	171.617
1134.38	171.818
1135.89	189.793
1137.41	164.341
1138.93	175.604
1140.45	192.093
1141.96	194.439
1143.48	186.994
1145	190.224
1146.51	201.033
1148.03	191.805
1149.55	192.507
1151.07	200.576
1152.58	191.261
1154.1	193.37
1155.62	195.226
1157.14	194.607
1158.65	195.39
1160.17	220.381
1161.69	201.615
1163.21	208.936
1164.72	212.517
1166.24	208.521
1167.76	210.485
1169.27	212.639
1170.79	212.97
1172.31	210.522
1173.83	210.033
1175.34	217.751
1176.86	209.738
1178.38	209.826
1179.9	218.715
1181.41	219.868
1182.93	216.918
1184.45	216.545
1185.96	204.112
1187.48	216.362
1189	218.053
1190.52	220.157
1192.03	213.98
1193.55	218.421
1195.07	216.894
1196.59	230.417
1198.1	221.533
1199.62	223.779
1201.14	221.949
1202.66	221.83
1204.17	223.268
1205.69	222.22
1207.21	231.123
1208.72	231.472
1210.24	225.875
1211.76	234.185
1213.28	231.839
1214.79	234.259
1216.31	237.27
1217.83	225.365
1219.35	237.109
1220.86	252.438
1222.38	244.314
1223.9	238.676
1225.41	246.338
1226.93	245.499
1228.45	253.102
1229.97	256.18
1231.48	255.756
1233	247.807
1234.52	248.005
1236.04	272.344
1237.55	277.053
1239.07	269.412
1240.59	260.074
1242.11	275.258
1243.62	276.537
1245.14	278.985
1246.66	275.909
1248.17	296.338
1249.69	284.596
1251.21	275.38
1252.73	294.497
1254.24	291.084
1255.76	305.631
1257.28	312.612
1258.8	301.164
1260.31	305.394
1261.83	318.605
1263.35	328.568
1264.86	319.741
1266.38	319.315
1267.9	332.395
1269.42	335.525
1270.93	348.679
1272.45	344.661
1273.97	359.851
1275.49	348.502
1277	364.191
1278.52	364.347
1280.04	390.2
1281.56	386.771
1283.07	397.103
1284.59	398.941
1286.11	412.802
1287.62	413.869
1289.14	416.427
1290.66	426.189
1292.18	439.466
1293.69	413.416
1295.21	453.616
1296.73	456.685
1298.25	449.898
1299.76	470.859
1301.28	479.612
1302.8	493.812
1304.31	500.428
1305.83	508.352
1307.35	501.7
1308.87	567.931
1310.38	529.385
1311.9	561.919
1313.42	579.523
1314.94	576.028
1316.45	578.07
1317.97	599.034
1319.49	630.02
1321.01	652.313
1322.52	677.938
1324.04	683.015
1325.56	662.799
1327.07	701.391
1328.59	697.801
1330.11	710.504
1331.63	759.621
1333.14	765.156
1334.66	764.413
1336.18	768.886
1337.7	781.799
1339.21	794.058
1340.73	797.767
1342.25	806.3
1343.76	802.429
1345.28	837.707
1346.8	833.174
1348.32	840.808
1349.83	837.753
1351.35	821.516
1352.87	817.306
1354.39	823.851
1355.9	801.756
1357.42	797.698
1358.94	773.972
1360.46	805.457
1361.97	785.443
1363.49	760.105
1365.01	760.745
1366.52	730.072
1368.04	738.207
1369.56	718.144
1371.08	717.355
1372.59	688.202
1374.11	672.75
1375.63	667.857
1377.15	650.583
1378.66	633.799
1380.18	621.247
1381.7	622.083
1383.21	597.48
1384.73	572.835
1386.25	588.557
1387.77	578.508
1389.28	545.649
1390.8	543.011
1392.32	537.217
1393.84	513.27
1395.35	512.62
1396.87	511.417
1398.39	491.349
1399.91	489.457
1401.42	468.662
1402.94	450.582
1404.46	457.696
1405.97	471.522
1407.49	466.94
1409.01	440.9
1410.53	433.066
1412.04	445.86
1413.56	424.508
1415.08	434.369
1416.6	416.805
1418.11	419.311
1419.63	413.723
1421.15	407.523
1422.66	390.931
1424.18	402.802
1425.7	389.531
1427.22	393.499
1428.73	386.1
1430.25	386.917
1431.77	383.572
1433.29	376.246
1434.8	384.015
1436.32	370.67
1437.84	369.06
1439.36	370.681
1440.87	368.245
1442.39	378.778
1443.91	360.016
1445.42	381.966
1446.94	361.775
1448.46	374
1449.98	358.5
1451.49	351.923
1453.01	360.076
1454.53	356.658
1456.05	349.91
1457.56	349.701
1459.08	347.359
1460.6	334.476
1462.11	359.397
1463.63	354.872
1465.15	351.504
1466.67	353.304
1468.18	356.905
1469.7	351.385
1471.22	348.498
1472.74	335.863
1474.25	343.349
1475.77	345.189
1477.29	352.098
1478.81	335.793
1480.32	352.249
1481.84	356.188
1483.36	357.237
1484.87	354.47
1486.39	341.831
1487.91	347.667
1489.43	338.255
1490.94	343.788
1492.46	350.889
1493.98	353.56
1495.5	340.087
1497.01	341.507
1498.53	331.561
1500.05	365.901
1501.56	356.383
1503.08	346.681
1504.6	349.351
1506.12	351.636
1507.63	344.084
1509.15	348.743
1510.67	348.644
1512.19	352.119
1513.7	350.173
1515.22	352.29
1516.74	349.305
1518.26	351.663
1519.77	362.232
1521.29	374.915
1522.81	369.195
1524.32	376.515
1525.84	371.993
1527.36	388.195
1528.88	382.027
1530.39	376.046
1531.91	384.57
1533.43	384.428
1534.95	391.518
1536.46	392.456
1537.98	390.9
1539.5	409.634
1541.01	418.176
1542.53	405.99
1544.05	420.514
1545.57	424.937
1547.08	423.815
1548.6	442.559
1550.12	464.914
1551.64	469.263
1553.15	467.88
1554.67	488.251
1556.19	495.487
1557.71	528.572
1559.22	524.45
1560.74	539.8
1562.26	539.365
1563.77	548.157
1565.29	573.713
1566.81	585.65
1568.33	592.01
1569.84	609.619
1571.36	588.888
1572.88	638.373
1574.4	660.113
1575.91	671.786
1577.43	692.272
1578.95	690.795
1580.46	706.314
1581.98	715.39
1583.5	735.033
1585.02	729.511
1586.53	742.261
1588.05	742.559
1589.57	751.425
1591.09	760.572
1592.6	786.493
1594.12	780.531
1595.64	799.233
1597.16	794.643
1598.67	802.832
1600.19	780.071
1601.71	800.349
1603.22	769.599
1604.74	780.426
1606.26	762.552
1607.78	766.808
1609.29	758.553
1610.81	742.276
1612.33	728.672
1613.85	728.887
1615.36	704.204
1616.88	687.656
1618.4	668.308
1619.91	670.538
1621.43	629.011
1622.95	627.716
1624.47	594.596
1625.98	574.581
1627.5	558.306
1629.02	531.998
1630.54	509.539
1632.05	506.229
1633.57	472.688
1635.09	452.142
1636.6	441.254
1638.12	426.918
1639.64	404.678
1641.16	387.986
1642.67	367.515
1644.19	350.148
1645.71	333.68
1647.23	319.312
1648.74	314.509
1650.26	288.56
1651.78	284.877
1653.3	262.337
1654.81	247.246
1656.33	236.265
1657.85	216.394
1659.36	236.163
1660.88	206.526
1662.4	195.07
1663.92	203.684
1665.43	186.795
1666.95	170.885
1668.47	161.685
1669.99	161.11
1671.5	154.369
1673.02	151.643
1674.54	147.499
1676.06	136.06
1677.57	132.332
1679.09	123.295
1680.61	124.671
1682.12	119.381
1683.64	117.45
1685.16	113.735
1686.68	112.011
1688.19	101.546
1689.71	95.3981
1691.23	92.6523
1692.75	94.7105
1694.26	86.2728
1695.78	96.1796
1697.3	86.957
1698.81	87.6605
1700.33	75.5598
1701.85	81.4968
1703.37	77.3114
1704.88	78.8042
1706.4	78.7978
1707.92	76.4763
1709.44	75.4451
1710.95	71.019
1712.47	68.7302
1713.99	72.5954
1715.51	69.3413
1717.02	68.0038
1718.54	63.8833
1720.06	62.0012
1721.57	67.3218
1723.09	66.6326
1724.61	67.2551
1726.13	62.6772
1727.64	62.7206
1729.16	66.3949
1730.68	61.3433
1732.2	60.1364
1733.71	59.0651
1735.23	57.7883
1736.75	57.3139
1738.26	59.7473
1739.78	60.1123
1741.3	59.9306
1742.82	63.2884
1744.33	58.0906
1745.85	54.9293
1747.37	54.2975
1748.89	58.0746
1750.4	55.5622
1751.92	49.0473
1753.44	52.0287
1754.95	55.7586
1756.47	55.4351
1757.99	58.3197
1759.51	56.6684
1761.02	51.7471
1762.54	53.239
1764.06	48.5521
1765.58	48.7431
1767.09	54.5481
1768.61	53.7034
1770.13	50.1444
1771.65	52.8271
1773.16	52.5888
1774.68	49.7951
1776.2	49.0523
1777.71	50.5834
1779.23	49.1605
1780.75	51.433
1782.27	48.7605
1783.78	49.7015
1785.3	48.037
1786.82	49.786
1788.34	51.3046
1789.85	51.3847
1791.37	49.3688
1792.89	57.4429
1794.4	47.8456
1795.92	46.4696
1797.44	48.1688
1798.96	46.7852
1800.47	53.1755
1801.99	45.603
1803.51	48.8137
1805.03	47.1205
1806.54	43.5864
1808.06	48.2816
1809.58	47.237
1811.1	50.2042
1812.61	52.0262
1814.13	44.8741
1815.65	53.3049
1817.16	54.6731
1818.68	51.8348
1820.2	53.5846
1821.72	49.0063
1823.23	47.7481
1824.75	50.7532
1826.27	47.7143
1827.79	47.7418
1829.3	49.2018
1830.82	54.4437
1832.34	54.8645
1833.85	50.7499
1835.37	43.893
1836.89	48.4061
1838.41	47.198
1839.92	53.2389
1841.44	51.0942
1842.96	51.7698
1844.48	46.5398
1845.99	52.177
1847.51	49.7852
1849.03	48.6608
1850.55	45.6961
1852.06	48.7307
1853.58	48.4208
1855.1	49.4911
1856.61	44.2918
1858.13	50.8291
1859.65	50.0329
1861.17	45.4189
1862.68	48.9679
1864.2	51.5484
1865.72	50.7907
1867.24	48.1736
1868.75	43.1896
1870.27	45.1321
1871.79	50.0931
1873.3	48.3624
1874.82	50.2298
1876.34	44.7749
1877.86	48.9819
1879.37	46.1078
1880.89	47.1084
1882.41	45.2562
1883.93	46.1436
1885.44	49.883
1886.96	46.2051
1888.48	52.1263
1890	45.6852
1891.51	40.4712
1893.03	41.6204
1894.55	52.2433
1896.06	43.4299
1897.58	46.5001
1899.1	46.2114
1900.62	49.0352
1902.13	48.1652
1903.65	45.1322
1905.17	48.6271
1906.69	45.2057
1908.2	47.4347
1909.72	55.5071
1911.24	50.1999
1912.75	44.754
1914.27	44.2222
1915.79	48.5373
1917.31	42.4486
1918.82	49.1
1920.34	44.3831
1921.86	50.1804
1923.38	47.7753
1924.89	51.4343
1926.41	50.2785
1927.93	52.303
1929.45	51.8132
1930.96	41.4815
1932.48	49.0252
1934	42.3807
1935.51	46.2126
1937.03	48.9302
1938.55	45.3323
1940.07	43.3946
1941.58	43.7121
1943.1	46.9871
1944.62	43.5682
1946.14	44.5501
1947.65	47.1785
1949.17	47.9281
1950.69	47.636
1952.2	42.5353
1953.72	43.5745
1955.24	50.3333
1956.76	47.5494
1958.27	48.1694
1959.79	46.839
1961.31	44.9281
1962.83	41.3657
1964.34	48.2063
1965.86	42.1651
1967.38	51.1714
1968.9	48.1538
1970.41	46.3549
1971.93	43.9159
1973.45	45.9804
1974.96	46.8135
1976.48	39.3984
1978	47.9232
1979.52	40.009
1981.03	45.2708
1982.55	47.1003
1984.07	44.2449
1985.59	39.009
1987.1	46.7317
1988.62	54.6383
1990.14	48.8119
1991.65	41.8038
1993.17	44.43
1994.69	48.6574
1996.21	48.2852
1997.72	45.7737
1999.24	40.4031
2000	53.5809