File: Example Data/Raman/Kara/05-21-10/KLE 46 powder_1.txt
50	-1.3977
52.1517	0.725828
54.3034	-0.751959
56.4551	-2.79561
58.6069	-3.04365
60.7586	-1.54198
62.9103	1.6
65.062	1.48282
67.2137	6.40042
69.3654	26.5391
71.5171	51.6133
73.6689	103.889
75.8206	119.736
77.9723	149.543
80.124	109.174
82.2757	95.5726
84.4274	117.418
86.5791	133.922
88.7309	102.2
90.8826	103.507
93.0343	132.979
95.186	116.191
97.3377	123.525
99.4894	100.939
101.641	115.658
103.793	105.317
105.945	97.3852
108.096	119.131
110.248	140.45
112.4	105.965
114.551	97.025
116.703	101.574
118.855	118.983
121.007	101.227
123.158	91.8719
125.31	115.899
127.462	96.9583
129.613	94.1719
131.765	92.5951
133.917	95.329
136.069	87.4828
138.22	79.8878
140.372	91.0898
142.524	107.421
144.675	79.7861
146.827	80.2435
148.979	89.2642
151.131	83.3404
153.282	80.7171
155.434	83.0482
157.586	92.5277
159.737	86.2286
161.889	81.2454
164.041	88.4539
166.193	85.2045
168.344	85.2562
170.496	77.2528
172.648	85.4062
174.799	81.3446
176.951	79.9068
179.103	82.3502
181.255	77.6055
183.406	83.8052
185.558	77.9983
187.71	81.9021
189.861	81.8457
192.013	84.3458
194.165	82.0718
196.317	80.3129
198.468	85.9005
200.62	78.1772
202.772	79.8245
204.923	77.8422
207.075	77.5276
209.227	76.3338
211.379	81.0547
213.53	78.1602
215.682	81.5948
217.834	85.2224
219.985	82.9993
222.137	86.9986
224.289	81.6484
226.441	82.4934
228.592	81.2274
230.744	81.3247
232.896	84.2457
235.047	84.1661
237.199	81.1309
239.351	82.1053
241.503	79.4029
243.654	80.6038
245.806	82.1666
247.958	77.4885
250.109	72.9121
252.261	86.9999
254.413	87.1567
256.565	81.0317
258.716	79.7757
260.868	80.1381
263.02	83.4247
265.171	92.6251
267.323	81.6627
269.475	73.3412
271.627	75.8067
273.778	81.7782
275.93	81.3602
278.082	82.7372
280.233	77.4461
282.385	74.8556
284.537	81.438
286.689	79.7113
288.84	74.1792
290.992	77.668
293.144	84.3566
295.295	74.7571
297.447	71.4487
299.599	75.4
301.751	73.9772
303.902	74.6425
306.054	75.5085
308.206	72.0568
310.357	76.0272
312.509	77.0822
314.661	72.221
316.813	69.403
318.964	69.8522
321.116	65.6456
323.268	71.6056
325.419	67.1669
327.571	67.4507
329.723	70.2741
331.875	69.7978
334.026	66.4846
336.178	66.8049
338.33	70.9167
340.481	67.5147
342.633	74.4001
344.785	69.2332
346.937	66.8946
349.088	65.2804
351.24	70.9834
353.392	64.1289
355.543	66.1164
357.695	62.3157
359.847	61.6291
361.999	60.7437
364.15	61.4759
366.302	63.8546
368.454	59.9789
370.605	63.677
372.757	66.5252
374.909	65.1759
377.061	65.4405
379.212	63.1628
381.364	59.582
383.516	59.3056
385.667	60.9212
387.819	56.0988
389.971	57.1956
392.123	56.8712
394.274	53.5333
396.426	51.5561
398.578	60.2723
400.729	54.6378
402.881	55.5243
405.033	53.8
407.185	54.1124
409.336	51.6525
411.488	60.9124
413.64	57.372
415.791	56.2654
417.943	52.7568
420.095	50.2633
422.247	54.4489
424.398	51.6028
426.55	54.7087
428.702	53.1954
430.853	49.9404
433.005	52.6929
435.157	52.5961
437.309	50.8694
439.46	45.3921
441.612	51.9779
443.764	49.6137
445.915	50.2501
448.067	50.6
450.219	44.4278
452.371	45.4517
454.522	45.6864
456.674	49.3511
458.826	48.9444
460.977	46.5485
463.129	50.9864
465.281	49.2598
467.433	47.3737
469.584	47.4334
471.736	52.0344
473.888	51.2
476.039	49.9639
478.191	50.4459
480.343	46.9841
482.495	45.9009
484.646	57.1634
486.798	45.1266
488.95	48.5319
491.101	46.4651
493.253	49.1023
495.405	44.0041
497.557	45.9276
499.708	44.182
501.86	46.7923
504.012	45.5568
506.163	46.0465
508.315	45.2764
510.467	44.1973
512.619	45.6353
514.77	43.3265
516.922	44.122
519.074	46.622
521.225	45.1604
523.377	42.619
525.529	46.6568
527.681	47.691
529.832	43.4476
531.984	42.772
534.136	43.0145
536.287	43.4707
538.439	43.8133
540.591	46.5647
542.743	48.82
544.894	39.3166
547.046	46.6854
549.198	44.3561
551.349	41.8144
553.501	44.9096
555.653	41.4058
557.805	40.5982
559.956	42.476
562.108	40.8877
564.26	42.1415
566.411	44.2231
568.563	46.6801
570.715	42.6634
572.867	43.7444
575.018	45.3534
577.17	45.252
579.322	48.3425
581.473	46.3653
583.625	43.9079
585.777	46.8423
587.929	46.2434
590.08	44.6548
592.232	41.7469
594.384	46.9448
596.535	51.8966
598.687	45.2384
600.839	43.7798
602.991	47.2831
605.142	45.847
607.294	46.8468
609.446	46.9762
611.597	43.9578
613.749	45.1952
615.901	44.8901
618.052	45.9247
620.204	46.3067
622.356	42.7221
624.508	50.9209
626.659	49.424
628.811	47.1091
630.963	48.6575
633.115	45.1446
635.266	46.6921
637.418	46.3918
639.57	49.8536
641.721	48.9612
643.873	46.3403
646.025	60.2716
648.177	49.4563
650.328	48.3447
652.48	52.1278
654.632	52.3205
656.783	53.2709
658.935	52.2916
661.087	53.669
663.239	61.4966
665.39	52.4699
667.542	53.6965
669.694	60.2558
671.845	55.5519
673.997	52.3731
676.149	54.3745
678.301	52.072
680.452	57.148
682.604	52.9068
684.756	57.9713
686.907	57.4915
689.059	61.6276
691.211	56.3978
693.362	57.5946
695.514	53.9996
697.666	54.4164
699.818	61.1629
701.969	59.7415
704.121	58.8403
706.273	59.3217
708.424	63.6122
710.576	62.6427
712.728	58.2081
714.88	58.9436
717.031	58.3127
719.183	63.4099
721.335	59.2501
723.487	62.9321
725.638	68.9649
727.79	59.3846
729.942	69.977
732.093	62.3861
734.245	66.0673
736.397	64.341
738.549	68.1171
740.7	69.5571
742.852	71.5982
745.004	67.6999
747.155	66.8615
749.307	70.1201
751.459	71.6589
753.61	74
755.762	69.6876
757.914	76.2472
760.066	73.4469
762.217	73.984
764.369	73.105
766.521	76.3379
768.672	78.3882
770.824	85.7926
772.976	78.1887
775.128	78.8
777.279	81.4317
779.431	78.9507
781.583	73.7472
783.734	79.178
785.886	75.7174
788.038	78.0322
790.19	78.1547
792.341	81.7806
794.493	80.7723
796.645	80.1235
798.797	84.3675
800.948	88.8537
803.1	82.901
805.252	83.7963
807.403	85.0414
809.555	88.1176
811.707	84.6774
813.859	85.9052
816.01	88.7369
818.162	90.9511
820.314	88.0457
822.465	91.3954
824.617	87.0109
826.769	91.2345
828.92	87.3357
831.072	97.5288
833.224	94.9833
835.376	93.8357
837.527	90.5541
839.679	93.3305
841.831	92.6666
843.982	95.6278
846.134	90.4527
848.286	93.1295
850.438	93.562
852.589	92.7583
854.741	87.094
856.893	97.574
859.044	93.3728
861.196	91.928
863.348	87.1426
865.5	93.1529
867.651	85.964
869.803	84.1974
871.955	88.0207
874.107	82.2324
876.258	77.3993
878.41	75.0498
880.562	77.5191
882.713	72.8194
884.865	66.735
887.017	68.5027
889.169	63.5241
891.32	66.8796
893.472	67.0857
895.624	66.6627
897.775	62.7369
899.927	57.2825
902.079	61.5708
904.23	54.6069
906.382	57.9189
908.534	55.4179
910.686	53.6
912.837	55.7126
914.989	45.4056
917.141	51.0596
919.292	48.7947
921.444	42.6135
923.596	50.8287
925.748	44.0515
927.899	48.2631
930.051	43.6706
932.203	48.4804
934.354	43.4023
936.506	46.7281
938.658	43.6662
940.81	45.1918
942.961	41.8404
945.113	39.5389
947.265	41.8247
949.417	39.0477
951.568	35.6868
953.72	39.1162
955.872	39.5506
958.023	39.5529
960.175	40.1196
962.327	37.4683
964.478	36.5808
966.63	34.8371
968.782	41.1432
970.934	39.3725
973.085	38.0821
975.237	39.9385
977.389	37.1889
979.54	39.288
981.692	40.586
983.844	36.8268
985.996	38.2832
988.147	40.4682
990.299	32.175
992.451	35.8589
994.602	43.9958
996.754	41.7623
998.906	40.7163
1001.06	39.1412
1003.21	38.6778
1005.36	39.3242
1007.51	37.6599
1009.66	37.9758
1011.82	37.5421
1013.97	37.2756
1016.12	36.8356
1018.27	36.5269
1020.42	36.8125
1022.57	36.8236
1024.73	42.0559
1026.88	38.3568
1029.03	42.4246
1031.18	42.4562
1033.33	44.607
1035.49	42.0519
1037.64	46.0392
1039.79	43.1688
1041.94	48.239
1044.09	47.7469
1046.24	46.2567
1048.4	45.1712
1050.55	41.4395
1052.7	42.0849
1054.85	39.9734
1057	38.1633
1059.15	40.3605
1061.31	39.6166
1063.46	41.2924
1065.61	34.3378
1067.76	37.8886
1069.91	39.8418
1072.06	36.9099
1074.22	39.0474
1076.37	32.912
1078.52	33.2215
1080.67	37.2058
1082.82	37.3113
1084.97	35.336
1087.13	34.2261
1089.28	36.1434
1091.43	33.724
1093.58	32.3666
1095.73	33.4892
1097.88	29.2896
1100.04	35.6629
1102.19	25.935
1104.34	29.9589
1106.49	30.5694
1108.64	28.4813
1110.8	34.5573
1112.95	33.322
1115.1	27.5672
1117.25	27.9207
1119.4	26.4014
1121.55	30.9087
1123.71	30.0348
1125.86	28.8464
1128.01	29.9922
1130.16	27.0554
1132.31	25.5833
1134.46	24.9799
1136.62	27.9519
1138.77	27.4056
1140.92	30.0541
1143.07	24.2561
1145.22	26.6699
1147.37	24.4192
1149.53	26.7852
1151.68	26.3328
1153.83	24.6169
1155.98	26.8476
1158.13	21.129
1160.28	27.092
1162.44	24.0096
1164.59	23.2589
1166.74	26.1597
1168.89	25.7879
1171.04	20.2453
1173.19	22.8587
1175.35	25.6391
1177.5	24.403
1179.65	23.6628
1181.8	23.3833
1183.95	23.5383
1186.1	24.2532
1188.26	22.4683
1190.41	23.0931
1192.56	28.4113
1194.71	28.0206
1196.86	24.9053
1199.02	26.9893
1201.17	21.8195
1203.32	24.2992
1205.47	24.9763
1207.62	25.2151
1209.77	22.3951
1211.93	22.8126
1214.08	22.0774
1216.23	28.963
1218.38	28.4935
1220.53	25.3898
1222.68	24.4598
1224.84	26.9699
1226.99	27.6359
1229.14	27.717
1231.29	26.3751
1233.44	29.2109
1235.59	30.1031
1237.75	25.7349
1239.9	28.5384
1242.05	27.8564
1244.2	28.3717
1246.35	28.5474
1248.5	28.4065
1250.66	32.2198
1252.81	29.9723
1254.96	26.7923
1257.11	33.0528
1259.26	30.6363
1261.42	30.3922
1263.57	24.1213
1265.72	31.4382
1267.87	31.312
1270.02	30.3829
1272.17	34.0909
1274.33	35.4638
1276.48	35.93
1278.63	34.5065
1280.78	34.0228
1282.93	35.5428
1285.08	31.9305
1287.24	36.769
1289.39	41.0646
1291.54	41.8748
1293.69	39.7251
1295.84	40.6636
1297.99	40.9982
1300.15	45.3825
1302.3	45.0891
1304.45	50.4003
1306.6	53.3103
1308.75	57.1993
1310.9	52.8785
1313.06	58.7856
1315.21	63.0493
1317.36	60.2314
1319.51	72.4391
1321.66	84.769
1323.81	84.4607
1325.97	83.7578
1328.12	87.33
1330.27	97.8442
1332.42	104.741
1334.57	109.458
1336.72	116.487
1338.88	117.215
1341.03	121.543
1343.18	132.422
1345.33	133.465
1347.48	138.255
1349.64	138.814
1351.79	136.717
1353.94	134.916
1356.09	143.527
1358.24	115.602
1360.39	122.481
1362.55	119.21
1364.7	108.752
1366.85	103.788
1369	93.5934
1371.15	89.1387
1373.3	88.6701
1375.46	85.3602
1377.61	76.5961
1379.76	74.0508
1381.91	68.7566
1384.06	65.5005
1386.21	62.1585
1388.37	58.5176
1390.52	56.9741
1392.67	56.0509
1394.82	54.2399
1396.97	52.1786
1399.12	50.4586
1401.28	48.3083
1403.43	44.9734
1405.58	41.7932
1407.73	41.4614
1409.88	38.2048
1412.04	39.3247
1414.19	44.2908
1416.34	42.5625
1418.49	42.2926
1420.64	43.3184
1422.79	37.8743
1424.95	38.2323
1427.1	40.0857
1429.25	35.998
1431.4	38.4953
1433.55	30.3387
1435.7	37.5469
1437.86	34.918
1440.01	36.5094
1442.16	34.4
1444.31	36.0396
1446.46	32.6697
1448.61	37.8248
1450.77	30.9303
1452.92	34.5038
1455.07	31.9549
1457.22	37
1459.37	35.6557
1461.52	36.324
1463.68	36.9268
1465.83	34.8043
1467.98	36.3333
1470.13	38.4349
1472.28	39.3893
1474.43	37.8437
1476.59	40.6185
1478.74	38.1437
1480.89	38.1969
1483.04	35.9782
1485.19	34.7966
1487.34	32.403
1489.5	39.1803
1491.65	38.5579
1493.8	40.937
1495.95	42.2353
1498.1	35.2215
1500.26	39.7893
1502.41	42.1703
1504.56	40.1064
1506.71	44.3853
1508.86	47.5799
1511.01	42.586
1513.17	41.229
1515.32	47.4039
1517.47	45.2764
1519.62	48.3644
1521.77	46.6751
1523.92	52.2763
1526.08	51.5954
1528.23	51.3472
1530.38	57.4919
1532.53	54.43
1534.68	57.5916
1536.83	55.8029
1538.99	68.8373
1541.14	71.9075
1543.29	75.57
1545.44	77.1593
1547.59	88.1011
1549.74	94.4342
1551.9	102.247
1554.05	112.51
1556.2	122.513
1558.35	135.984
1560.5	140.397
1562.66	154.692
1564.81	170.069
1566.96	186.286
1569.11	197.686
1571.26	216.831
1573.41	227.685
1575.57	243.983
1577.72	253.868
1579.87	264.775
1582.02	261.332
1584.17	251.916
1586.32	246.469
1588.48	232.837
1590.63	222.518
1592.78	208.137
1594.93	198.372
1597.08	179.785
1599.23	168.397
1601.39	157.97
1603.54	139.819
1605.69	139.584
1607.84	137.304
1609.99	129.567
1612.14	120.29
1614.3	115.624
1616.45	117.805
1618.6	103.684
1620.75	109.464
1622.9	103.282
1625.05	101.798
1627.21	85.3138
1629.36	86.4028
1631.51	74.0621
1633.66	75.1426
1635.81	61.3325
1637.96	54.8148
1640.12	58.3252
1642.27	48.3816
1644.42	42.8
1646.57	32.815
1648.72	33.9245
1650.88	31.7448
1653.03	34.0741
1655.18	25.9301
1657.33	31.211
1659.48	30.1351
1661.63	22.7147
1663.79	26.1536
1665.94	21.1995
1668.09	21.4774
1670.24	21.4378
1672.39	20.764
1674.54	19.2766
1676.7	15.9665
1678.85	22.3481
1681	16.5011
1683.15	18.2172
1685.3	16.508
1687.45	18.7791
1689.61	15.6866
1691.76	16.6224
1693.91	17.9486
1696.06	16.2244
1698.21	15.8536
1700.36	15.1154
1702.52	15.54
1704.67	12.953
1706.82	16.6505
1708.97	18.6884
1711.12	16.5859
1713.28	15.225
1715.43	16.4704
1717.58	16.6939
1719.73	16.7991
1721.88	13.0223
1724.03	15.5135
1726.19	11.9954
1728.34	14.3436
1730.49	15.4019
1732.64	15.684
1734.79	14.6825
1736.94	16.1131
1739.1	14.3877
1741.25	10.7795
1743.4	15.6596
1745.55	17.0064
1747.7	14.6915
1749.85	14.1275
1752.01	13.7809
1754.16	13.8842
1756.31	14.2246
1758.46	11.2857
1760.61	14.9257
1762.76	13.9264
1764.92	14.4124
1767.07	12.8345
1769.22	12.4078
1771.37	13.4837
1773.52	13.6731
1775.67	13.2642
1777.83	14.5811
1779.98	15.201
1782.13	15.1603
1784.28	14.0085
1786.43	11.4333
1788.58	13.2486
1790.74	13.8752
1792.89	13.0987
1795.04	13.8352
1797.19	11.8408
1799.34	9.66829
1801.5	13.221
1803.65	8.27326
1805.8	13.1061
1807.95	10.7004
1810.1	14.0556
1812.25	14.081
1814.41	11.018
1816.56	13.6895
1818.71	11.8964
1820.86	13.6834
1823.01	14.6083
1825.16	13.4275
1827.32	15.4069
1829.47	13.5046
1831.62	11.4746
1833.77	16.3896
1835.92	13.3902
1838.07	11.1836
1840.23	11.6966
1842.38	11.9959
1844.53	12.2551
1846.68	13.4864
1848.83	10.6217
1850.98	13.2683
1853.14	15.7581
1855.29	15.1477
1857.44	14.8642
1859.59	15.9215
1861.74	17.0753
1863.9	12.4484
1866.05	15.1791
1868.2	14.6862
1870.35	13.2166
1872.5	15.1528
1874.65	15.3944
1876.81	18.0744
1878.96	15.0919
1881.11	14.4025
1883.26	13.9406
1885.41	17.0814
1887.56	15.1619
1889.72	14.0027
1891.87	12.1769
1894.02	11.864
1896.17	16.1613
1898.32	14.4201
1900.47	15.804
1902.63	15.2478
1904.78	11.3776
1906.93	13.4661
1909.08	14.231
1911.23	17.46
1913.38	15.7387
1915.54	14.9213
1917.69	14.1635
1919.84	15.1499
1921.99	14.5866
1924.14	14.4501
1926.29	14.7097
1928.45	14.3314
1930.6	13.939
1932.75	15.5594
1934.9	13.6184
1937.05	14.3544
1939.2	15.4738
1941.36	16.4438
1943.51	11.0721
1945.66	8.18101
1947.81	12.8299
1949.96	11.9862
1952.12	11.7373
1954.27	11.8186
1956.42	18.6992
1958.57	12.4432
1960.72	12.3334
1962.87	11.7713
1965.03	16.4082
1967.18	10.18
1969.33	12.0254
1971.48	13.0577
1973.63	14.6882
1975.78	18.5082
1977.94	14.8419
1980.09	13.0744
1982.24	15.5542
1984.39	12.3728
1986.54	14.0399
1988.69	14.4467
1990.85	18.662
1993	13.9898
1995.15	14.5829
1997.3	15.6717
1999.45	13.9622
2001.6	13.5496
2003.76	14.9562
2005.91	15.6309
2008.06	13.1906
2010.21	16.8643
2012.36	15.7202
2014.51	14.3471
2016.67	14.3477
2018.82	12.6003
2020.97	12.1811
2023.12	17.701
2025.27	15.3341
2027.43	17.014
2029.58	14.2341
2031.73	12.4113
2033.88	16.9831
2036.03	13.1086
2038.18	16
2040.34	15.948
2042.49	15.087
2044.64	13.3265
2046.79	11.9144
2048.94	12.2762
2051.09	15.5829
2053.25	14.5434
2055.4	18.5508
2057.55	15.8791
2059.7	19.3321
2061.85	15.1453
2064	13.325
2066.16	16.7462
2068.31	13.6761
2070.46	11.541
2072.61	15.2165
2074.76	15.3514
2076.91	17.1314
2079.07	15.4059
2081.22	17.4471
2083.37	11.1563
2085.52	17.1806
2087.67	15.3176
2089.82	13.9843
2091.98	13.0197
2094.13	15.0029
2096.28	14.9207
2098.43	12.6754
2100.58	15.4086
2102.74	15.4477
2104.89	12.6214
2107.04	19.7587
2109.19	14.3957
2111.34	13.3819
2113.49	18.1705
2115.65	16.7783
2117.8	15.2791
2119.95	15.039
2122.1	15.1668
2124.25	17.1067
2126.4	15.8215
2128.56	16.2025
2130.71	14.4345
2132.86	16.3131
2135.01	13.7221
2137.16	17.097
2139.31	16.1401
2141.47	13.8158
2143.62	13.8761
2145.77	14.9833
2147.92	12.7437
2150.07	17.334
2152.22	16.1379
2154.38	16.5898
2156.53	16.9316
2158.68	17.9068
2160.83	17.6202
2162.98	19.4353
2165.14	15.7413
2167.29	18.9449
2169.44	17.4218
2171.59	21.2279
2173.74	17.8803
2175.89	16.8275
2178.05	17.5559
2180.2	17.6813
2182.35	19.1405
2184.5	19.3341
2186.65	20.2368
2188.8	16.6957
2190.96	20.541
2193.11	20.6191
2195.26	17.6883
2197.41	20.3218
2199.56	18.6682
2201.71	15.5614
2203.87	19.2169
2206.02	16.6307
2208.17	19.7331
2210.32	17.2776
2212.47	18.2716
2214.62	19.3935
2216.78	18.1679
2218.93	16.4496
2221.08	17.0179
2223.23	16.7662
2225.38	15.7798
2227.53	19.2121
2229.69	17.6797
2231.84	16.8287
2233.99	19.9398
2236.14	15.6707
2238.29	17.6952
2240.44	15.6775
2242.6	13.5178
2244.75	16.0889
2246.9	15.3577
2249.05	15.6351
2251.2	11.7939
2253.36	17.1031
2255.51	13.8612
2257.66	17.4637
2259.81	20.4671
2261.96	14.8133
2264.11	17.943
2266.27	14.311
2268.42	16.8968
2270.57	19.1672
2272.72	15.579
2274.87	17.559
2277.02	11.0479
2279.18	15.645
2281.33	19.5722
2283.48	17.1354
2285.63	12.9738
2287.78	16.3637
2289.93	16.2376
2292.09	20.6411
2294.24	16.203
2296.39	16.6732
2298.54	17.5042
2300.69	15.7389
2302.84	17.9936
2305	17.0683
2307.15	17.1756
2309.3	16.1563
2311.45	18.0178
2313.6	13.2
2315.75	20.2408
2317.91	19.9046
2320.06	18.2854
2322.21	12.6385
2324.36	18.1243
2326.51	19.0563
2328.67	24.3989
2330.82	35.9093
2332.97	34.9712
2335.12	18.2398
2337.27	17.7388
2339.42	21.6405
2341.58	19.5277
2343.73	22.4251
2345.88	15.4845
2348.03	19.085
2350.18	19.7467
2352.33	16.8559
2354.49	19.8895
2356.64	17.3728
2358.79	18.0896
2360.94	18.6708
2363.09	17.9916
2365.24	18.8845
2367.4	19.1543
2369.55	22.9435
2371.7	16.5039
2373.85	18.2512
2376	18.4272
2378.15	18.4049
2380.31	20.5183
2382.46	21.8471
2384.61	17.5482
2386.76	21.4361
2388.91	20.9988
2391.06	20.7679
2393.22	22.4062
2395.37	23.4
2397.52	21.0927
2399.67	18.5461
2401.82	19.4422
2403.98	19.6699
2406.13	24.8523
2408.28	23.7587
2410.43	21.8
2412.58	22.2962
2414.73	22.649
2416.89	24.2151
2419.04	24.7279
2421.19	23.4298
2423.34	26.9613
2425.49	23.7044
2427.64	25.6605
2429.8	30.7099
2431.95	32.5095
2434.1	26.6
2436.25	26.2264
2438.4	29.861
2440.55	31.8293
2442.71	32.249
2444.86	30.8933
2447.01	26.3468
2449.16	29.1033
2451.31	28
2453.46	30.7155
2455.62	31.8625
2457.77	29.784
2459.92	27.45
2462.07	29.9503
2464.22	28.3939
2466.375	31.9607
2468.53	26.5743
2470.68	26.2353
2472.83	27.9281
2474.98	27.249
2477.13	25.2356
2479.29	28.9269
2481.44	25.6065
2483.59	30.4545
2485.74	28.3774
2487.89	25.7102
2490.04	25.3593
2492.2	23.981
2494.35	27.43
2496.5	26.5302
2498.65	24.5632
2500.8	23.723
2502.95	24.9739
2505.11	27.8371
2507.26	25.4172
2509.41	26.2631
2511.56	25.7834
2513.71	26.1555
2515.86	25.5709
2518.02	23.6666
2520.17	26.4689
2522.32	30.9096
2524.47	28.0858
2526.62	31.4824
2528.77	27.276
2530.93	33.7449
2533.08	32.945
2535.23	28.1905
2537.38	23.4175
2539.53	30.5157
2541.68	29.4184
2543.84	31.7707
2545.99	24.8354
2548.14	28.0836
2550.29	28.6944
2552.44	30.4766
2554.6	32.1041
2556.75	30.8274
2558.9	32.7984
2561.05	31.9244
2563.2	30.2212
2565.35	28.6652
2567.51	33.0222
2569.66	29.0487
2571.81	32.1282
2573.96	33.8749
2576.11	32.5802
2578.26	31.2042
2580.42	34.8086
2582.57	32.276
2584.72	40.1695
2586.87	37.0159
2589.02	38.4444
2591.17	37.2191
2593.33	37.9892
2595.48	40.4984
2597.63	41.962
2599.78	41.921
2601.93	41.5164
2604.08	47.0168
2606.24	43.6995
2608.39	46.1966
2610.54	48.5814
2612.69	48.9866
2614.84	45.8509
2616.99	53.7841
2619.15	57.3595
2621.3	57.2816
2623.45	60.1394
2625.6	58.0736
2627.75	60.7855
2629.91	63.8344
2632.06	66.2719
2634.21	66.4508
2636.36	75.5665
2638.51	76.9926
2640.66	78.3485
2642.82	89.1124
2644.97	86.4548
2647.12	93.4079
2649.27	100.484
2651.42	104.454
2653.57	105.767
2655.73	113.375
2657.88	116.066
2660.03	119.59
2662.18	121.018
2664.33	134.616
2666.48	136.384
2668.64	142.021
2670.79	147.391
2672.94	154.798
2675.09	155.786
2677.24	163.199
2679.39	170.396
2681.55	168.641
2683.7	174.267
2685.85	182.763
2688	188.951
2690.15	182.073
2692.3	182.291
2694.46	183.902
2696.61	187.633
2698.76	180.861
2700.91	176.616
2703.06	175.806
2705.22	175.47
2707.37	169.057
2709.52	162.222
2711.67	162.82
2713.82	155.46
2715.97	150.972
2718.13	149.106
2720.28	138.311
2722.43	135.843
2724.58	126.345
2726.73	117.266
2728.88	114.887
2731.04	110.619
2733.19	105.357
2735.34	97.1222
2737.49	98.4088
2739.64	88.1631
2741.79	81.8521
2743.95	78.3223
2746.1	80.7885
2748.25	69.9133
2750.4	73.1628
2752.55	63.0374
2754.7	60.0174
2756.86	62.1127
2759.01	63.7801
2761.16	55.616
2763.31	57.6145
2765.46	50.337
2767.61	50.5934
2769.77	51.6333
2771.92	47.5294
2774.07	50.3217
2776.22	45.0937
2778.37	39.9601
2780.53	41.0455
2782.68	46.3807
2784.83	45.0307
2786.98	40.8462
2789.13	45.5618
2791.28	35.6662
2793.44	39.8183
2795.59	35.0347
2797.74	36.2004
2799.89	39.6442
2802.04	35.7582
2804.19	31.7536
2806.35	36.321
2808.5	34.3911
2810.65	28.9451
2812.8	34.2114
2814.95	33.0706
2817.1	33.4534
2819.26	31.0824
2821.41	31.0635
2823.56	34.7328
2825.71	32.5914
2827.86	31.9251
2830.01	27.4017
2832.17	30.7863
2834.32	33.5546
2836.47	34.2403
2838.62	28.8123
2840.77	28.627
2842.92	30.0292
2845.08	31.8696
2847.23	28.5542
2849.38	30.3026
2851.53	30.9674
2853.68	31.4805
2855.84	31.9782
2857.99	31.3409
2860.14	34.583
2862.29	28.3871
2864.44	31.171
2866.59	30.0904
2868.75	31.845
2870.9	32.7307
2873.05	32.9645
2875.2	31.7721
2877.35	30.0629
2879.5	28.9255
2881.66	33.1746
2883.81	31.4415
2885.96	30.6869
2888.11	33.7313
2890.26	27.2272
2892.41	34.1374
2894.57	33.7977
2896.72	29.4883
2898.87	31.7997
2901.02	33.1773
2903.17	34.347
2905.32	30.9795
2907.48	34.3721
2909.63	31.2342
2911.78	35
2913.93	33.087
2916.08	37.4529
2918.23	32.1476
2920.39	36.4832
2922.54	35.8777
2924.69	32.415
2926.84	35.0752
2928.99	37.0028
2931.15	39.4
2933.3	37.7923
2935.45	38.0011
2937.6	32.312
2939.75	33.9987
2941.9	37.6973
2944.06	36.1245
2946.21	36.7415
2948.36	32.2709
2950.51	34.6057
2952.66	37.6423
2954.81	35.9078
2956.97	32.2583
2959.12	30.4869
2961.27	32.9039
2963.42	30.7403
2965.57	34.6206
2967.72	31.2969
2969.88	28.7848
2972.03	30.6452
2974.18	30.9926
2976.33	30.755
2978.48	32.3121
2980.63	29.6318
2982.79	31.4012
2984.94	29.0233
2987.09	28.9743
2989.24	26.5945
2991.39	31
2993.54	30.8244
2995.7	28.2907
2997.85	28.2349
3000	27.1904