File: Example Data/Raman/CNT - TIM/Raytheon/Al foil/2011/03-21-11/Al - 8micron - B3_1.txt
300	365.944
301.307	351.789
302.613	360.413
303.92	378.716
305.227	385.135
306.533	386.228
307.84	396.718
309.147	396.214
310.453	382.598
311.76	401.136
313.067	386.502
314.374	396.252
315.68	403.221
316.987	396.25
318.294	396.409
319.6	403.391
320.907	418.24
322.214	393.689
323.52	399.405
324.827	396.886
326.134	390.778
327.44	379.754
328.747	384.169
330.054	403.489
331.361	403.428
332.667	381.772
333.974	395.2
335.281	389.452
336.587	389.931
337.894	397.411
339.201	391.227
340.507	377.747
341.814	380.737
343.121	394.74
344.427	382.1
345.734	368.364
347.041	389.654
348.347	369.702
349.654	376.646
350.961	377.191
352.267	372.931
353.574	381.26
354.881	387.88
356.188	377.213
357.494	386.318
358.801	381.867
360.108	385.682
361.414	385.589
362.721	373.244
364.028	377.321
365.334	380.808
366.641	377.749
367.948	374.659
369.254	371.108
370.561	367.369
371.868	356.607
373.174	364.935
374.481	356.22
375.788	376.376
377.095	379.089
378.401	375
379.708	373.769
381.015	374.173
382.321	375.725
383.628	365.197
384.935	378.759
386.241	379.435
387.548	364.045
388.855	367.113
390.161	362.204
391.468	361.769
392.775	368.474
394.081	372.41
395.388	371.859
396.695	368.812
398.002	369.297
399.308	370.874
400.615	371.416
401.922	365.443
403.228	372.638
404.535	379.753
405.842	376.718
407.148	367.034
408.455	356.019
409.762	348.32
411.068	363.972
412.375	363.52
413.682	378.392
414.988	370.578
416.295	375.062
417.602	361.616
418.909	349.6
420.215	353.522
421.522	355.416
422.829	351.786
424.135	368.092
425.442	346.593
426.749	361.307
428.055	357.645
429.362	358.668
430.669	356.986
431.975	359.376
433.282	361.428
434.589	352.202
435.895	341.928
437.202	355.5
438.509	365.733
439.816	362.106
441.122	352.976
442.429	357.459
443.736	354.659
445.042	349.59
446.349	351.964
447.656	354.995
448.962	351.375
450.269	347.558
451.576	347.253
452.882	343.273
454.189	326.017
455.496	344.997
456.802	353.047
458.109	353.471
459.416	348.833
460.723	346.756
462.029	343.673
463.336	339.14
464.643	341.117
465.949	339.236
467.256	326.496
468.563	339.25
469.869	338.876
471.176	331.694
472.483	338.264
473.789	344.578
475.096	338.102
476.403	330.821
477.709	326.833
479.016	317.059
480.323	316.916
481.63	333.265
482.936	317.983
484.243	328.084
485.55	327.832
486.856	322.984
488.163	322.68
489.47	317.055
490.776	313.364
492.083	311.421
493.39	308.587
494.696	316.147
496.003	310.293
497.31	307.05
498.616	316.861
499.923	308.527
501.23	309.883
502.536	302.041
503.843	295.909
505.15	303.463
506.457	310.719
507.763	304.558
509.07	296.834
510.377	298.219
511.683	294.86
512.99	311.721
514.297	300.735
515.603	303.293
516.91	303.063
518.217	303.582
519.523	301.094
520.83	306.461
522.137	310.271
523.443	294.223
524.75	281.867
526.057	307.489
527.364	295.337
528.67	315.968
529.977	300.87
531.284	295.12
532.59	297.82
533.897	295.817
535.204	302.337
536.51	305.724
537.817	309.865
539.124	312.837
540.43	300.693
541.737	295.472
543.044	288.475
544.351	288.622
545.657	307.711
546.964	302.146
548.271	298.475
549.577	294.095
550.884	311.603
552.191	315.057
553.497	299.881
554.804	284.476
556.111	285.031
557.417	308.04
558.724	301.278
560.031	303.842
561.337	316.974
562.644	309.806
563.951	302.005
565.258	296.032
566.564	301.334
567.871	304.75
569.178	296.836
570.484	293.249
571.791	299.742
573.098	308.178
574.404	322.245
575.711	314.374
577.018	315.856
578.324	327.859
579.631	322.675
580.938	310.992
582.244	308.685
583.551	313.722
584.858	312.582
586.164	306.679
587.471	309.156
588.778	314.164
590.085	308.723
591.391	307.379
592.698	313.726
594.005	309.122
595.311	314.903
596.618	313.181
597.925	313.835
599.231	309.248
600.538	304.493
601.845	303.765
603.151	311.926
604.458	314.783
605.765	310.598
607.071	311.464
608.378	318.197
609.685	333.139
610.992	326.479
612.298	314.937
613.605	321.656
614.912	328.377
616.218	327.836
617.525	320.33
618.832	318.746
620.138	317.771
621.445	319.221
622.752	319.593
624.058	325.262
625.365	336.741
626.672	333.219
627.978	334.135
629.285	331
630.592	330.529
631.899	310.999
633.205	333.357
634.512	312.965
635.819	315.291
637.125	330.089
638.432	339.611
639.739	343.731
641.045	337.831
642.352	330.137
643.659	332.88
644.965	332.87
646.272	325.203
647.579	331.648
648.885	355.233
650.192	327.509
651.499	329.056
652.806	333.267
654.112	339.835
655.419	334.928
656.726	330.321
658.032	331.697
659.339	336.298
660.646	343.859
661.952	346.72
663.259	346.488
664.566	354.929
665.872	344.763
667.179	344.639
668.486	333.5
669.792	333.5
671.099	341.708
672.406	343.769
673.713	331.707
675.019	340.96
676.326	341.768
677.633	340.818
678.939	342.271
680.246	347.998
681.553	348.856
682.859	345.577
684.166	349.218
685.473	333.95
686.779	346.443
688.086	332.842
689.393	346.96
690.699	342.748
692.006	348.898
693.313	356.916
694.62	350.556
695.926	342.105
697.233	342.183
698.54	348.3
699.846	345.799
701.153	341.889
702.46	346.83
703.766	354.531
705.073	358.431
706.38	349.732
707.686	354.964
708.993	350.779
710.3	360.179
711.606	355.481
712.913	364.408
714.22	361.75
715.526	355.787
716.833	356.03
718.14	359.36
719.447	356.304
720.753	355.65
722.06	364.98
723.367	369.784
724.673	366.051
725.98	366.462
727.287	364.533
728.593	365.226
729.9	360.5
731.207	361.787
732.513	381.444
733.82	364.255
735.127	368.58
736.434	374.234
737.74	371.965
739.047	383.52
740.354	369.745
741.66	372.767
742.967	378.939
744.274	378.462
745.58	377.628
746.887	380.867
748.194	390.705
749.5	391.357
750.807	394.745
752.114	382.777
753.42	385.443
754.727	382.7
756.034	387.421
757.341	379.607
758.647	385.558
759.954	390.801
761.261	397.488
762.567	396.409
763.874	387.877
765.181	397.532
766.487	400.059
767.794	388.325
769.101	373.711
770.407	373.369
771.714	386.083
773.021	382.423
774.327	391.006
775.634	403.824
776.941	413.283
778.247	395.074
779.554	412.735
780.861	397.801
782.168	402.045
783.474	398.842
784.781	394.003
786.088	405.314
787.394	416.847
788.701	399.181
790.008	402.293
791.314	404.038
792.621	400.385
793.928	394.732
795.234	395.438
796.541	411.088
797.848	410.873
799.154	407.423
800.461	402.624
801.768	415.293
803.075	422.628
804.381	423.563
805.688	420.26
806.995	422.638
808.301	399.868
809.608	409.092
810.915	425.989
812.221	426.834
813.528	416.013
814.835	415.326
816.141	424.416
817.448	420.298
818.755	426.297
820.061	437.394
821.368	431.861
822.675	432.347
823.982	439.484
825.288	430.216
826.595	433.107
827.902	437.523
829.208	427.832
830.515	442.681
831.822	442.433
833.128	413.169
834.435	426.781
835.742	427.02
837.048	441.463
838.355	440.384
839.662	450.369
840.969	437.494
842.275	442.806
843.582	441.783
844.889	439.359
846.195	440.597
847.502	451.026
848.809	456.897
850.115	453.392
851.422	451.394
852.729	448.239
854.035	450.802
855.342	459.127
856.649	465.352
857.955	473.044
859.262	470.859
860.569	475.69
861.875	452.848
863.182	450.049
864.489	455.32
865.796	445.779
867.102	441.241
868.409	430.628
869.716	439.182
871.022	441.56
872.329	443.663
873.636	431.575
874.942	428.859
876.249	422.956
877.556	426.7
878.862	430.109
880.169	428.794
881.476	426.037
882.782	420.453
884.089	421.319
885.396	425.133
886.703	432.396
888.009	426.171
889.316	419.314
890.623	424.68
891.929	416.54
893.236	413.594
894.543	414.333
895.849	411.908
897.156	434.305
898.463	413.769
899.769	419.978
901.076	415.102
902.383	417.997
903.689	421.733
904.996	413.956
906.303	425.725
907.61	416.647
908.916	401.858
910.223	414.418
911.53	417.611
912.836	414.428
914.143	416.25
915.45	417.434
916.756	418.86
918.063	414.449
919.37	402.289
920.676	391.993
921.983	397.292
923.29	413.116
924.596	408.893
925.903	407.894
927.21	419.164
928.517	423.097
929.823	424.559
931.13	403.582
932.437	418.176
933.743	401.768
935.05	419.666
936.357	410.188
937.663	406.563
938.97	427.167
940.277	424.163
941.583	415.933
942.89	418.323
944.197	421.175
945.503	414.076
946.81	406.39
948.117	416.308
949.424	421.974
950.73	422.238
952.037	428.776
953.344	420.383
954.65	423.736
955.957	434.756
957.264	427.167
958.57	423.353
959.877	425.983
961.184	427.27
962.49	423.865
963.797	420.549
965.104	412.336
966.41	430.853
967.717	425.29
969.024	438.286
970.331	418.789
971.637	418.912
972.944	435.441
974.251	416.954
975.557	422.86
976.864	419.881
978.171	427.658
979.477	444.346
980.784	433.769
982.091	433
983.397	442.488
984.704	439.253
986.011	445.979
987.317	454.951
988.624	446.803
989.931	445.321
991.237	457.411
992.544	448.735
993.851	457.503
995.158	462.778
996.464	458.852
997.771	457.303
999.078	468.539
1000.38	475.386
1001.69	469.703
1003	474.297
1004.3	476.297
1005.61	472.745
1006.92	487.615
1008.22	496.433
1009.53	495.598
1010.84	504.078
1012.14	497.841
1013.45	493.707
1014.76	504.95
1016.06	512.832
1017.37	497.398
1018.68	506.88
1019.98	510.583
1021.29	524.609
1022.6	520.596
1023.9	512.651
1025.21	511.319
1026.52	548.012
1027.82	528.943
1029.13	534.047
1030.44	545.337
1031.74	564.067
1033.05	543.79
1034.36	546.729
1035.66	562.095
1036.97	570.384
1038.28	561.158
1039.58	554.767
1040.89	563.691
1042.2	595.106
1043.51	589.986
1044.81	585.335
1046.12	576.279
1047.43	584.395
1048.73	609.664
1050.04	596.039
1051.35	600.266
1052.65	604.054
1053.96	604.25
1055.27	597.546
1056.57	601.298
1057.88	613.166
1059.19	617.664
1060.49	623.024
1061.8	623.347
1063.11	608.959
1064.41	617.368
1065.72	631.062
1067.03	638.94
1068.33	646.077
1069.64	640.544
1070.95	642.672
1072.25	651.883
1073.56	652.143
1074.87	658.857
1076.17	666.558
1077.48	656.574
1078.79	648.834
1080.09	662.753
1081.4	680.688
1082.71	685.591
1084.01	682.453
1085.32	691.465
1086.63	697.923
1087.93	685.984
1089.24	685.83
1090.55	685.741
1091.85	690.863
1093.16	710.306
1094.47	706.684
1095.77	702.027
1097.08	713.378
1098.39	725.097
1099.69	700.587
1101	702.535
1102.31	746.028
1103.61	731.105
1104.92	734.843
1106.23	746.786
1107.53	743.912
1108.84	759.159
1110.15	754.758
1111.45	742.668
1112.76	757.699
1114.07	776.702
1115.37	783.562
1116.68	777.438
1117.99	784.195
1119.29	810.34
1120.6	790.954
1121.91	791.603
1123.21	803.056
1124.52	797.017
1125.83	789.233
1127.13	817.713
1128.44	815.028
1129.75	811.072
1131.05	829.173
1132.36	797.173
1133.67	824.297
1134.97	819.391
1136.28	843.342
1137.59	878.222
1138.89	859.768
1140.2	867.208
1141.51	878.66
1142.81	881.31
1144.12	887.036
1145.43	851.721
1146.73	910.052
1148.04	897.813
1149.35	908.847
1150.65	931.857
1151.96	930.212
1153.27	910.037
1154.57	917.602
1155.88	938.79
1157.19	951.81
1158.49	921.742
1159.8	954.614
1161.11	948.341
1162.41	954.025
1163.72	965.038
1165.03	941.68
1166.33	955.527
1167.64	958.941
1168.95	993.84
1170.25	977.397
1171.56	994.402
1172.87	989.829
1174.17	1002.62
1175.48	1001.37
1176.79	1019.83
1178.09	1008.73
1179.4	994.974
1180.71	997.23
1182.01	1026.27
1183.32	1015.22
1184.63	1032.07
1185.93	1023.8
1187.24	1017.56
1188.55	1065.06
1189.85	1048.03
1191.16	1059.26
1192.47	1051.63
1193.77	1063.28
1195.08	1101.88
1196.39	1076.92
1197.69	1061.85
1199	1075.61
1200.31	1061.21
1201.61	1072.77
1202.92	1121.87
1204.23	1099.34
1205.53	1103.19
1206.84	1099.38
1208.15	1145.45
1209.45	1124.74
1210.76	1127.87
1212.07	1155.89
1213.37	1146.44
1214.68	1174.81
1215.99	1183.62
1217.29	1177.29
1218.6	1173.26
1219.91	1205.61
1221.21	1214.09
1222.52	1228.08
1223.83	1225.58
1225.13	1233.26
1226.44	1245.97
1227.75	1241.99
1229.05	1254.7
1230.36	1281.7
1231.67	1281.27
1232.97	1308.13
1234.28	1311.99
1235.59	1302.16
1236.89	1331.38
1238.2	1311.41
1239.51	1339.39
1240.81	1340.3
1242.12	1355.4
1243.43	1386.08
1244.73	1401.11
1246.04	1392.12
1247.35	1404.75
1248.65	1421.18
1249.96	1446.9
1251.27	1461.7
1252.57	1469.33
1253.88	1466.16
1255.19	1491.97
1256.49	1505.51
1257.8	1505.82
1259.11	1524.51
1260.42	1531.58
1261.72	1537.07
1263.03	1559.78
1264.34	1603.06
1265.64	1603.77
1266.95	1620.77
1268.26	1634.5
1269.56	1648.1
1270.87	1674.56
1272.18	1717.06
1273.48	1726.71
1274.79	1743.99
1276.1	1758
1277.4	1779.98
1278.71	1805.96
1280.02	1819.93
1281.32	1830.58
1282.63	1872.07
1283.94	1882.92
1285.24	1891.54
1286.55	1921.47
1287.86	1956.08
1289.16	2000.87
1290.47	2052.25
1291.78	2049.72
1293.08	2068.79
1294.39	2101.48
1295.7	2123.4
1297	2166.64
1298.31	2209.57
1299.62	2225.65
1300.92	2263.03
1302.23	2284.15
1303.54	2332.53
1304.84	2377.48
1306.15	2401.81
1307.46	2462.02
1308.76	2512.65
1310.07	2534.92
1311.38	2575.17
1312.68	2605.27
1313.99	2660.52
1315.3	2729.43
1316.6	2752.62
1317.91	2791.2
1319.22	2873.75
1320.52	2929.66
1321.83	2969.59
1323.14	2988.49
1324.44	3017.77
1325.75	3066.84
1327.06	3121.38
1328.36	3204.8
1329.67	3245.08
1330.98	3291.52
1332.28	3316.9
1333.59	3332.65
1334.9	3388.99
1336.2	3422.56
1337.51	3457.11
1338.82	3476.88
1340.12	3489.07
1341.43	3510.2
1342.74	3524.14
1344.04	3538.89
1345.35	3550.8
1346.66	3584.67
1347.96	3595.86
1349.27	3563.78
1350.58	3576.12
1351.88	3583
1353.19	3571.78
1354.5	3551.12
1355.8	3541.3
1357.11	3508.07
1358.42	3484.67
1359.72	3454.48
1361.03	3419.22
1362.34	3395.04
1363.64	3336.68
1364.95	3326.79
1366.26	3304.07
1367.56	3250.76
1368.87	3222.67
1370.18	3223.96
1371.48	3145.43
1372.79	3138.6
1374.1	3042.26
1375.4	3017.83
1376.71	2996.1
1378.02	2981.63
1379.32	2943.3
1380.63	2901.92
1381.94	2842.28
1383.24	2798.9
1384.55	2767.68
1385.86	2704.65
1387.16	2676.28
1388.47	2670.82
1389.78	2620
1391.08	2590.99
1392.39	2560.74
1393.7	2533.55
1395	2496.51
1396.31	2453.88
1397.62	2433.8
1398.92	2407.2
1400.23	2381.17
1401.54	2347.83
1402.84	2329.43
1404.15	2304.47
1405.46	2275.21
1406.76	2257.2
1408.07	2230.07
1409.38	2189.15
1410.68	2199.34
1411.99	2162.2
1413.3	2160.86
1414.6	2128.66
1415.91	2114.78
1417.22	2079.39
1418.52	2097.26
1419.83	2042.88
1421.14	2059.97
1422.44	2038.47
1423.75	2013.26
1425.06	1990.26
1426.36	2018.81
1427.67	1977.47
1428.98	1971.82
1430.28	1981.36
1431.59	1957.51
1432.9	1969.78
1434.2	1932.57
1435.51	1909.11
1436.82	1934.97
1438.12	1921.3
1439.43	1901.43
1440.74	1909.77
1442.04	1900.9
1443.35	1879.89
1444.66	1878.54
1445.96	1868.94
1447.27	1863.27
1448.58	1860.08
1449.88	1873.58
1451.19	1864.6
1452.5	1872.1
1453.8	1856.62
1455.11	1869.24
1456.42	1841.36
1457.72	1852.125
1459.03	1845.67
1460.34	1858.59
1461.64	1857.76
1462.95	1840.94
1464.26	1829.37
1465.56	1834.24
1466.87	1844.22
1468.18	1828.13
1469.48	1816.78
1470.79	1845.63
1472.1	1835.59
1473.41	1854.59
1474.71	1834.76
1476.02	1834.74
1477.33	1847.36
1478.63	1844.52
1479.94	1826.62
1481.25	1822.41
1482.55	1819.01
1483.86	1850.65
1485.17	1858.4
1486.47	1819.27
1487.78	1833.16
1489.09	1829.85
1490.39	1824.32
1491.7	1821.66
1493.01	1830.98
1494.31	1820.62
1495.62	1826.4
1496.93	1827.82
1498.23	1851.16
1499.54	1851.23
1500.85	1853.08
1502.15	1858.17
1503.46	1850.9
1504.77	1858.13
1506.07	1850.98
1507.38	1841.3
1508.69	1857.64
1509.99	1879.52
1511.3	1877.63
1512.61	1860.96
1513.91	1897.43
1515.22	1892.02
1516.53	1871.3
1517.83	1884.82
1519.14	1900.28
1520.45	1921.4
1521.75	1910.46
1523.06	1932
1524.37	1954.38
1525.67	1944.53
1526.98	1950.15
1528.29	1968.74
1529.59	1980.08
1530.9	1988.4
1532.21	2017.85
1533.51	2035.57
1534.82	2043.4
1536.13	2061.34
1537.43	2085.45
1538.74	2095.43
1540.05	2125.41
1541.35	2126.87
1542.66	2148.95
1543.97	2176.21
1545.27	2177.64
1546.58	2268.58
1547.89	2289.77
1549.19	2277.41
1550.5	2310.01
1551.81	2336.01
1553.11	2358.48
1554.42	2374.71
1555.73	2466.24
1557.03	2501.7
1558.34	2554.46
1559.65	2586.85
1560.95	2594.65
1562.26	2615.38
1563.57	2667.36
1564.87	2740.65
1566.18	2771.56
1567.49	2750.35
1568.79	2844.58
1570.1	2893.73
1571.41	2892.93
1572.71	2976.23
1574.02	2996.39
1575.33	3071.58
1576.63	3090.17
1577.94	3156.27
1579.25	3178.41
1580.55	3237.07
1581.86	3268.89
1583.17	3303.51
1584.47	3337.83
1585.78	3373.98
1587.09	3414.17
1588.39	3439.23
1589.7	3450.29
1591.01	3493.44
1592.31	3509.27
1593.62	3493.45
1594.93	3542.8
1596.23	3551.6
1597.54	3606.96
1598.85	3577.13
1600.15	3553.32
1601.46	3542.89
1602.77	3521.6
1604.07	3508.89
1605.38	3490.3
1606.69	3464.61
1607.99	3449.37
1609.3	3390.8
1610.61	3358.58
1611.91	3290.38
1613.22	3255.88
1614.53	3222.56
1615.83	3159.38
1617.14	3095.64
1618.45	3015.78
1619.75	2971.38
1621.06	2882.04
1622.37	2827.93
1623.67	2801.87
1624.98	2697.76
1626.29	2619.54
1627.59	2560.81
1628.9	2463.25
1630.21	2426.55
1631.51	2340.24
1632.82	2261.85
1634.13	2212.66
1635.43	2116.91
1636.74	2050.98
1638.05	1967.91
1639.35	1893.91
1640.66	1840.98
1641.97	1794.15
1643.27	1732.02
1644.58	1698.67
1645.89	1646.56
1647.19	1575.93
1648.5	1500.78
1649.81	1415.55
1651.11	1445.6
1652.42	1393.34
1653.73	1332.87
1655.03	1309.87
1656.34	1268.16
1657.65	1218.33
1658.95	1184.37
1660.26	1132.94
1661.57	1081.07
1662.87	1048.94
1664.18	1021.42
1665.49	1001.96
1666.79	980.555
1668.1	966.884
1669.41	913.689
1670.71	878.873
1672.02	840.331
1673.33	842.912
1674.63	793.667
1675.94	805.434
1677.25	777.011
1678.55	762.538
1679.86	732.782
1681.17	701.987
1682.47	688.362
1683.78	667.002
1685.09	677.349
1686.4	664.081
1687.7	636.645
1689.01	612.736
1690.32	617.046
1691.62	619.004
1692.93	580.949
1694.24	566.661
1695.54	572.199
1696.85	567.5
1698.16	552.025
1699.46	554.316
1700.77	522.291
1702.08	502.678
1703.38	508.276
1704.69	521.626
1706	507.36
1707.3	499.739
1708.61	504.792
1709.92	506.139
1711.22	491.04
1712.53	483.689
1713.84	475.518
1715.14	472.629
1716.45	470.727
1717.76	463.379
1719.06	456.887
1720.37	443.876
1721.68	438.907
1722.98	435.446
1724.29	433.874
1725.6	435.502
1726.9	429.921
1728.21	429.336
1729.52	416.874
1730.82	425.597
1732.13	420.111
1733.44	411.764
1734.74	421.302
1736.05	405.161
1737.36	409.593
1738.66	399.571
1739.97	398.051
1741.28	406.629
1742.58	400.267
1743.89	405.11
1745.2	399.102
1746.5	385.798
1747.81	389.591
1749.12	389.066
1750.42	397.783
1751.73	387.265
1753.04	378.609
1754.34	371.558
1755.65	373.25
1756.96	378.196
1758.26	371.477
1759.57	369.873
1760.88	376.405
1762.18	377.93
1763.49	391.059
1764.8	386.916
1766.1	361.518
1767.41	377.621
1768.72	379.909
1770.02	373.203
1771.33	381.037
1772.64	375.174
1773.94	368.948
1775.25	371.388
1776.56	364.396
1777.86	366.97
1779.17	369.558
1780.48	362.289
1781.78	367.605
1783.09	347.548
1784.4	348.71
1785.7	371.234
1787.01	355.917
1788.32	351.304
1789.62	357.995
1790.93	352.496
1792.24	353.394
1793.54	363.441
1794.85	360.971
1796.16	360.649
1797.46	359.955
1798.77	358.527
1800.08	360.169
1801.38	352.473
1802.69	373.961
1804	363.985
1805.3	353.5
1806.61	355.544
1807.92	362.186
1809.22	365.362
1810.53	357.591
1811.84	349.193
1813.14	349.743
1814.45	343.635
1815.76	350.044
1817.06	351.262
1818.37	335.397
1819.68	342.264
1820.98	346.677
1822.29	353.968
1823.6	359.37
1824.9	345.048
1826.21	338.1875
1827.52	333.505
1828.82	348.998
1830.13	348.82
1831.44	353.141
1832.74	357.328
1834.05	336.169
1835.36	342.294
1836.66	360.317
1837.97	361.339
1839.28	346.861
1840.58	353.453
1841.89	348.683
1843.2	345.042
1844.5	340.209
1845.81	361.624
1847.12	346.201
1848.42	361.557
1849.73	360.781
1851.04	358.574
1852.34	348.182
1853.65	349.846
1854.96	361.855
1856.26	356.579
1857.57	351.377
1858.88	340.948
1860.18	341.691
1861.49	342.16
1862.8	343.099
1864.1	361.589
1865.41	347.695
1866.72	343.893
1868.02	344.648
1869.33	344.429
1870.64	349.799
1871.94	343.86
1873.25	334.894
1874.56	345.463
1875.86	345.333
1877.17	354.378
1878.48	354.544
1879.78	359.541
1881.09	348.422
1882.4	351.417
1883.7	345.356
1885.01	349.535
1886.32	349.165
1887.62	338.467
1888.93	338.591
1890.24	342.692
1891.54	348.493
1892.85	347.183
1894.16	335.106
1895.47	333.846
1896.77	342.168
1898.08	345.111
1899.39	334.221
1900.69	343.193
1902	343.458
1903.31	342.174
1904.61	339.791
1905.92	333.615
1907.23	355.585
1908.53	344.94
1909.84	339.927
1911.15	335.07
1912.45	344.542
1913.76	350.427
1915.07	356.608
1916.37	343.926
1917.68	338.13
1918.99	340.833
1920.29	344.145
1921.6	344.419
1922.91	347.299
1924.21	341.48
1925.52	340.458
1926.83	347.519
1928.13	342.229
1929.44	346.827
1930.75	345.811
1932.05	333.103
1933.36	335.612
1934.67	340.68
1935.97	330.606
1937.28	342.136
1938.59	344.815
1939.89	341.279
1941.2	340.503
1942.51	331.729
1943.81	346.842
1945.12	341.034
1946.43	352.738
1947.73	349.009
1949.04	346.026
1950.35	343.239
1951.65	338.643
1952.96	353.292
1954.27	330.131
1955.57	349.748
1956.88	346.528
1958.19	353.178
1959.49	353.828
1960.8	342.268
1962.11	345.492
1963.41	335.251
1964.72	336.823
1966.03	347.581
1967.33	344.425
1968.64	340.162
1969.95	359.645
1971.25	360.917
1972.56	351.439
1973.87	349.892
1975.17	351.986
1976.48	348.661
1977.79	340.799
1979.09	334.076
1980.4	352.363
1981.71	360.6
1983.01	360.789
1984.32	350.254
1985.63	344.319
1986.93	351.468
1988.24	351.342
1989.55	350.78
1990.85	360.803
1992.16	338.583
1993.47	351.774
1994.77	354.362
1996.08	343.437
1997.39	352.407
1998.69	348.334
2000	339.639