File: Example Data/Raman/CNT - TIM/Raytheon/Al foil/2011/03-21-11/Al - 8micron - B3-bottom_1.txt
300	122.806
301.307	140.808
302.613	143.164
303.92	147.494
305.227	160.973
306.533	166.393
307.84	171.05
309.147	166.372
310.453	172.176
311.76	179.781
313.067	182.893
314.374	182.322
315.68	172.109
316.987	164.907
318.294	173.776
319.6	183.34
320.907	175.904
322.214	174.342
323.52	155.521
324.827	155.68
326.134	154.167
327.44	154.071
328.747	157.696
330.054	162.863
331.361	167.033
332.667	165.91
333.974	171.728
335.281	166.621
336.587	156.945
337.894	173.424
339.201	157.865
340.507	156.672
341.814	168.702
343.121	158.825
344.427	162.419
345.734	161.526
347.041	154.131
348.347	163.105
349.654	155.972
350.961	160.244
352.267	154.109
353.574	156.557
354.881	167.818
356.188	160.257
357.494	154.825
358.801	156.911
360.108	153.993
361.414	156.013
362.721	144.244
364.028	147.857
365.334	152.094
366.641	151.146
367.948	148.634
369.254	144.624
370.561	149.934
371.868	159.183
373.174	154.007
374.481	140.117
375.788	148.543
377.095	149.587
378.401	141.506
379.708	135.897
381.015	135.129
382.321	135.599
383.628	143.418
384.935	150.645
386.241	142.306
387.548	148.007
388.855	133.592
390.161	126.942
391.468	127.397
392.775	133.762
394.081	145.676
395.388	147.543
396.695	126.706
398.002	138.83
399.308	141.535
400.615	135.725
401.922	132.114
403.228	134.432
404.535	138.407
405.842	132.844
407.148	128.76
408.455	139.309
409.762	138.828
411.068	127.257
412.375	135.382
413.682	143.088
414.988	134.654
416.295	122.844
417.602	133.187
418.909	142.92
420.215	142.327
421.522	141.075
422.829	138.384
424.135	147.369
425.442	130.471
426.749	125.944
428.055	127.134
429.362	131.113
430.669	130.3
431.975	137.42
433.282	139.461
434.589	130.061
435.895	130.322
437.202	145.04
438.509	139.134
439.816	127.345
441.122	129.201
442.429	142.493
443.736	123.251
445.042	111.745
446.349	126.946
447.656	129.007
448.962	116.609
450.269	130.744
451.576	132.401
452.882	122.763
454.189	122.99
455.496	121.915
456.802	129.709
458.109	125.311
459.416	110.047
460.723	106.035
462.029	117.179
463.336	122.469
464.643	117.723
465.949	130.663
467.256	114.757
468.563	106.331
469.869	112.337
471.176	113.446
472.483	109.504
473.789	113.967
475.096	107.782
476.403	101.142
477.709	108.313
479.016	114.813
480.323	113.332
481.63	105.266
482.936	111.653
484.243	100.742
485.55	95.0445
486.856	99.6001
488.163	103.498
489.47	100.249
490.776	98.133
492.083	97.0419
493.39	94.0782
494.696	99.8044
496.003	106.886
497.31	105.483
498.616	88.5993
499.923	98.3957
501.23	107.938
502.536	88.2204
503.843	82.7804
505.15	88.1766
506.457	94.6255
507.763	92.2987
509.07	80.6073
510.377	92.3711
511.683	90.7054
512.99	79.7708
514.297	87.5525
515.603	88.25
516.91	86.3766
518.217	88.5773
519.523	84.7686
520.83	82.9897
522.137	82.9284
523.443	83.8133
524.75	90.0732
526.057	84.5549
527.364	78.9694
528.67	84.2418
529.977	81.2698
531.284	87.0487
532.59	86.1829
533.897	94.3784
535.204	85.37
536.51	83.841
537.817	96.6983
539.124	102.635
540.43	97.6257
541.737	90.0843
543.044	92.9984
544.351	95.1021
545.657	87.5127
546.964	88.9277
548.271	92.5514
549.577	96.6328
550.884	98.4622
552.191	93.1211
553.497	83.4601
554.804	78.5972
556.111	84.5241
557.417	92.6362
558.724	85.0556
560.031	95.925
561.337	90.8567
562.644	86.9153
563.951	88.3516
565.258	89.1223
566.564	94.5837
567.871	103.434
569.178	103.283
570.484	97.1626
571.791	95.2824
573.098	98.1937
574.404	99.8408
575.711	88.0719
577.018	101.21
578.324	105.365
579.631	107.73
580.938	95.7686
582.244	108.521
583.551	107.039
584.858	102.62
586.164	101.361
587.471	101.403
588.778	101.082
590.085	99.8516
591.391	99.2337
592.698	91.6105
594.005	109.896
595.311	108.277
596.618	121.212
597.925	109.977
599.231	95.1458
600.538	101.194
601.845	105.75
603.151	101.037
604.458	103.969
605.765	105.945
607.071	97.2932
608.378	99.6725
609.685	103.289
610.992	110.164
612.298	104.84
613.605	108.084
614.912	105.171
616.218	116.666
617.525	114.168
618.832	107.272
620.138	115.549
621.445	119.229
622.752	113.395
624.058	109.18
625.365	107.994
626.672	112.419
627.978	117.287
629.285	107.965
630.592	127.065
631.899	119.392
633.205	109.305
634.512	111.246
635.819	124.985
637.125	127.989
638.432	129.958
639.739	133.881
641.045	129.142
642.352	120.416
643.659	118.02
644.965	116.244
646.272	117.985
647.579	129.465
648.885	134.176
650.192	123.692
651.499	123.957
652.806	121.04
654.112	125.752
655.419	139.862
656.726	138.086
658.032	136.409
659.339	140.798
660.646	134.114
661.952	127.404
663.259	133.612
664.566	130.303
665.872	135.175
667.179	129.084
668.486	139.912
669.792	138.044
671.099	125.461
672.406	121.288
673.713	138.507
675.019	138.309
676.326	136.25
677.633	129.513
678.939	135.424
680.246	137.834
681.553	131.648
682.859	137.879
684.166	142.316
685.473	144.7
686.779	150.753
688.086	133.107
689.393	131.332
690.699	139.991
692.006	142.265
693.313	144.138
694.62	135.61
695.926	134.831
697.233	137.644
698.54	141.025
699.846	148.828
701.153	150.973
702.46	139.37
703.766	127.768
705.073	129.93
706.38	141.322
707.686	149.485
708.993	141.215
710.3	137.866
711.606	145.618
712.913	149.574
714.22	137.291
715.526	146.334
716.833	151.352
718.14	155.914
719.447	147.329
720.753	144.934
722.06	152.332
723.367	158.654
724.673	158.747
725.98	149.869
727.287	147.539
728.593	152.634
729.9	153.31
731.207	154.102
732.513	159.525
733.82	167.296
735.127	173.302
736.434	164.447
737.74	162.693
739.047	160.425
740.354	162.79
741.66	162.848
742.967	168.274
744.274	173.384
745.58	172.569
746.887	174.247
748.194	174.343
749.5	169.708
750.807	177.665
752.114	171.582
753.42	161.01
754.727	163.81
756.034	171.127
757.341	175.661
758.647	177.53
759.954	165.462
761.261	181.111
762.567	183.909
763.874	180.62
765.181	181.755
766.487	186.265
767.794	187.762
769.101	192.586
770.407	193.517
771.714	184.334
773.021	182.434
774.327	175.573
775.634	189.538
776.941	196.382
778.247	184.767
779.554	185.231
780.861	198.269
782.168	176.372
783.474	185.438
784.781	192.913
786.088	204.291
787.394	204.497
788.701	198.66
790.008	191.418
791.314	197.508
792.621	200.732
793.928	192.886
795.234	192.615
796.541	201.385
797.848	207.38
799.154	208.303
800.461	205.317
801.768	210.42
803.075	193.712
804.381	198.363
805.688	209.25
806.995	209.25
808.301	196.337
809.608	215.822
810.915	218.845
812.221	213.227
813.528	212.035
814.835	227.715
816.141	221.441
817.448	199.626
818.755	202.036
820.061	213.488
821.368	212.679
822.675	212.013
823.982	210.324
825.288	209.967
826.595	222.291
827.902	220.501
829.208	226.692
830.515	214.432
831.822	210.081
833.128	219.69
834.435	234.974
835.742	227.9
837.048	206.87
838.355	234.749
839.662	228.611
840.969	222.284
842.275	233.799
843.582	237.127
844.889	237.065
846.195	235.209
847.502	230.252
848.809	236.93
850.115	240.746
851.422	238.012
852.729	242.652
854.035	237.246
855.342	241.992
856.649	234.359
857.955	223.353
859.262	229.239
860.569	233.838
861.875	232.263
863.182	232.586
864.489	241.931
865.796	226.742
867.102	247.836
868.409	222.915
869.716	230.589
871.022	234.321
872.329	233.419
873.636	218.714
874.942	214.079
876.249	207.006
877.556	211.569
878.862	225.481
880.169	230.279
881.476	224.537
882.782	213.732
884.089	210.264
885.396	212.11
886.703	209.914
888.009	220.569
889.316	211.949
890.623	222.865
891.929	199.293
893.236	208.771
894.543	202.558
895.849	216.114
897.156	208.648
898.463	199.542
899.769	213.277
901.076	197.153
902.383	202.827
903.689	217.626
904.996	205.621
906.303	202.017
907.61	205.077
908.916	201.853
910.223	205.037
911.53	206.037
912.836	198.396
914.143	195.154
915.45	198.526
916.756	192.489
918.063	188.419
919.37	201.018
920.676	208.846
921.983	208.441
923.29	200.401
924.596	203.026
925.903	197.204
927.21	193.363
928.517	211.146
929.823	215.157
931.13	198.667
932.437	200.375
933.743	182.52
935.05	202.353
936.357	199.022
937.663	195.813
938.97	210.098
940.277	204.065
941.583	199.471
942.89	196.616
944.197	201.954
945.503	198.467
946.81	213.154
948.117	201.446
949.424	200.311
950.73	210.873
952.037	218.735
953.344	208.073
954.65	205.241
955.957	205.837
957.264	198.253
958.57	207.813
959.877	215.927
961.184	217.201
962.49	220.523
963.797	216.349
965.104	216.242
966.41	229.522
967.717	214.506
969.024	206.363
970.331	209.614
971.637	216.872
972.944	207.363
974.251	224.256
975.557	221.183
976.864	225.144
978.171	218.825
979.477	222.598
980.784	235.618
982.091	224.218
983.397	239.328
984.704	224.367
986.011	226.694
987.317	238.826
988.624	238.574
989.931	227.369
991.237	219.992
992.544	235.384
993.851	232.998
995.158	236.512
996.464	247.203
997.771	253.421
999.078	252.966
1000.38	253.171
1001.69	255.966
1003	252.405
1004.3	256.273
1005.61	263.164
1006.92	257.229
1008.22	255.148
1009.53	262.833
1010.84	277.767
1012.14	290.176
1013.45	284.552
1014.76	274.737
1016.06	267.473
1017.37	275.188
1018.68	276.737
1019.98	275.174
1021.29	295.441
1022.6	289.879
1023.9	312.912
1025.21	289.896
1026.52	303.354
1027.82	300.203
1029.13	301.072
1030.44	318.225
1031.74	322.478
1033.05	328.911
1034.36	304.176
1035.66	335.178
1036.97	329.311
1038.28	351.459
1039.58	328.92
1040.89	343.834
1042.2	347.73
1043.51	348.215
1044.81	333.691
1046.12	353.52
1047.43	343.306
1048.73	350.219
1050.04	360.537
1051.35	359.159
1052.65	363.912
1053.96	356.61
1055.27	358.646
1056.57	367.892
1057.88	380.757
1059.19	376.319
1060.49	373.098
1061.8	368.226
1063.11	381.195
1064.41	386.557
1065.72	383.434
1067.03	388.393
1068.33	390.494
1069.64	389.25
1070.95	395.592
1072.25	398.604
1073.56	409.466
1074.87	416.737
1076.17	416.263
1077.48	418.595
1078.79	407.199
1080.09	410.452
1081.4	427.142
1082.71	437.757
1084.01	432.466
1085.32	415.802
1086.63	423.731
1087.93	437.365
1089.24	426.095
1090.55	432.883
1091.85	461.214
1093.16	459.611
1094.47	449.14
1095.77	453.64
1097.08	464.3
1098.39	477.733
1099.69	463.916
1101	463.438
1102.31	477.527
1103.61	489.135
1104.92	473.704
1106.23	467.964
1107.53	473.083
1108.84	473.968
1110.15	504.976
1111.45	506.734
1112.76	498.058
1114.07	511.564
1115.37	499.563
1116.68	505.63
1117.99	519.146
1119.29	499.282
1120.6	513.116
1121.91	514.992
1123.21	524.024
1124.52	535.552
1125.83	527.046
1127.13	538.836
1128.44	543.189
1129.75	555.198
1131.05	551.748
1132.36	569.612
1133.67	568.498
1134.97	577.501
1136.28	560.077
1137.59	571.944
1138.89	590.044
1140.2	586.791
1141.51	588.824
1142.81	610.568
1144.12	610.392
1145.43	588.492
1146.73	605.001
1148.04	600.879
1149.35	610.215
1150.65	606.092
1151.96	638.074
1153.27	663.521
1154.57	643.723
1155.88	639.684
1157.19	658.801
1158.49	650.467
1159.8	644.697
1161.11	667.03
1162.41	668.608
1163.72	650.761
1165.03	673.625
1166.33	662.821
1167.64	674.146
1168.95	694.205
1170.25	686.889
1171.56	713.165
1172.87	688.746
1174.17	694.538
1175.48	705.649
1176.79	702.651
1178.09	709.349
1179.4	713.061
1180.71	716.131
1182.01	711.987
1183.32	732.224
1184.63	719.583
1185.93	733.595
1187.24	744.247
1188.55	745.152
1189.85	744.56
1191.16	744.812
1192.47	757.31
1193.77	761.021
1195.08	758.156
1196.39	742.179
1197.69	769.525
1199	777.77
1200.31	770.182
1201.61	785.261
1202.92	777.565
1204.23	781.987
1205.53	775.175
1206.84	790.054
1208.15	787.864
1209.45	812.813
1210.76	819.6
1212.07	822.206
1213.37	834.414
1214.68	816.511
1215.99	827.439
1217.29	824.898
1218.6	831.92
1219.91	852.401
1221.21	843.838
1222.52	861.21
1223.83	882.356
1225.13	897.379
1226.44	883.337
1227.75	884.333
1229.05	900.109
1230.36	914.382
1231.67	921.21
1232.97	933.29
1234.28	923.241
1235.59	945.021
1236.89	948.135
1238.2	956.487
1239.51	980.301
1240.81	974.615
1242.12	986.107
1243.43	1000.72
1244.73	1002.41
1246.04	1021.39
1247.35	1036.21
1248.65	1050.55
1249.96	1039.33
1251.27	1053.34
1252.57	1072.27
1253.88	1066.17
1255.19	1095.53
1256.49	1096.6
1257.8	1102.7
1259.11	1128.82
1260.42	1153.56
1261.72	1168.87
1263.03	1141.64
1264.34	1156.71
1265.64	1186.89
1266.95	1213.92
1268.26	1212.06
1269.56	1224.3
1270.87	1238.99
1272.18	1249.09
1273.48	1261.11
1274.79	1279.63
1276.1	1280.5
1277.4	1310.59
1278.71	1344.75
1280.02	1349.13
1281.32	1360.33
1282.63	1371.54
1283.94	1386.42
1285.24	1412.9
1286.55	1435.55
1287.86	1447.95
1289.16	1461.55
1290.47	1486.54
1291.78	1528.65
1293.08	1547.44
1294.39	1571.26
1295.7	1601.1
1297	1605.09
1298.31	1614.57
1299.62	1634.11
1300.92	1693.04
1302.23	1692.89
1303.54	1736.78
1304.84	1760.81
1306.15	1773.98
1307.46	1817.57
1308.76	1822.74
1310.07	1859.9
1311.38	1888.33
1312.68	1937.75
1313.99	1981.36
1315.3	2009.89
1316.6	2038.02
1317.91	2063.87
1319.22	2099.46
1320.52	2142.43
1321.83	2143.68
1323.14	2214.8
1324.44	2221.9
1325.75	2271.62
1327.06	2299.11
1328.36	2324.8
1329.67	2360.87
1330.98	2412.67
1332.28	2447.81
1333.59	2465.96
1334.9	2477.47
1336.2	2514.63
1337.51	2534.33
1338.82	2568.38
1340.12	2582.23
1341.43	2577.45
1342.74	2598.08
1344.04	2611.39
1345.35	2619.21
1346.66	2635.12
1347.96	2664.09
1349.27	2641.7
1350.58	2628.69
1351.88	2640.84
1353.19	2630.92
1354.5	2633.02
1355.8	2628.1
1357.11	2588.5
1358.42	2594.83
1359.72	2580.41
1361.03	2565.56
1362.34	2558
1363.64	2549.81
1364.95	2532.55
1366.26	2488.34
1367.56	2477.29
1368.87	2451.25
1370.18	2430.99
1371.48	2387.98
1372.79	2349.67
1374.1	2331.89
1375.4	2292.71
1376.71	2299.15
1378.02	2250.57
1379.32	2207.45
1380.63	2195.19
1381.94	2167.34
1383.24	2141.81
1384.55	2122.94
1385.86	2106.52
1387.16	2092.22
1388.47	2049.98
1389.78	2034.27
1391.08	2020.23
1392.39	1974.21
1393.7	1947.21
1395	1927.53
1396.31	1893.5
1397.62	1887.21
1398.92	1867.48
1400.23	1832.49
1401.54	1812.34
1402.84	1812.09
1404.15	1784.92
1405.46	1773.71
1406.76	1742.18
1408.07	1710.36
1409.38	1709.5
1410.68	1699.97
1411.99	1689.6
1413.3	1667.02
1414.6	1623.47
1415.91	1631.42
1417.22	1622.77
1418.52	1609.91
1419.83	1604.12
1421.14	1588.29
1422.44	1594.35
1423.75	1581.32
1425.06	1579.38
1426.36	1538.82
1427.67	1565.26
1428.98	1538.66
1430.28	1540.88
1431.59	1506.76
1432.9	1517.63
1434.2	1520.93
1435.51	1504.86
1436.82	1490.3
1438.12	1479.71
1439.43	1477.61
1440.74	1476.89
1442.04	1477.36
1443.35	1469.88
1444.66	1471.17
1445.96	1464.73
1447.27	1456.03
1448.58	1446.38
1449.88	1435.48
1451.19	1454.45
1452.5	1477.8
1453.8	1441.78
1455.11	1427.54
1456.42	1437.89
1457.72	1450.91
1459.03	1423.63
1460.34	1413.19
1461.64	1423.76
1462.95	1406.37
1464.26	1421.84
1465.56	1435.75
1466.87	1418.48
1468.18	1418.92
1469.48	1414.61
1470.79	1426.36
1472.1	1421.9
1473.41	1428.14
1474.71	1412.48
1476.02	1433.34
1477.33	1430.4
1478.63	1417.58
1479.94	1440.65
1481.25	1438.42
1482.55	1417.09
1483.86	1455.51
1485.17	1440.5
1486.47	1445.24
1487.78	1440.96
1489.09	1438.04
1490.39	1431.32
1491.7	1435.79
1493.01	1442.52
1494.31	1443.14
1495.62	1454.13
1496.93	1451.35
1498.23	1427.93
1499.54	1436.65
1500.85	1436.43
1502.15	1435.68
1503.46	1434.14
1504.77	1437.16
1506.07	1448.21
1507.38	1421.2
1508.69	1442.56
1509.99	1434.29
1511.3	1468.68
1512.61	1495.38
1513.91	1485.6
1515.22	1457.49
1516.53	1474.97
1517.83	1478.79
1519.14	1494.15
1520.45	1493.4
1521.75	1495.6
1523.06	1530.29
1524.37	1523.46
1525.67	1526.74
1526.98	1538.25
1528.29	1548.2
1529.59	1553.34
1530.9	1548.13
1532.21	1554.62
1533.51	1558.25
1534.82	1574.93
1536.13	1598.47
1537.43	1626.19
1538.74	1637.4
1540.05	1632.88
1541.35	1645.79
1542.66	1695.69
1543.97	1687.15
1545.27	1714.06
1546.58	1763.56
1547.89	1763.67
1549.19	1790.31
1550.5	1820.12
1551.81	1830.03
1553.11	1858.78
1554.42	1876.26
1555.73	1926.05
1557.03	1968.92
1558.34	1980.93
1559.65	2017.74
1560.95	2038.8
1562.26	2047.65
1563.57	2066.21
1564.87	2114.99
1566.18	2140.38
1567.49	2172.42
1568.79	2208.82
1570.1	2239.56
1571.41	2309.24
1572.71	2281.76
1574.02	2338.84
1575.33	2363.19
1576.63	2396.49
1577.94	2494.33
1579.25	2525.24
1580.55	2536.9
1581.86	2521.44
1583.17	2597.26
1584.47	2610.15
1585.78	2624.58
1587.09	2658.23
1588.39	2700.2
1589.7	2722.36
1591.01	2718.4
1592.31	2733.93
1593.62	2758.56
1594.93	2752.18
1596.23	2759.19
1597.54	2749.43
1598.85	2789.26
1600.15	2748.93
1601.46	2747.33
1602.77	2705.39
1604.07	2698.34
1605.38	2703.19
1606.69	2679.38
1607.99	2655.14
1609.3	2599.42
1610.61	2600.46
1611.91	2594.51
1613.22	2520.67
1614.53	2467.48
1615.83	2438.16
1617.14	2427.89
1618.45	2368.85
1619.75	2286.34
1621.06	2260.59
1622.37	2205.34
1623.67	2154.73
1624.98	2101.75
1626.29	2057.6
1627.59	1986.23
1628.9	1920.18
1630.21	1862.89
1631.51	1836.72
1632.82	1786.37
1634.13	1723.28
1635.43	1652.19
1636.74	1594.81
1638.05	1562.33
1639.35	1482.95
1640.66	1442.02
1641.97	1423.07
1643.27	1354.88
1644.58	1315.8
1645.89	1265.88
1647.19	1229.68
1648.5	1202.57
1649.81	1148.4
1651.11	1102.85
1652.42	1056.46
1653.73	1053.05
1655.03	997.716
1656.34	947.695
1657.65	926.842
1658.95	879.229
1660.26	841.565
1661.57	808.097
1662.87	779.028
1664.18	772.445
1665.49	747.694
1666.79	707.95
1668.1	694.527
1669.41	656.732
1670.71	647.44
1672.02	612.556
1673.33	619.139
1674.63	579.728
1675.94	583.265
1677.25	528.234
1678.55	521.13
1679.86	496.296
1681.17	478.106
1682.47	474.155
1683.78	475.507
1685.09	450.206
1686.4	438.772
1687.7	432.009
1689.01	409.679
1690.32	413.34
1691.62	396.153
1692.93	391.388
1694.24	376.977
1695.54	363.96
1696.85	346.091
1698.16	344.12
1699.46	351.35
1700.77	355.558
1702.08	341.888
1703.38	313.428
1704.69	318.669
1706	317.978
1707.3	320.793
1708.61	296.658
1709.92	293.833
1711.22	301.886
1712.53	292.812
1713.84	288.554
1715.14	273.164
1716.45	271.469
1717.76	267.766
1719.06	259.081
1720.37	254.733
1721.68	256.974
1722.98	260.779
1724.29	248.311
1725.6	243.576
1726.9	250.117
1728.21	244.228
1729.52	239.169
1730.82	234.114
1732.13	243.881
1733.44	245.924
1734.74	232.332
1736.05	227.395
1737.36	222.786
1738.66	225.501
1739.97	221.447
1741.28	228.256
1742.58	224.13
1743.89	222.171
1745.2	216.261
1746.5	213.608
1747.81	206.149
1749.12	214.606
1750.42	209.056
1751.73	213.482
1753.04	205.705
1754.34	209.649
1755.65	200.231
1756.96	202.513
1758.26	197.697
1759.57	202.437
1760.88	211.556
1762.18	213.572
1763.49	196.404
1764.8	203.063
1766.1	210.543
1767.41	196.902
1768.72	199.808
1770.02	194.759
1771.33	201.459
1772.64	200.135
1773.94	189.393
1775.25	198.642
1776.56	194.864
1777.86	185.304
1779.17	183.815
1780.48	196.182
1781.78	188.889
1783.09	185.51
1784.4	194.071
1785.7	190.231
1787.01	183.34
1788.32	197.578
1789.62	198.217
1790.93	186.957
1792.24	181.109
1793.54	182.053
1794.85	186.158
1796.16	179.21
1797.46	187.839
1798.77	183.044
1800.08	194.439
1801.38	187.457
1802.69	190.67
1804	181.848
1805.3	192.744
1806.61	191.435
1807.92	187.523
1809.22	179.907
1810.53	188.917
1811.84	193.629
1813.14	185.328
1814.45	167.265
1815.76	183.607
1817.06	177.643
1818.37	166.288
1819.68	184.825
1820.98	177.17
1822.29	184.995
1823.6	178.076
1824.9	180.278
1826.21	191.536
1827.52	181.1
1828.82	180.192
1830.13	184.349
1831.44	173.532
1832.74	192.763
1834.05	185.812
1835.36	180.935
1836.66	190.912
1837.97	182.34
1839.28	182.959
1840.58	183.1
1841.89	190.201
1843.2	188.5
1844.5	187.589
1845.81	174.472
1847.12	182.946
1848.42	183.215
1849.73	184.57
1851.04	181.378
1852.34	182.244
1853.65	181.716
1854.96	188.033
1856.26	187.071
1857.57	181.696
1858.88	182.943
1860.18	186.19
1861.49	170.94
1862.8	191.385
1864.1	185.82
1865.41	180.789
1866.72	175.818
1868.02	175.254
1869.33	179.122
1870.64	178.292
1871.94	176.424
1873.25	191.717
1874.56	185.452
1875.86	191.019
1877.17	179.875
1878.48	177.813
1879.78	187.531
1881.09	183.424
1882.4	180.888
1883.7	181.296
1885.01	184.958
1886.32	183.957
1887.62	173.95
1888.93	187.42
1890.24	169.099
1891.54	177.656
1892.85	182.897
1894.16	195.034
1895.47	185.808
1896.77	175.848
1898.08	176.909
1899.39	181.121
1900.69	182.493
1902	184.258
1903.31	190.457
1904.61	193.444
1905.92	189.512
1907.23	183.874
1908.53	186.401
1909.84	176.257
1911.15	174.438
1912.45	192.374
1913.76	185.006
1915.07	174.381
1916.37	176.391
1917.68	181.688
1918.99	182.868
1920.29	173.738
1921.6	173.626
1922.91	183.851
1924.21	187.209
1925.52	192.196
1926.83	179.166
1928.13	194.554
1929.44	195.232
1930.75	184.421
1932.05	189.881
1933.36	182.539
1934.67	168.88
1935.97	176.385
1937.28	181.928
1938.59	176.844
1939.89	182.307
1941.2	195.064
1942.51	186.241
1943.81	198.197
1945.12	180.507
1946.43	185.367
1947.73	185.508
1949.04	181.907
1950.35	180.071
1951.65	178.642
1952.96	168.093
1954.27	183.1
1955.57	190.637
1956.88	178.696
1958.19	175.827
1959.49	175.933
1960.8	189.543
1962.11	190.959
1963.41	190.647
1964.72	191.804
1966.03	187.31
1967.33	188.693
1968.64	181.799
1969.95	188.632
1971.25	182.052
1972.56	185.622
1973.87	182.771
1975.17	186.034
1976.48	183.091
1977.79	189.62
1979.09	180.473
1980.4	195.217
1981.71	191.11
1983.01	186.707
1984.32	188.139
1985.63	185.305
1986.93	184.221
1988.24	186.838
1989.55	201.672
1990.85	205.15
1992.16	513.747
1993.47	208.26
1994.77	195.222
1996.08	191.006
1997.39	197.311
1998.69	204.298
2000	201.263