File: Example Data/Raman/CNT - TIM/Raytheon/Al foil/2011/03-21-11/Al - 8micron - B3 - MW - 5min - top_1.txt
300	127.583
301.307	130.924
302.613	141.528
303.92	157.138
305.227	164.941
306.533	161.998
307.84	168.844
309.147	193.448
310.453	190.993
311.76	192.96
313.067	189.496
314.374	201.292
315.68	205.452
316.987	197.593
318.294	195.074
319.6	196.832
320.907	190.599
322.214	188.144
323.52	186.106
324.827	180.23
326.134	177.62
327.44	175.025
328.747	179.587
330.054	183.586
331.361	173.548
332.667	178.652
333.974	179.995
335.281	174.425
336.587	173.947
337.894	166.498
339.201	161.846
340.507	167.03
341.814	167.387
343.121	162.527
344.427	180.982
345.734	189.77
347.041	186.185
348.347	168.354
349.654	178.137
350.961	182.5
352.267	181.689
353.574	176.292
354.881	175.863
356.188	182.177
357.494	166.834
358.801	170.496
360.108	162.192
361.414	163.146
362.721	168.366
364.028	175.821
365.334	177.049
366.641	171.143
367.948	170.797
369.254	179.021
370.561	170.099
371.868	178.762
373.174	179.662
374.481	156.836
375.788	155.762
377.095	161.163
378.401	163.883
379.708	156.148
381.015	150.475
382.321	162.694
383.628	159.529
384.935	165.642
386.241	157.077
387.548	157.063
388.855	167.795
390.161	166.764
391.468	163.5
392.775	160.881
394.081	153.324
395.388	148.729
396.695	161.161
398.002	156.913
399.308	153.983
400.615	151.88
401.922	139.386
403.228	134.841
404.535	142.974
405.842	157.848
407.148	157.748
408.455	147.389
409.762	171.061
411.068	157.951
412.375	165.173
413.682	147.155
414.988	166.513
416.295	159.975
417.602	155.948
418.909	149.469
420.215	145.601
421.522	159.187
422.829	167.818
424.135	148.951
425.442	152.977
426.749	149.355
428.055	156.76
429.362	155.067
430.669	155.479
431.975	148.749
433.282	146.738
434.589	153.531
435.895	155.697
437.202	156.83
438.509	151.65
439.816	146.889
441.122	146.09
442.429	132.614
443.736	139.072
445.042	146.209
446.349	146.087
447.656	144.041
448.962	145.136
450.269	144.316
451.576	132.001
452.882	130.693
454.189	134.099
455.496	135.552
456.802	145.65
458.109	132.549
459.416	145.042
460.723	150.812
462.029	141.595
463.336	140.383
464.643	141.234
465.949	133.627
467.256	118.227
468.563	122.098
469.869	136.017
471.176	133.296
472.483	139.298
473.789	137.496
475.096	127.524
476.403	120.393
477.709	118.316
479.016	113.804
480.323	106.279
481.63	108.926
482.936	108.014
484.243	118.334
485.55	114.437
486.856	110.54
488.163	102.351
489.47	105.244
490.776	118.261
492.083	121.801
493.39	108.478
494.696	97.5538
496.003	103.55
497.31	102.126
498.616	106.233
499.923	87.2723
501.23	82.2703
502.536	91.484
503.843	94.3567
505.15	91.9696
506.457	93.5247
507.763	93.4056
509.07	86.5134
510.377	88.6443
511.683	91.4671
512.99	88.5116
514.297	92.8602
515.603	87.415
516.91	75.7591
518.217	87.2179
519.523	93.7328
520.83	86.1603
522.137	81.4252
523.443	86.4895
524.75	87.7704
526.057	78.0989
527.364	72.2041
528.67	85.729
529.977	85.9792
531.284	80.1599
532.59	80.6912
533.897	84.7679
535.204	80.7657
536.51	77.5088
537.817	84.191
539.124	88.8182
540.43	82.5113
541.737	86.5313
543.044	101.599
544.351	102.218
545.657	87.7288
546.964	82.8945
548.271	93.7079
549.577	98.2183
550.884	97.9797
552.191	103.799
553.497	104.688
554.804	96.4261
556.111	92.4916
557.417	93.4332
558.724	90.2917
560.031	89.1034
561.337	90.7161
562.644	88.7198
563.951	99.1984
565.258	96.6598
566.564	92.8332
567.871	94.9892
569.178	88.9534
570.484	82.8374
571.791	94.3892
573.098	108.779
574.404	103.902
575.711	108.426
577.018	114.137
578.324	97.0566
579.631	92.4858
580.938	101.989
582.244	97.7828
583.551	100.969
584.858	105.07
586.164	106.894
587.471	99.3744
588.778	91.2855
590.085	103.702
591.391	118.011
592.698	104.735
594.005	128.096
595.311	117.921
596.618	98.8759
597.925	110.566
599.231	112.11
600.538	102.149
601.845	104.026
603.151	102.209
604.458	99.4567
605.765	105.516
607.071	108.303
608.378	106.719
609.685	121.503
610.992	126.432
612.298	94.1953
613.605	119.22
614.912	105.987
616.218	114.3
617.525	114.176
618.832	121.546
620.138	124.123
621.445	116.628
622.752	120.843
624.058	128.254
625.365	123.213
626.672	128.272
627.978	126.205
629.285	149.86
630.592	121.607
631.899	126.024
633.205	124.267
634.512	124.203
635.819	129.073
637.125	121.851
638.432	120.509
639.739	128.36
641.045	124.11
642.352	116.108
643.659	122.61
644.965	130.2
646.272	136.312
647.579	122.56
648.885	123.433
650.192	131.355
651.499	134.469
652.806	120.584
654.112	124.614
655.419	136.092
656.726	131.157
658.032	126.97
659.339	137.42
660.646	138.387
661.952	125.532
663.259	127.796
664.566	139.707
665.872	137.037
667.179	131.302
668.486	121.962
669.792	131.768
671.099	139.98
672.406	129.961
673.713	141.659
675.019	142.815
676.326	136.542
677.633	136.972
678.939	141.333
680.246	145.075
681.553	146.662
682.859	148.125
684.166	153.593
685.473	151.7
686.779	136.075
688.086	128.754
689.393	151.384
690.699	139.215
692.006	150.855
693.313	132.025
694.62	142.443
695.926	130.084
697.233	140.807
698.54	149.225
699.846	141.422
701.153	140.832
702.46	142.626
703.766	137.399
705.073	147.672
706.38	154.184
707.686	128.039
708.993	138.149
710.3	142.862
711.606	133.701
712.913	137.941
714.22	141.833
715.526	135.936
716.833	154.295
718.14	163.642
719.447	154.172
720.753	149.917
722.06	160.072
723.367	166.157
724.673	155.116
725.98	148.199
727.287	164.151
728.593	164.112
729.9	153.024
731.207	144.582
732.513	153.464
733.82	142.397
735.127	175.062
736.434	173.02
737.74	162.86
739.047	164.364
740.354	161.723
741.66	162.654
742.967	167.74
744.274	173.296
745.58	166.258
746.887	165.485
748.194	185.001
749.5	175.357
750.807	165.156
752.114	187.004
753.42	173.013
754.727	187.979
756.034	199.31
757.341	184.179
758.647	174.257
759.954	173.41
761.261	194.921
762.567	190.49
763.874	192.226
765.181	186.479
766.487	188.859
767.794	187.966
769.101	183.854
770.407	190.492
771.714	190.75
773.021	193.881
774.327	213.899
775.634	207.51
776.941	190.115
778.247	184.335
779.554	192.2
780.861	189.355
782.168	196.785
783.474	176.415
784.781	205.563
786.088	204.725
787.394	191.577
788.701	205.774
790.008	210.517
791.314	190.254
792.621	195.833
793.928	206.869
795.234	202.922
796.541	204.109
797.848	191.883
799.154	203.416
800.461	222.279
801.768	213.298
803.075	218.314
804.381	222.41
805.688	207.582
806.995	226.602
808.301	220.024
809.608	202.721
810.915	218.433
812.221	227.701
813.528	228.002
814.835	273.231
816.141	583.773
817.448	742.099
818.755	465.574
820.061	224.956
821.368	226.676
822.675	237.547
823.982	237.717
825.288	218.038
826.595	226.004
827.902	244.455
829.208	228.846
830.515	239.795
831.822	231.587
833.128	232.935
834.435	227.681
835.742	237.402
837.048	235.401
838.355	244.349
839.662	244.087
840.969	252.398
842.275	240.511
843.582	232.53
844.889	234.033
846.195	244.536
847.502	238.856
848.809	236.56
850.115	248.593
851.422	248.168
852.729	242.967
854.035	247.603
855.342	262.418
856.649	259.858
857.955	245.163
859.262	261.175
860.569	252.956
861.875	241.223
863.182	259.314
864.489	239.187
865.796	230.63
867.102	237.74
868.409	236.009
869.716	241.117
871.022	251.829
872.329	235.466
873.636	223.408
874.942	219.97
876.249	225.545
877.556	227.233
878.862	231.101
880.169	224.959
881.476	217.463
882.782	223.047
884.089	229.887
885.396	240.022
886.703	226.55
888.009	212.557
889.316	213.5
890.623	216.555
891.929	228.809
893.236	211.799
894.543	218.497
895.849	201.68
897.156	211.554
898.463	221.887
899.769	229.978
901.076	219.67
902.383	220.082
903.689	204.589
904.996	209.423
906.303	211.707
907.61	214.936
908.916	211.941
910.223	211.807
911.53	206.006
912.836	206.467
914.143	208.578
915.45	209.433
916.756	215.555
918.063	215.769
919.37	212.491
920.676	218.365
921.983	225.095
923.29	216.231
924.596	206.609
925.903	206.046
927.21	214.118
928.517	221.973
929.823	211.626
931.13	209.166
932.437	222.27
933.743	229.998
935.05	227.579
936.357	203.164
937.663	206.47
938.97	207.436
940.277	230.377
941.583	218.8
942.89	215.582
944.197	207.749
945.503	207.855
946.81	216.001
948.117	227.234
949.424	224.672
950.73	216.66
952.037	219.185
953.344	219.143
954.65	216.499
955.957	217.617
957.264	220.723
958.57	226.144
959.877	223.725
961.184	227.006
962.49	242.404
963.797	232.545
965.104	233.98
966.41	236.534
967.717	238.146
969.024	235.756
970.331	229.862
971.637	245.215
972.944	234.686
974.251	252.291
975.557	248.919
976.864	236.086
978.171	241.189
979.477	263.138
980.784	235.222
982.091	272.599
983.397	264.144
984.704	261.429
986.011	255.848
987.317	258.375
988.624	270.757
989.931	268.527
991.237	283.148
992.544	266.562
993.851	271.083
995.158	264.342
996.464	265.592
997.771	269.29
999.078	281.718
1000.38	296.82
1001.69	294.587
1003	289.77
1004.3	291.237
1005.61	284.101
1006.92	288.565
1008.22	305.604
1009.53	307.03
1010.84	316.152
1012.14	322.568
1013.45	314.044
1014.76	315.966
1016.06	313.717
1017.37	324.648
1018.68	333.652
1019.98	332.839
1021.29	338.869
1022.6	349.255
1023.9	357.076
1025.21	354.18
1026.52	349.454
1027.82	342.999
1029.13	359.42
1030.44	352.491
1031.74	361.86
1033.05	380.114
1034.36	388.441
1035.66	385.577
1036.97	397.445
1038.28	389.578
1039.58	386.019
1040.89	423.965
1042.2	427.81
1043.51	417.624
1044.81	409.881
1046.12	411.436
1047.43	413.414
1048.73	420.269
1050.04	431.856
1051.35	432.293
1052.65	434.641
1053.96	461.392
1055.27	458.018
1056.57	448.537
1057.88	466.096
1059.19	451.563
1060.49	444.754
1061.8	452.214
1063.11	456.12
1064.41	448.988
1065.72	450.726
1067.03	469.788
1068.33	473.107
1069.64	468.731
1070.95	486.946
1072.25	507.789
1073.56	505.529
1074.87	498.344
1076.17	505.571
1077.48	528.693
1078.79	534.826
1080.09	513.899
1081.4	509.267
1082.71	517.545
1084.01	514.557
1085.32	508.602
1086.63	538.602
1087.93	549.253
1089.24	550.203
1090.55	532.839
1091.85	530.739
1093.16	523.843
1094.47	541.781
1095.77	554.54
1097.08	568.788
1098.39	563.404
1099.69	584.268
1101	576.126
1102.31	553.836
1103.61	557.074
1104.92	578.485
1106.23	604.469
1107.53	596.962
1108.84	604.161
1110.15	612.008
1111.45	613.298
1112.76	630.023
1114.07	643.614
1115.37	631.406
1116.68	624.773
1117.99	658.702
1119.29	657.154
1120.6	665.736
1121.91	672.558
1123.21	694.074
1124.52	684.953
1125.83	670.906
1127.13	670.029
1128.44	693.075
1129.75	700.929
1131.05	724.254
1132.36	727.592
1133.67	715.588
1134.97	738.178
1136.28	727.066
1137.59	755.457
1138.89	769.243
1140.2	797.708
1141.51	771.479
1142.81	791.622
1144.12	818.401
1145.43	833.826
1146.73	830.882
1148.04	809.461
1149.35	838.616
1150.65	846.457
1151.96	857.201
1153.27	881.761
1154.57	899.023
1155.88	872.329
1157.19	886.561
1158.49	900.792
1159.8	885.567
1161.11	932.813
1162.41	892.823
1163.72	936.34
1165.03	944.087
1166.33	932.938
1167.64	937.356
1168.95	953.476
1170.25	938.232
1171.56	957.863
1172.87	982.188
1174.17	992.112
1175.48	988.291
1176.79	978.419
1178.09	1006.92
1179.4	1000.73
1180.71	1017.2
1182.01	1006.22
1183.32	1016.72
1184.63	1030.26
1185.93	1032.46
1187.24	1040.88
1188.55	1042.35
1189.85	1045.79
1191.16	1041.69
1192.47	1044.78
1193.77	1051.93
1195.08	1079.24
1196.39	1102.51
1197.69	1080.63
1199	1072.96
1200.31	1072.99
1201.61	1075.37
1202.92	1111.02
1204.23	1098.13
1205.53	1105.75
1206.84	1122.91
1208.15	1116.13
1209.45	1133.21
1210.76	1152.85
1212.07	1162.83
1213.37	1169.63
1214.68	1190.94
1215.99	1203.69
1217.29	1183.52
1218.6	1218.32
1219.91	1219.61
1221.21	1228.75
1222.52	1234.14
1223.83	1243.01
1225.13	1231.1
1226.44	1262.06
1227.75	1261.02
1229.05	1280.25
1230.36	1311.86
1231.67	1294.26
1232.97	1333.51
1234.28	1371.76
1235.59	1337.54
1236.89	1348.12
1238.2	1349.69
1239.51	1369.84
1240.81	1394.22
1242.12	1404.15
1243.43	1427.73
1244.73	1417.72
1246.04	1448.35
1247.35	1457.57
1248.65	1496.91
1249.96	1495.72
1251.27	1492.66
1252.57	1555.21
1253.88	1536.01
1255.19	1545.02
1256.49	1570.01
1257.8	1598.51
1259.11	1609.86
1260.42	1641.9
1261.72	1649.02
1263.03	1647.09
1264.34	1661.49
1265.64	1694.04
1266.95	1732.08
1268.26	1753.14
1269.56	1761.37
1270.87	1799.41
1272.18	1830.78
1273.48	1825.01
1274.79	1855.95
1276.1	1872.97
1277.4	1881.37
1278.71	1916.29
1280.02	1956.57
1281.32	1981.54
1282.63	2003.69
1283.94	2027.14
1285.24	2051.66
1286.55	2075.52
1287.86	2097.06
1289.16	2117.84
1290.47	2132.96
1291.78	2179.51
1293.08	2209.78
1294.39	2241.58
1295.7	2283.2
1297	2298.81
1298.31	2347.79
1299.62	2369.6
1300.92	2402.9
1302.23	2434.98
1303.54	2459.21
1304.84	2511.79
1306.15	2549.91
1307.46	2587.33
1308.76	2587.77
1310.07	2601.57
1311.38	2652.72
1312.68	2696.34
1313.99	2767.16
1315.3	2790.24
1316.6	2829.6
1317.91	2849.94
1319.22	2886.66
1320.52	2919.02
1321.83	2963.18
1323.14	3021.27
1324.44	3064.5
1325.75	3048.81
1327.06	3090.42
1328.36	3100.15
1329.67	3148.54
1330.98	3186.25
1332.28	3213.66
1333.59	3219.04
1334.9	3252.96
1336.2	3260.7
1337.51	3301.42
1338.82	3299.82
1340.12	3288.6
1341.43	3343.51
1342.74	3371.82
1344.04	3331.43
1345.35	3344.31
1346.66	3352.76
1347.96	3358.12
1349.27	3330.2
1350.58	3319.87
1351.88	3345.46
1353.19	3306.95
1354.5	3310.28
1355.8	3308.27
1357.11	3285.85
1358.42	3247.18
1359.72	3228.15
1361.03	3226.2
1362.34	3211.38
1363.64	3174.2
1364.95	3142.64
1366.26	3098.19
1367.56	3104.14
1368.87	3056.08
1370.18	3066.57
1371.48	3057.83
1372.79	2998.59
1374.1	2996.85
1375.4	2956.45
1376.71	2942.1
1378.02	2915.96
1379.32	2874.3
1380.63	2844.08
1381.94	2824.22
1383.24	2785.36
1384.55	2745.44
1385.86	2707.4
1387.16	2698.38
1388.47	2674.89
1389.78	2630.51
1391.08	2582.39
1392.39	2567.75
1393.7	2543.22
1395	2522.45
1396.31	2491.18
1397.62	2470.59
1398.92	2427.92
1400.23	2411.1
1401.54	2394.93
1402.84	2361.66
1404.15	2338.84
1405.46	2294.61
1406.76	2294.8
1408.07	2273.12
1409.38	2236.09
1410.68	2252.13
1411.99	2227.12
1413.3	2197.1
1414.6	2188.32
1415.91	2183.77
1417.22	2162.09
1418.52	2157.93
1419.83	2112.18
1421.14	2100.32
1422.44	2106.57
1423.75	2097.46
1425.06	2081.16
1426.36	2059.33
1427.67	2033.62
1428.98	2025.35
1430.28	2020.87
1431.59	1988.94
1432.9	1989.81
1434.2	1980.09
1435.51	1976.87
1436.82	1969.67
1438.12	1958.65
1439.43	1963.26
1440.74	1962.55
1442.04	1946.37
1443.35	1950.92
1444.66	1947.35
1445.96	1926.3
1447.27	1919.88
1448.58	1909.53
1449.88	1903.39
1451.19	1912.16
1452.5	1902.62
1453.8	1895.54
1455.11	1871.76
1456.42	1898.55
1457.72	1901.66
1459.03	1872.8
1460.34	1897.2
1461.64	1884.91
1462.95	1855.46
1464.26	1860.7
1465.56	1870.64
1466.87	1859.54
1468.18	1870.69
1469.48	1857.07
1470.79	1868.43
1472.1	1883.04
1473.41	1891.48
1474.71	1867.7
1476.02	1859.21
1477.33	1871.11
1478.63	1889.91
1479.94	1852.92
1481.25	1873.3
1482.55	1900.62
1483.86	1872.67
1485.17	1864.58
1486.47	1855.93
1487.78	1873.26
1489.09	1891.98
1490.39	1863.85
1491.7	1859.39
1493.01	1860.14
1494.31	1880.01
1495.62	1883.13
1496.93	1871.71
1498.23	1866.83
1499.54	1857.85
1500.85	1858.37
1502.15	1882.54
1503.46	1878.53
1504.77	1882.68
1506.07	1882.2
1507.38	1875.4
1508.69	1898.89
1509.99	1896.51
1511.3	1900.57
1512.61	1929.15
1513.91	1904.66
1515.22	1893.23
1516.53	1883.61
1517.83	1915.68
1519.14	1937
1520.45	1947.23
1521.75	1939.7
1523.06	1942.26
1524.37	1968.23
1525.67	1951.89
1526.98	1961.74
1528.29	2002.94
1529.59	2015.32
1530.9	2002.88
1532.21	1996.96
1533.51	2014.44
1534.82	2034.44
1536.13	2041.31
1537.43	2052.89
1538.74	2060.14
1540.05	2095.4
1541.35	2121.2
1542.66	2143.14
1543.97	2143.75
1545.27	2175.19
1546.58	2178.92
1547.89	2225.79
1549.19	2243.9
1550.5	2279.12
1551.81	2286.74
1553.11	2316.54
1554.42	2322.86
1555.73	2347.52
1557.03	2392.04
1558.34	2445.34
1559.65	2496.62
1560.95	2526.87
1562.26	2521.56
1563.57	2567.73
1564.87	2589.36
1566.18	2623.33
1567.49	2671.56
1568.79	2700.57
1570.1	2721.46
1571.41	2752.7
1572.71	2854.21
1574.02	2869.35
1575.33	2945.99
1576.63	2957.81
1577.94	2998.9
1579.25	3088.32
1580.55	3110.42
1581.86	3157.56
1583.17	3206.1
1584.47	3259.32
1585.78	3295.08
1587.09	3366.48
1588.39	3400.82
1589.7	3408.25
1591.01	3444.16
1592.31	3499.18
1593.62	3487.24
1594.93	3515.81
1596.23	3533.45
1597.54	3579.68
1598.85	3578.61
1600.15	3556.2
1601.46	3526.58
1602.77	3579.76
1604.07	3488.82
1605.38	3504.06
1606.69	3502.84
1607.99	3478.05
1609.3	3392.5
1610.61	3372.64
1611.91	3326.73
1613.22	3260.9
1614.53	3214.58
1615.83	3125.15
1617.14	3046.09
1618.45	3015.18
1619.75	2900.25
1621.06	2823.69
1622.37	2763.72
1623.67	2683.12
1624.98	2583.92
1626.29	2493.67
1627.59	2399.44
1628.9	2345.6
1630.21	2306.02
1631.51	2189.03
1632.82	2114.96
1634.13	2033.12
1635.43	1976.74
1636.74	1915.97
1638.05	1841.5
1639.35	1797.14
1640.66	1726.79
1641.97	1636.18
1643.27	1607.24
1644.58	1550.93
1645.89	1501.27
1647.19	1438.23
1648.5	1414.58
1649.81	1349
1651.11	1327.26
1652.42	1271.56
1653.73	1246.58
1655.03	1176.98
1656.34	1137.38
1657.65	1097.32
1658.95	1062.26
1660.26	1019.58
1661.57	978.02
1662.87	945.485
1664.18	923.635
1665.49	908.017
1666.79	860.25
1668.1	837.978
1669.41	794.635
1670.71	759.281
1672.02	766.181
1673.33	709.84
1674.63	712.481
1675.94	686.173
1677.25	660.925
1678.55	619.341
1679.86	589.919
1681.17	593.592
1682.47	573.42
1683.78	546.364
1685.09	544
1686.4	550.536
1687.7	520.044
1689.01	495.003
1690.32	497.592
1691.62	492.602
1692.93	468.651
1694.24	456.687
1695.54	428.994
1696.85	404.633
1698.16	425.203
1699.46	422.68
1700.77	405
1702.08	391.339
1703.38	388.787
1704.69	397.771
1706	377.336
1707.3	374.155
1708.61	348.615
1709.92	355.677
1711.22	363.318
1712.53	352.652
1713.84	325.148
1715.14	326.227
1716.45	333.13
1717.76	319.402
1719.06	317.345
1720.37	313.725
1721.68	306.234
1722.98	298.691
1724.29	294.798
1725.6	298.273
1726.9	297.906
1728.21	290.151
1729.52	289.592
1730.82	281.508
1732.13	275.76
1733.44	280.617
1734.74	283.426
1736.05	279.145
1737.36	271.605
1738.66	255.112
1739.97	250.263
1741.28	254.175
1742.58	256.205
1743.89	255.937
1745.2	252.278
1746.5	239.837
1747.81	263.069
1749.12	257.976
1750.42	247.835
1751.73	241.904
1753.04	232.381
1754.34	250.968
1755.65	242.565
1756.96	227.099
1758.26	226.075
1759.57	241.707
1760.88	248.538
1762.18	234.914
1763.49	232.02
1764.8	221.551
1766.1	218.66
1767.41	237.188
1768.72	232.315
1770.02	220.403
1771.33	219.04
1772.64	233.372
1773.94	233.996
1775.25	219.08
1776.56	211.357
1777.86	214.404
1779.17	219.531
1780.48	218.691
1781.78	204.289
1783.09	231.51
1784.4	220.382
1785.7	216.633
1787.01	221.405
1788.32	214.004
1789.62	205.871
1790.93	211.609
1792.24	203.01
1793.54	209.192
1794.85	221.676
1796.16	215.552
1797.46	219.977
1798.77	208.255
1800.08	204.864
1801.38	200.539
1802.69	210.298
1804	205.903
1805.3	203.401
1806.61	205.488
1807.92	208.951
1809.22	204.906
1810.53	212.095
1811.84	199.27
1813.14	185.088
1814.45	211.709
1815.76	209.96
1817.06	209.671
1818.37	190.876
1819.68	188.644
1820.98	210
1822.29	199.483
1823.6	188.988
1824.9	200.845
1826.21	206.969
1827.52	206.039
1828.82	213.14
1830.13	188.777
1831.44	202.492
1832.74	209.197
1834.05	192.69
1835.36	208.182
1836.66	202.663
1837.97	198.252
1839.28	208.417
1840.58	202.333
1841.89	200.121
1843.2	186.09
1844.5	193.806
1845.81	196.577
1847.12	187.253
1848.42	198.229
1849.73	192.709
1851.04	186.857
1852.34	193.878
1853.65	198.96
1854.96	197.609
1856.26	197.916
1857.57	203.862
1858.88	194.348
1860.18	198.357
1861.49	180.349
1862.8	200.297
1864.1	199.511
1865.41	184.451
1866.72	173.426
1868.02	185.706
1869.33	201.71
1870.64	197.462
1871.94	191.695
1873.25	192.617
1874.56	188.94
1875.86	173.451
1877.17	194.183
1878.48	196.892
1879.78	187.538
1881.09	200.251
1882.4	196.119
1883.7	194.682
1885.01	202.811
1886.32	206.607
1887.62	184.307
1888.93	191.077
1890.24	189.691
1891.54	196.053
1892.85	189.872
1894.16	185.546
1895.47	202.06
1896.77	195.487
1898.08	190.303
1899.39	184.23
1900.69	200.403
1902	193.517
1903.31	186.389
1904.61	192.671
1905.92	190.369
1907.23	177.408
1908.53	190.258
1909.84	188.147
1911.15	193.074
1912.45	196.299
1913.76	184.929
1915.07	188.654
1916.37	190.355
1917.68	177.618
1918.99	187.155
1920.29	188.163
1921.6	179.472
1922.91	185.06
1924.21	192.803
1925.52	193.759
1926.83	191.752
1928.13	186.081
1929.44	184.387
1930.75	191.577
1932.05	192.414
1933.36	197.618
1934.67	187.747
1935.97	175.465
1937.28	187.081
1938.59	180.068
1939.89	201.365
1941.2	181.612
1942.51	186.342
1943.81	180.038
1945.12	194.329
1946.43	182.798
1947.73	193.58
1949.04	194.633
1950.35	187.118
1951.65	189.044
1952.96	197.549
1954.27	186.19
1955.57	183.715
1956.88	195.965
1958.19	211.002
1959.49	184.891
1960.8	192.45
1962.11	191.344
1963.41	194.361
1964.72	201.355
1966.03	200.966
1967.33	194.125
1968.64	214.615
1969.95	192.47
1971.25	192.777
1972.56	200.134
1973.87	190.289
1975.17	198.986
1976.48	186.794
1977.79	195.523
1979.09	204.444
1980.4	208.85
1981.71	201.762
1983.01	208.146
1984.32	202.682
1985.63	200.035
1986.93	203.526
1988.24	195.369
1989.55	202.505
1990.85	182.198
1992.16	202.963
1993.47	202.301
1994.77	196.831
1996.08	205.181
1997.39	205.606
1998.69	206.266
2000	197.36