File: Example Data/Raman/CNT - TIM/Raytheon/Al foil/2011/03-21-11/Al - B31 -  bottom.txt
300	-14.9451
301.307	-14.8553
302.613	-3.81793
303.92	7.5
305.227	11.2752
306.533	14.3915
307.84	3.35363
309.147	19.5562
310.453	22.2349
311.76	30.7358
313.067	34.4909
314.374	26.7126
315.68	23.3988
316.987	22.3113
318.294	18.0312
319.6	25.6999
320.907	32.0005
322.214	11.6905
323.52	10.7104
324.827	9.82994
326.134	5.88008
327.44	9.50908
328.747	13.2863
330.054	13.9105
331.361	18.712
332.667	14.547
333.974	12.7567
335.281	15.2029
336.587	16.8779
337.894	8.72553
339.201	14.8505
340.507	19.5305
341.814	18.4367
343.121	17.5109
344.427	7.64308
345.734	17.6435
347.041	19.8846
348.347	18.937
349.654	13.3335
350.961	13.2708
352.267	13.4387
353.574	11.3268
354.881	11.8457
356.188	14.292
357.494	7.48698
358.801	10.4207
360.108	-0.351732
361.414	9.24288
362.721	16.3663
364.028	10.5122
365.334	3.5486
366.641	3.58498
367.948	6.02682
369.254	4.41139
370.561	4.22335
371.868	19.5641
373.174	5.1601
374.481	0.708357
375.788	-2.84138
377.095	-4.91587
378.401	-2.56397
379.708	2.91643
381.015	3.72357
382.321	-0.517705
383.628	7.97127
384.935	1.77558
386.241	3.80406
387.548	-6.16768
388.855	-10.2874
390.161	-8.69006
391.468	-9.31994
392.775	-9.99282
394.081	-8.25
395.388	-7.2481
396.695	-5.98354
398.002	-21.5027
399.308	-13.1636
400.615	-8.1367
401.922	-10.0032
403.228	-4.95343
404.535	-0.421405
405.842	-4.91597
407.148	-11.1464
408.455	-11.616
409.762	-15.2042
411.068	-8.73225
412.375	-20.469
413.682	-9.99274
414.988	-18.2298
416.295	-15.2006
417.602	-10.3782
418.909	-10.0802
420.215	-15.292
421.522	-17.6906
422.829	-10.4811
424.135	-20.4458
425.442	-8.80558
426.749	-17.6344
428.055	-16.8663
429.362	-1.50518
430.669	-2.0355
431.975	-4.68085
433.282	-6.94527
434.589	-12.2146
435.895	-16.2106
437.202	-18.4105
438.509	-5.13243
439.816	-27.349
441.122	-15.2348
442.429	-9.95657
443.736	-9.69462
445.042	-9.54854
446.349	-12.9484
447.656	-16.3954
448.962	-14.538
450.269	-15.3277
451.576	-27.9015
452.882	-17.9287
454.189	-12.2524
455.496	-22.1988
456.802	-16.1795
458.109	-16.2297
459.416	-27.518
460.723	-36.3904
462.029	-32.8719
463.336	-28.2439
464.643	-32.634
465.949	-26.3203
467.256	-25.4233
468.563	-28.3838
469.869	-31.5593
471.176	-31.412
472.483	-28.1223
473.789	-31.7536
475.096	-31.1198
476.403	-29.1065
477.709	-28.1072
479.016	-23.0659
480.323	-28.4463
481.63	-39.0313
482.936	-30.1355
484.243	-38.0875
485.55	-34.3419
486.856	-31.4435
488.163	-34.7218
489.47	-39.194
490.776	-45.3796
492.083	-47.2316
493.39	-42.5391
494.696	-42.6455
496.003	-35.1644
497.31	-34.8701
498.616	-46.9626
499.923	-42.409
501.23	-55.7221
502.536	-62.3908
503.843	-64.2469
505.15	-61.9332
506.457	-61.4911
507.763	-67.4046
509.07	-71.9732
510.377	-69.6443
511.683	-71.466
512.99	-58.0201
514.297	-65.573
515.603	-57.7059
516.91	-69.3009
518.217	-63.7714
519.523	-62.8188
520.83	-66.3718
522.137	-63.5818
523.443	-61.2369
524.75	-68.5453
526.057	-71.75
527.364	-54.5052
528.67	-74.2194
529.977	-67.3726
531.284	-59.2412
532.59	-68.8369
533.897	-67.4745
535.204	-65.5881
536.51	-62.3324
537.817	-62.2509
539.124	-65.9705
540.43	-65.1105
541.737	-66.3621
543.044	-58.1227
544.351	-61.4373
545.657	-58.2175
546.964	-62.0697
548.271	-60.2254
549.577	-68.8983
550.884	-64.681
552.191	-58.1598
553.497	-58.9388
554.804	-60.3087
556.111	-57.3409
557.417	-56.6683
558.724	-66.2153
560.031	-66.5465
561.337	-75.0706
562.644	-65.0992
563.951	-65.8516
565.258	-58.6175
566.564	-64.334
567.871	-53.482
569.178	-43.6382
570.484	-49.1136
571.791	-54.3465
573.098	-49.9592
574.404	-43.2981
575.711	-42.4454
577.018	-56.7164
578.324	-65.9491
579.631	-45.287
580.938	-52.1274
582.244	-46.6741
583.551	-35.5479
584.858	-33.1572
586.164	-48.1667
587.471	-61.25
588.778	-54.4211
590.085	-42.8177
591.391	-42.0056
592.698	-33.8365
594.005	-35.5538
595.311	-28.6163
596.618	-46.4645
597.925	-41.9886
599.231	-47.2122
600.538	-43.4208
601.845	-48.0978
603.151	-49.3834
604.458	-48.0098
605.765	-45.8437
607.071	-33.3251
608.378	-26.5923
609.685	-46.2343
610.992	-36.9849
612.298	-52.7682
613.605	-44.4267
614.912	-46.8586
616.218	-41.3929
617.525	-39.0808
618.832	-35.2655
620.138	-32.0207
621.445	-34.901
622.752	-39.0607
624.058	-33.3402
625.365	-27.1869
626.672	-35.0807
627.978	-29.9671
629.285	-40.2543
630.592	-42.7164
631.899	-41.3213
633.205	-30.8936
634.512	-19.3556
635.819	-27.7589
637.125	-31.1642
638.432	-37.6206
639.739	-32.4109
641.045	-23.3045
642.352	-25.0626
643.659	-32.0841
644.965	-35.1078
646.272	-25.672
647.579	-26.0993
648.885	-15.9157
650.192	-18.9445
651.499	-15.5737
652.806	-16.3072
654.112	-13.7768
655.419	-13
656.726	-17.3411
658.032	-13.1277
659.339	-8.50436
660.646	-5.43714
661.952	-8.372
663.259	-19.3257
664.566	-18.9405
665.872	-22.8497
667.179	-16.0867
668.486	-14.9149
669.792	-18.4171
671.099	-8.92441
672.406	-7.15381
673.713	-15.1956
675.019	-11.7718
676.326	0.59113
677.633	-3.37272
678.939	-10.6508
680.246	-17.2967
681.553	-15.5753
682.859	-1.91379
684.166	-2.11831
685.473	-1.75
686.779	-3.98867
688.086	-18.8764
689.393	-26.9266
690.699	-19.2039
692.006	-5.7333
693.313	-14.6472
694.62	-14.541
695.926	-5.42697
697.233	-17.5317
698.54	-28.4562
699.846	-13.6692
701.153	-5.99849
702.46	-7.97303
703.766	-1.17988
705.073	-14.1851
706.38	-13.1109
707.686	-8.06397
708.993	0.430032
710.3	-6.57763
711.606	-11.7455
712.913	-0.384882
714.22	-1.29174
715.526	-13.9135
716.833	-10.2007
718.14	-2.68316
719.447	0.194624
720.753	-0.433432
722.06	2.06859
723.367	0.459826
724.673	-0.327563
725.98	11.2311
727.287	9.70404
728.593	4.91989
729.9	-10.1776
731.207	8.3822
732.513	2.75307
733.82	3.69496
735.127	17.2967
736.434	14.8466
737.74	10.135
739.047	12.5773
740.354	18.9356
741.66	24.0534
742.967	16.2357
744.274	12.5146
745.58	23.6845
746.887	29.2227
748.194	22.8756
749.5	23.4882
750.807	27.0902
752.114	15.655
753.42	25.1419
754.727	26.6398
756.034	29.9446
757.341	36.9642
758.647	41.6531
759.954	28.3238
761.261	25.4413
762.567	28.3413
763.874	37.5284
765.181	40.3968
766.487	33.4705
767.794	30.9712
769.101	31.8482
770.407	33.4269
771.714	39
773.021	37.799
774.327	37.3611
775.634	42.2617
776.941	42.92
778.247	39.1455
779.554	44.3865
780.861	37.9862
782.168	48.4821
783.474	46.7031
784.781	38.9688
786.088	58.6575
787.394	51.0133
788.701	48.2785
790.008	51.963
791.314	56.9809
792.621	61.2554
793.928	54.1429
795.234	45.4051
796.541	41.9669
797.848	38.1523
799.154	54.0686
800.461	55.4851
801.768	48.5
803.075	50.0905
804.381	64.8262
805.688	79.4588
806.995	69.9491
808.301	79.9213
809.608	79.2827
810.915	65.0236
812.221	56.7987
813.528	62.0272
814.835	64.4174
816.141	60.233
817.448	62.7429
818.755	66.2386
820.061	61.8425
821.368	68.0628
822.675	71.1456
823.982	68.4679
825.288	94.6428
826.595	79.159
827.902	71.4702
829.208	80.3543
830.515	100.83
831.822	88.3111
833.128	85.1846
834.435	79.9308
835.742	94.9491
837.048	97.3457
838.355	89.6051
839.662	68.9249
840.969	86.9209
842.275	100.577
843.582	97.9366
844.889	87.4874
846.195	94.5014
847.502	93.9739
848.809	88.2228
850.115	87.0889
851.422	85.3947
852.729	89.9021
854.035	85.6526
855.342	87.8357
856.649	93.8205
857.955	98.0739
859.262	103.175
860.569	96.1576
861.875	95.0731
863.182	91.7943
864.489	96.5864
865.796	87.26
867.102	75.0004
868.409	85.7303
869.716	83.3859
871.022	78.2517
872.329	72.8549
873.636	58.6648
874.942	69.5454
876.249	77.6511
877.556	66.5414
878.862	65.0011
880.169	65.7102
881.476	65.1836
882.782	71.5492
884.089	77.3238
885.396	78.1121
886.703	60.9203
888.009	69.623
889.316	69.4298
890.623	66.0618
891.929	60.5782
893.236	63.2202
894.543	67.4017
895.849	61.715
897.156	73.5155
898.463	44.283
899.769	57.91
901.076	59.5
902.383	56.7938
903.689	40.1402
904.996	49.4801
906.303	45.2458
907.61	54.5418
908.916	59.4358
910.223	55.6165
911.53	55.0936
912.836	66.5959
914.143	59.4725
915.45	47.328
916.756	49.9818
918.063	41.6169
919.37	41.5803
920.676	58.9092
921.983	54.0438
923.29	48.7506
924.596	54.2971
925.903	60.9561
927.21	51.1237
928.517	55.0911
929.823	67.0564
931.13	50.8008
932.437	37.6857
933.743	43.0047
935.05	47.6002
936.357	39.0922
937.663	47.9887
938.97	44.6424
940.277	39.3826
941.583	57.6809
942.89	62.056
944.197	50.0913
945.503	57.422
946.81	63.7074
948.117	63.5223
949.424	66.259
950.73	66.3302
952.037	58.273
953.344	54.06
954.65	54.7502
955.957	58.4939
957.264	51.7684
958.57	42.6377
959.877	54.2971
961.184	62.3066
962.49	64.1692
963.797	63.7791
965.104	68.0975
966.41	78.1156
967.717	69.442
969.024	80.6954
970.331	92.2325
971.637	79.619
972.944	61.4854
974.251	79.4009
975.557	75.1693
976.864	84.2917
978.171	71.8973
979.477	81.852
980.784	82.484
982.091	74.5392
983.397	100.007
984.704	77.5862
986.011	85.7151
987.317	86.8403
988.624	86.305
989.931	88.8923
991.237	97.9492
992.544	96.6031
993.851	99.501
995.158	103.058
996.464	108.472
997.771	104.592
999.078	97.1997
1000.38	108.506
1001.69	117.518
1003	119.442
1004.3	126.038
1005.61	124.285
1006.92	122.102
1008.22	125.332
1009.53	123.886
1010.84	131.009
1012.14	142.411
1013.45	148.443
1014.76	142.623
1016.06	128.994
1017.37	162.335
1018.68	156.698
1019.98	155.383
1021.29	179.241
1022.6	155.417
1023.9	165.486
1025.21	179.359
1026.52	187.715
1027.82	170.841
1029.13	163.485
1030.44	183.349
1031.74	197.679
1033.05	173.562
1034.36	196.338
1035.66	187.244
1036.97	213.996
1038.28	199.576
1039.58	204.004
1040.89	208.097
1042.2	230.057
1043.51	223.951
1044.81	206.042
1046.12	214.983
1047.43	232.242
1048.73	231.799
1050.04	234.035
1051.35	251.441
1052.65	257.674
1053.96	258.903
1055.27	257.133
1056.57	254.699
1057.88	249.626
1059.19	241.27
1060.49	264.53
1061.8	284.182
1063.11	266.139
1064.41	254.531
1065.72	256.328
1067.03	266.036
1068.33	266.953
1069.64	276.262
1070.95	285.505
1072.25	280.487
1073.56	278.015
1074.87	290.444
1076.17	310.303
1077.48	317.507
1078.79	314.189
1080.09	317.819
1081.4	324.388
1082.71	309.137
1084.01	302.121
1085.32	314.151
1086.63	326.329
1087.93	316.327
1089.24	324.779
1090.55	354.999
1091.85	356.09
1093.16	347.963
1094.47	350.632
1095.77	362.133
1097.08	364.078
1098.39	377.993
1099.69	373.171
1101	377.495
1102.31	387.5
1103.61	385.3
1104.92	380.093
1106.23	388.155
1107.53	377.761
1108.84	413.626
1110.15	406.073
1111.45	413.413
1112.76	415.252
1114.07	446.688
1115.37	402.783
1116.68	450.221
1117.99	450.326
1119.29	453.578
1120.6	459.398
1121.91	466.598
1123.21	476.851
1124.52	491.169
1125.83	506.11
1127.13	495.386
1128.44	485.829
1129.75	490.418
1131.05	518.818
1132.36	521.57
1133.67	527.297
1134.97	537.071
1136.28	550.381
1137.59	543.997
1138.89	594.974
1140.2	577.313
1141.51	588.545
1142.81	600.402
1144.12	618.536
1145.43	639.884
1146.73	619.141
1148.04	641.061
1149.35	649.873
1150.65	681.487
1151.96	694.75
1153.27	676.764
1154.57	700.952
1155.88	717.745
1157.19	736.586
1158.49	731.433
1159.8	733.802
1161.11	761.595
1162.41	764.08
1163.72	771.289
1165.03	758.019
1166.33	785.989
1167.64	781.746
1168.95	785.005
1170.25	789.057
1171.56	816.836
1172.87	808.998
1174.17	840.4
1175.48	836.785
1176.79	819.182
1178.09	842.305
1179.4	826.339
1180.71	830.294
1182.01	860.021
1183.32	847.015
1184.63	863.211
1185.93	865.325
1187.24	895.254
1188.55	886.165
1189.85	849.944
1191.16	869.234
1192.47	901.402
1193.77	874.603
1195.08	880.169
1196.39	906.278
1197.69	908.778
1199	923.952
1200.31	902.434
1201.61	901.598
1202.92	915.534
1204.23	912.515
1205.53	932.534
1206.84	929.475
1208.15	951.52
1209.45	966.914
1210.76	943.734
1212.07	970.479
1213.37	977.343
1214.68	979.817
1215.99	1012.01
1217.29	971.34
1218.6	982.171
1219.91	1020.75
1221.21	997.562
1222.52	1015.25
1223.83	1034.87
1225.13	1053
1226.44	1044.02
1227.75	1058.53
1229.05	1067.41
1230.36	1077.53
1231.67	1083.06
1232.97	1112.16
1234.28	1133.99
1235.59	1124.53
1236.89	1124.54
1238.2	1167.61
1239.51	1150.3
1240.81	1172.73
1242.12	1172.73
1243.43	1194.47
1244.73	1205.55
1246.04	1212.02
1247.35	1223.53
1248.65	1240.88
1249.96	1239.08
1251.27	1247.3
1252.57	1260.3
1253.88	1310.54
1255.19	1333.81
1256.49	1364.17
1257.8	1376.76
1259.11	1375.92
1260.42	1389.14
1261.72	1406.87
1263.03	1418.51
1264.34	1420.81
1265.64	1444.57
1266.95	1469.47
1268.26	1481.51
1269.56	1510.77
1270.87	1525.48
1272.18	1542.81
1273.48	1575.15
1274.79	1591.12
1276.1	1614.74
1277.4	1636.24
1278.71	1660.99
1280.02	1701.38
1281.32	1725.27
1282.63	1741.29
1283.94	1760.74
1285.24	1814.43
1286.55	1838.76
1287.86	1850.64
1289.16	1878.79
1290.47	1923.44
1291.78	1946.89
1293.08	1987.28
1294.39	2011.23
1295.7	2026.43
1297	2073
1298.31	2096.99
1299.62	2124.65
1300.92	2154.14
1302.23	2214.68
1303.54	2228.1
1304.84	2265.78
1306.15	2333.27
1307.46	2355.95
1308.76	2366.31
1310.07	2438.98
1311.38	2470.93
1312.68	2523.32
1313.99	2528.9
1315.3	2594.98
1316.6	2593.97
1317.91	2645.86
1319.22	2701.71
1320.52	2699.98
1321.83	2740.46
1323.14	2763.1
1324.44	2819.33
1325.75	2871.34
1327.06	2858.43
1328.36	2906.35
1329.67	2972.7
1330.98	2964.44
1332.28	2987.98
1333.59	3019.8
1334.9	3044.59
1336.2	3050.33
1337.51	3055.48
1338.82	3106.73
1340.12	3088.26
1341.43	3094.95
1342.74	3121.12
1344.04	3119.81
1345.35	3109.13
1346.66	3137.4
1347.96	3149.24
1349.27	3159.13
1350.58	3155.53
1351.88	3114.07
1353.19	3134.37
1354.5	3109.13
1355.8	3093.6
1357.11	3101.95
1358.42	3071.5
1359.72	3043.35
1361.03	3024.78
1362.34	3003.55
1363.64	2984.43
1364.95	2968.04
1366.26	2929.23
1367.56	2892.25
1368.87	2885.51
1370.18	2850.92
1371.48	2829.52
1372.79	2809.91
1374.1	2773.05
1375.4	2719.38
1376.71	2712.81
1378.02	2715.08
1379.32	2649.09
1380.63	2608.08
1381.94	2581.55
1383.24	2552.23
1384.55	2541.17
1385.86	2508.29
1387.16	2480.72
1388.47	2420.36
1389.78	2381.6
1391.08	2388.82
1392.39	2359.24
1393.7	2325.29
1395	2293.94
1396.31	2262.81
1397.62	2254.98
1398.92	2235.05
1400.23	2204.78
1401.54	2155.99
1402.84	2130.75
1404.15	2108.32
1405.46	2098.55
1406.76	2068.75
1408.07	2030.62
1409.38	2031.58
1410.68	1999.99
1411.99	2002.34
1413.3	1989.59
1414.6	1942.11
1415.91	1908.85
1417.22	1899.65
1418.52	1905.38
1419.83	1876.89
1421.14	1850.03
1422.44	1866.99
1423.75	1805.9
1425.06	1819.64
1426.36	1798.88
1427.67	1789.78
1428.98	1778.59
1430.28	1773.06
1431.59	1749.83
1432.9	1746.17
1434.2	1731.1
1435.51	1718.52
1436.82	1725.16
1438.12	1717.02
1439.43	1715.73
1440.74	1712.24
1442.04	1688.47
1443.35	1688.87
1444.66	1660.08
1445.96	1645.72
1447.27	1663.61
1448.58	1663.76
1449.88	1652.62
1451.19	1653.22
1452.5	1659.07
1453.8	1640.6
1455.11	1637.05
1456.42	1625.56
1457.72	1634.39
1459.03	1618.26
1460.34	1641.08
1461.64	1637.25
1462.95	1598.6
1464.26	1600.13
1465.56	1597.25
1466.87	1616.44
1468.18	1606.19
1469.48	1575.83
1470.79	1607.5
1472.1	1614.1
1473.41	1619.98
1474.71	1585.05
1476.02	1588.3
1477.33	1592.22
1478.63	1606.02
1479.94	1599.91
1481.25	1587.93
1482.55	1598.77
1483.86	1604.86
1485.17	1598.95
1486.47	1594.28
1487.78	1594.31
1489.09	1593.39
1490.39	1590.35
1491.7	1581.42
1493.01	1594.27
1494.31	1611.28
1495.62	1602.49
1496.93	1599.57
1498.23	1604.91
1499.54	1610.83
1500.85	1594.9
1502.15	1592.73
1503.46	1624.61
1504.77	1602.45
1506.07	1605.95
1507.38	1585.55
1508.69	1602.74
1509.99	1590.28
1511.3	1598.68
1512.61	1601.34
1513.91	1595.1
1515.22	1599.36
1516.53	1624.53
1517.83	1628.38
1519.14	1618.89
1520.45	1649.79
1521.75	1636.99
1523.06	1638.59
1524.37	1651.83
1525.67	1661.89
1526.98	1670.21
1528.29	1672.14
1529.59	1665.63
1530.9	1684.62
1532.21	1709.69
1533.51	1725.79
1534.82	1708.36
1536.13	1701.28
1537.43	1766.64
1538.74	1760.85
1540.05	1742.24
1541.35	1790.12
1542.66	1798.83
1543.97	1813.03
1545.27	1825.74
1546.58	1842.79
1547.89	1835.02
1549.19	1862.69
1550.5	1891.89
1551.81	1917.43
1553.11	1930.92
1554.42	1951.46
1555.73	1988.28
1557.03	2007.31
1558.34	2029.9
1559.65	2078.68
1560.95	2115.88
1562.26	2128.99
1563.57	2139.34
1564.87	2163.45
1566.18	2194.41
1567.49	2270.86
1568.79	2278.47
1570.1	2315.74
1571.41	2360
1572.71	2375.36
1574.02	2490.31
1575.33	2515.04
1576.63	2564.11
1577.94	2589.56
1579.25	2616.35
1580.55	2703.7
1581.86	2770.1
1583.17	2818.52
1584.47	2861.67
1585.78	2903.46
1587.09	2973.76
1588.39	3025.76
1589.7	3064.67
1591.01	3111.02
1592.31	3160.01
1593.62	3243.07
1594.93	3288.03
1596.23	3344.3
1597.54	3333.42
1598.85	3380.98
1600.15	3391.5
1601.46	3454.89
1602.77	3483.37
1604.07	3452.32
1605.38	3446.02
1606.69	3457.11
1607.99	3473.17
1609.3	3437.75
1610.61	3413.75
1611.91	3373.8
1613.22	3314.41
1614.53	3244.27
1615.83	3212.16
1617.14	3143.21
1618.45	3098.85
1619.75	3031.2
1621.06	2952.54
1622.37	2863.24
1623.67	2752.86
1624.98	2675.22
1626.29	2589.96
1627.59	2483.97
1628.9	2388.68
1630.21	2292.68
1631.51	2238.36
1632.82	2118.77
1634.13	2042.03
1635.43	1956.55
1636.74	1878.96
1638.05	1797.35
1639.35	1718.89
1640.66	1671.96
1641.97	1603.81
1643.27	1536.82
1644.58	1523.06
1645.89	1421.16
1647.19	1393.63
1648.5	1320.71
1649.81	1323.69
1651.11	1265.52
1652.42	1186.45
1653.73	1169.36
1655.03	1109.25
1656.34	1073.44
1657.65	1008.81
1658.95	978.121
1660.26	932.963
1661.57	902.416
1662.87	862.466
1664.18	817.148
1665.49	781.511
1666.79	750.914
1668.1	734.903
1669.41	703.726
1670.71	673.342
1672.02	640.091
1673.33	616.809
1674.63	597.034
1675.94	565.81
1677.25	519.19
1678.55	508.55
1679.86	491.771
1681.17	472.365
1682.47	442.305
1683.78	419.037
1685.09	411.383
1686.4	393.251
1687.7	382.742
1689.01	356.792
1690.32	327.719
1691.62	332.314
1692.93	331.952
1694.24	297.81
1695.54	298.94
1696.85	291.525
1698.16	289.695
1699.46	273.958
1700.77	256.797
1702.08	256.726
1703.38	242.899
1704.69	229.21
1706	235.14
1707.3	218.322
1708.61	226.59
1709.92	215.84
1711.22	216.77
1712.53	189.45
1713.84	197.547
1715.14	203.688
1716.45	185.862
1717.76	187.525
1719.06	192.409
1720.37	190.206
1721.68	173.789
1722.98	168.139
1724.29	156.127
1725.6	154.225
1726.9	159.626
1728.21	150.433
1729.52	155.194
1730.82	147.402
1732.13	140.449
1733.44	144.51
1734.74	143.831
1736.05	141.761
1737.36	129.336
1738.66	122.229
1739.97	126.522
1741.28	128.052
1742.58	114.433
1743.89	119.424
1745.2	110.617
1746.5	108.406
1747.81	105.946
1749.12	126.175
1750.42	118.23
1751.73	110.988
1753.04	91.945
1754.34	101.491
1755.65	104.562
1756.96	101.785
1758.26	98.0034
1759.57	100.814
1760.88	99.6965
1762.18	100.54
1763.49	105.294
1764.8	84.8501
1766.1	115.252
1767.41	94.695
1768.72	92.6865
1770.02	88.0064
1771.33	77.7087
1772.64	81.8297
1773.94	87.6713
1775.25	86.8055
1776.56	90.6271
1777.86	86.7853
1779.17	82.9055
1780.48	74.3974
1781.78	76.3611
1783.09	86.4967
1784.4	87.6608
1785.7	85.6675
1787.01	82.924
1788.32	68.2553
1789.62	75.2826
1790.93	68.5903
1792.24	71.3945
1793.54	74.4095
1794.85	77.2221
1796.16	75.0248
1797.46	68.8983
1798.77	80.2084
1800.08	82.7775
1801.38	73.4535
1802.69	74.0017
1804	82.0238
1805.3	82.8036
1806.61	83.5174
1807.92	79.2284
1809.22	65.0208
1810.53	75.7615
1811.84	70.4587
1813.14	73.9025
1814.45	73.0886
1815.76	80.8844
1817.06	54.5029
1818.37	85.8638
1819.68	79.7691
1820.98	69.3635
1822.29	66.6309
1823.6	70.7064
1824.9	68.1492
1826.21	72.3446
1827.52	74.4826
1828.82	59.2711
1830.13	63.7493
1831.44	84.1336
1832.74	83.4313
1834.05	76.91
1835.36	64.0369
1836.66	68.0852
1837.97	79.6909
1839.28	82.8601
1840.58	83.3127
1841.89	72.768
1843.2	70.1899
1844.5	70.7498
1845.81	67.4795
1847.12	82.2161
1848.42	73.8347
1849.73	81.5875
1851.04	80.0749
1852.34	71.9829
1853.65	66.4839
1854.96	72.0447
1856.26	79.9443
1857.57	74.1136
1858.88	71.909
1860.18	69.0411
1861.49	66.0986
1862.8	72.6823
1864.1	79.9469
1865.41	70.159
1866.72	76.0965
1868.02	72.5003
1869.33	69.6498
1870.64	76.2316
1871.94	83.221
1873.25	81.6646
1874.56	81.4975
1875.86	79.0679
1877.17	67.6378
1878.48	79.4767
1879.78	72.4407
1881.09	75.6954
1882.4	81.0551
1883.7	79.5321
1885.01	81.9469
1886.32	85.9877
1887.62	79.6103
1888.93	84.7028
1890.24	65.4811
1891.54	70.448
1892.85	74.384
1894.16	74.7415
1895.47	79.3568
1896.77	62.8591
1898.08	77.2826
1899.39	79.7585
1900.69	82.6277
1902	67.2927
1903.31	77.004
1904.61	67.0295
1905.92	63.5029
1907.23	76.3881
1908.53	73.0921
1909.84	76.2613
1911.15	80.6055
1912.45	69.4587
1913.76	72.7895
1915.07	57.1246
1916.37	67.7952
1917.68	65.6152
1918.99	73.3679
1920.29	68.8614
1921.6	79.061
1922.91	79.1927
1924.21	67.0355
1925.52	69.0257
1926.83	73.9565
1928.13	56.2193
1929.44	84.2214
1930.75	80.4489
1932.05	85.8218
1933.36	87.4967
1934.67	78.2887
1935.97	67.8472
1937.28	75.4421
1938.59	71.6835
1939.89	78.7403
1941.2	77.738
1942.51	58.3536
1943.81	78.8594
1945.12	71.5074
1946.43	73.0505
1947.73	74.7252
1949.04	75.5707
1950.35	81.6617
1951.65	75.4076
1952.96	70.2416
1954.27	81.0701
1955.57	80.3888
1956.88	91.482
1958.19	80.5841
1959.49	81.0636
1960.8	80.5094
1962.11	69.9064
1963.41	74.1021
1964.72	88.9867
1966.03	74.6208
1967.33	90.5299
1968.64	73.8929
1969.95	89.2315
1971.25	89.6003
1972.56	77.432
1973.87	70.1575
1975.17	78.3883
1976.48	86.3451
1977.79	80.3951
1979.09	86.5852
1980.4	90.0824
1981.71	70.6498
1983.01	81.4195
1984.32	82.8021
1985.63	77.3609
1986.93	77.7068
1988.24	80.9495
1989.55	89.465
1990.85	85.245
1992.16	91.4835
1993.47	97.0998
1994.77	87.0457
1996.08	90.4603
1997.39	86.4268
1998.69	81.7109
2000	87.7412