File: Example Data/Raman/CNT - TIM/Raytheon/Al foil/2011/03-21-11/Al - B31 - top_1.txt
300	-149.417
301.307	-147.744
302.613	-146.19
303.92	-145.976
305.227	-143.333
306.533	-136.576
307.84	-130.11
309.147	-112.023
310.453	-113.14
311.76	-114.857
313.067	-112.465
314.374	-110.367
315.68	-112.278
316.987	-116.969
318.294	-117.969
319.6	-113.442
320.907	-122.085
322.214	-119.407
323.52	-126.826
324.827	-123.834
326.134	-117.056
327.44	-113.869
328.747	-117.828
330.054	-119.509
331.361	-115.681
332.667	-134.272
333.974	-132.258
335.281	-117.31
336.587	-129.476
337.894	-120.975
339.201	-120.3
340.507	-122.226
341.814	-120.803
343.121	-122.412
344.427	-123.444
345.734	-120.556
347.041	-140.95
348.347	-132.22
349.654	-123.403
350.961	-124.863
352.267	-127.676
353.574	-128.031
354.881	-133.782
356.188	-137.615
357.494	-113.574
358.801	-132.651
360.108	-137.588
361.414	-133.474
362.721	-130.698
364.028	-131.548
365.334	-139.622
366.641	-139.161
367.948	-131.458
369.254	-133.039
370.561	-123.026
371.868	-136.945
373.174	-132.669
374.481	-137.319
375.788	-129.621
377.095	-130.579
378.401	-126.607
379.708	-122.256
381.015	-129.147
382.321	-138.042
383.628	-141.528
384.935	-145.619
386.241	-135.251
387.548	-129.573
388.855	-123.138
390.161	-123.618
391.468	-128.743
392.775	-139.229
394.081	-144.122
395.388	-134.252
396.695	-137.068
398.002	-132.31
399.308	-134.339
400.615	-149.46
401.922	-141.671
403.228	-133.772
404.535	-126.646
405.842	-130.79
407.148	-146.682
408.455	-152.96
409.762	-141.97
411.068	-147.032
412.375	-119.496
413.682	-147.387
414.988	-143.747
416.295	-135.537
417.602	-134.622
418.909	-138.04
420.215	-135.823
421.522	-129.91
422.829	-136.895
424.135	-151.291
425.442	-127.104
426.749	-143.63
428.055	-137.898
429.362	-140.767
430.669	-139.829
431.975	-135.844
433.282	-138.378
434.589	-143.643
435.895	-141.993
437.202	-139.62
438.509	-135.15
439.816	-137.19
441.122	-139.451
442.429	-151.758
443.736	-146.665
445.042	-142.248
446.349	-136.904
447.656	-133.191
448.962	-136.457
450.269	-139.272
451.576	-138.767
452.882	-159.936
454.189	-158.8
455.496	-139.654
456.802	-148.203
458.109	-147.555
459.416	-140.244
460.723	-138.012
462.029	-138.362
463.336	-143.871
464.643	-152.336
465.949	-132.759
467.256	-142.87
468.563	-161.999
469.869	-136.09
471.176	-153.418
472.483	-152.126
473.789	-148.242
475.096	-149.431
476.403	-144.788
477.709	-141.257
479.016	-150.688
480.323	-153.446
481.63	-163.884
482.936	-153.163
484.243	-161.087
485.55	-165.038
486.856	-162.86
488.163	-159.367
489.47	-167.188
490.776	-169.333
492.083	-164.401
493.39	-169.691
494.696	-175.446
496.003	-170.306
497.31	-178.353
498.616	-173.562
499.923	-177.736
501.23	-178.884
502.536	-176.268
503.843	-176.494
505.15	-178.78
506.457	-181.281
507.763	-179.156
509.07	-172.905
510.377	-176.894
511.683	-180.413
512.99	-184.757
514.297	-187.504
515.603	-180.456
516.91	-177.689
518.217	-185.732
519.523	-183.461
520.83	-179.62
522.137	-176.46
523.443	-174.232
524.75	-182.243
526.057	-186.239
527.364	-190.434
528.67	-181.264
529.977	-200.277
531.284	-184.271
532.59	-182.817
533.897	-183.165
535.204	-180.647
536.51	-173.941
537.817	-171.546
539.124	-178.861
540.43	-188.602
541.737	-193.497
543.044	-185.401
544.351	-184.379
545.657	-178.169
546.964	-187.389
548.271	-189.583
549.577	-178.089
550.884	-167.916
552.191	-169.173
553.497	-176.878
554.804	-180.841
556.111	-177.748
557.417	-175.832
558.724	-184.854
560.031	-177.868
561.337	-179.711
562.644	-177.494
563.951	-160.174
565.258	-166.553
566.564	-176
567.871	-166.779
569.178	-160.037
570.484	-167.911
571.791	-169.257
573.098	-163.248
574.404	-177.545
575.711	-168.237
577.018	-158.211
578.324	-172.291
579.631	-155.801
580.938	-160.07
582.244	-171.848
583.551	-156.276
584.858	-157.503
586.164	-168.315
587.471	-169.836
588.778	-164.226
590.085	-160.977
591.391	-168.08
592.698	-161.75
594.005	-162.181
595.311	-168.888
596.618	-158.994
597.925	-162.174
599.231	-167.562
600.538	-162.314
601.845	-166.598
603.151	-165.998
604.458	-161.035
605.765	-158.156
607.071	-154.421
608.378	-157.001
609.685	-167.851
610.992	-177.368
612.298	-159.871
613.605	-155.237
614.912	-165.335
616.218	-158.267
617.525	-152.389
618.832	-142.87
620.138	-148.218
621.445	-152.799
622.752	-152.682
624.058	-150.32
625.365	-144.453
626.672	-146.871
627.978	-143.508
629.285	-143.566
630.592	-168.066
631.899	-139.701
633.205	-146.623
634.512	-148.359
635.819	-142.564
637.125	-145.537
638.432	-154.32
639.739	-156.103
641.045	-145.19
642.352	-135.493
643.659	-132.598
644.965	-129.8
646.272	-142.953
647.579	-140.364
648.885	-146.1
650.192	-134.218
651.499	-149.761
652.806	-143.85
654.112	-140.36
655.419	-148.099
656.726	-147.963
658.032	-136.93
659.339	-129.614
660.646	-133.638
661.952	-141.093
663.259	-141.208
664.566	-134.836
665.872	-132.094
667.179	-130.797
668.486	-145.357
669.792	-142.322
671.099	-126.975
672.406	-134.808
673.713	-141.183
675.019	-140.352
676.326	-135.757
677.633	-129.649
678.939	-128.703
680.246	-128.675
681.553	-124.931
682.859	-125.448
684.166	-131.237
685.473	-130.45
686.779	-129.538
688.086	-125.698
689.393	-134.572
690.699	-115.85
692.006	-120.927
693.313	-122.979
694.62	-128.168
695.926	-128.71
697.233	-135.036
698.54	-132.318
699.846	-128.01
701.153	-126.75
702.46	-119.376
703.766	-112.062
705.073	-111.887
706.38	-110.025
707.686	-117.6
708.993	-113.386
710.3	-112.243
711.606	-128.452
712.913	-116.295
714.22	-129.334
715.526	-121.245
716.833	-129.928
718.14	-128.878
719.447	-122.341
720.753	-115.2
722.06	-112.304
723.367	-108.252
724.673	-102.991
725.98	-108.315
727.287	-105.988
728.593	-95.8129
729.9	-113.028
731.207	-117.83
732.513	-103.758
733.82	-106.349
735.127	-107.832
736.434	-103.639
737.74	-104.876
739.047	-106.037
740.354	-102.631
741.66	-93.9909
742.967	-90.4514
744.274	-97.2204
745.58	-104.147
746.887	-100.318
748.194	-93.3745
749.5	-92.4344
750.807	-85.2233
752.114	-90.4072
753.42	-101.517
754.727	-78.2095
756.034	-89.0681
757.341	-87.3929
758.647	-85.2827
759.954	-72.7122
761.261	-87.9787
762.567	-86.3969
763.874	-87.2684
765.181	-89.8514
766.487	-81.0688
767.794	-79.6781
769.101	-84.6785
770.407	-84.2579
771.714	-81.8325
773.021	-77.8365
774.327	-88.0383
775.634	-80.151
776.941	-80.6063
778.247	-94.2713
779.554	-74.1786
780.861	-70.1487
782.168	-73.1968
783.474	-73.9303
784.781	-70.1571
786.088	-67.9239
787.394	-80.2201
788.701	-85.0082
790.008	-78.5589
791.314	-70.0782
792.621	-69.1363
793.928	-66.2162
795.234	-58.5967
796.541	-58.5674
797.848	-58.5144
799.154	-55.1385
800.461	-58.3672
801.768	-43.8364
803.075	-48.6283
804.381	-49.5501
805.688	-46.0783
806.995	-64.1468
808.301	-56.8442
809.608	-49.7748
810.915	-40.8503
812.221	-58.9955
813.528	-48.1287
814.835	-43.7444
816.141	-44.5365
817.448	-42.1102
818.755	-47.4272
820.061	-46.2665
821.368	-42.9246
822.675	-43.8705
823.982	-34.4156
825.288	-34.757
826.595	-41.1187
827.902	-49.6381
829.208	-34.4506
830.515	-34.4542
831.822	-47.7239
833.128	-23.0743
834.435	-29.0445
835.742	-30.1712
837.048	-23.0184
838.355	-43.1916
839.662	-26.8517
840.969	-43.3086
842.275	-40.5428
843.582	-26.8532
844.889	-38.1341
846.195	-38.7577
847.502	-31.5107
848.809	-33.6598
850.115	-35.6416
851.422	-27.8825
852.729	-21.2176
854.035	-29.3216
855.342	-24.2544
856.649	-23.649
857.955	-34.4854
859.262	-33.592
860.569	-14.8439
861.875	-30.0072
863.182	-20.8364
864.489	-30.1811
865.796	-22.1673
867.102	-28.5767
868.409	-30.5543
869.716	-28.3426
871.022	-39.3642
872.329	-46.4242
873.636	-38.056
874.942	-37.8188
876.249	-45.4959
877.556	-43.9656
878.862	-57.5531
880.169	-52.8311
881.476	-32.8969
882.782	-41.0687
884.089	-50.335
885.396	-50.1907
886.703	-47.5229
888.009	-59.3972
889.316	-53.7467
890.623	-49.9097
891.929	-55.8038
893.236	-35.1395
894.543	-55.7221
895.849	-55.2807
897.156	-56.9665
898.463	-74.6802
899.769	-64.8724
901.076	-70.0502
902.383	-62.257
903.689	-68.2566
904.996	-67.9717
906.303	-59.6505
907.61	-52.7985
908.916	-68.912
910.223	-68.3494
911.53	-63.3039
912.836	-66.292
914.143	-65.2008
915.45	-67.5905
916.756	-73.689
918.063	-69.7999
919.37	-60.1953
920.676	-60.7058
921.983	-73.2027
923.29	-71.1305
924.596	-61.0133
925.903	-68.1087
927.21	-54.9947
928.517	-64.1596
929.823	-75.4483
931.13	-79.6998
932.437	-82.1287
933.743	-71.4958
935.05	-67.3841
936.357	-59.5281
937.663	-62.6147
938.97	-63
940.277	-75.3829
941.583	-60.3863
942.89	-60.5175
944.197	-60.6336
945.503	-45.794
946.81	-53.8303
948.117	-59.9241
949.424	-57.1118
950.73	-57.4198
952.037	-55.5267
953.344	-51.94
954.65	-58.1183
955.957	-65.0151
957.264	-63.759
958.57	-58.1843
959.877	-49.4217
961.184	-49.0362
962.49	-52.6078
963.797	-46.2364
965.104	-50.1913
966.41	-57.4375
967.717	-59.9453
969.024	-54.7281
970.331	-52.1936
971.637	-45.5324
972.944	-48.6862
974.251	-42.6796
975.557	-32.7714
976.864	-55.5694
978.171	-59.7009
979.477	-46.2807
980.784	-40.6026
982.091	-42.5245
983.397	-25.3186
984.704	-33.9223
986.011	-31.595
987.317	-30.1459
988.624	-22.9787
989.931	-20.4338
991.237	-26.9916
992.544	-11.9125
993.851	-16.8866
995.158	-16.6999
996.464	-25.6193
997.771	-24.4281
999.078	-10.7206
1000.38	3.60427
1001.69	10.25
1003	5.40539
1004.3	-2.65933
1005.61	-3.58459
1006.92	4.23195
1008.22	11.3967
1009.53	13
1010.84	16.0652
1012.14	23.3481
1013.45	26.923
1014.76	22.6717
1016.06	20.4345
1017.37	34.389
1018.68	31.9083
1019.98	36.0142
1021.29	43.4964
1022.6	45.1581
1023.9	48.8283
1025.21	52.6371
1026.52	56.439
1027.82	52.9274
1029.13	44.456
1030.44	70.9853
1031.74	96.5004
1033.05	66.7735
1034.36	68.4878
1035.66	89.6912
1036.97	89.0555
1038.28	91.8074
1039.58	115.392
1040.89	79.7348
1042.2	86.9385
1043.51	91.5163
1044.81	96.8529
1046.12	102.709
1047.43	117.28
1048.73	131.167
1050.04	117.96
1051.35	104.746
1052.65	115.857
1053.96	116.236
1055.27	129.144
1056.57	136.456
1057.88	138.009
1059.19	142.271
1060.49	139.615
1061.8	148.861
1063.11	147.625
1064.41	136.315
1065.72	140.632
1067.03	152.378
1068.33	154.012
1069.64	155.478
1070.95	167.033
1072.25	160.772
1073.56	155.818
1074.87	175.341
1076.17	182.715
1077.48	173.3
1078.79	180.967
1080.09	195.451
1081.4	195.523
1082.71	199.387
1084.01	198.515
1085.32	203.461
1086.63	211.735
1087.93	223.788
1089.24	217.43
1090.55	215.607
1091.85	230.391
1093.16	241.556
1094.47	243.656
1095.77	233.218
1097.08	248.341
1098.39	256.275
1099.69	330.804
1101	448.92
1102.31	261.178
1103.61	278.667
1104.92	274.893
1106.23	286.414
1107.53	283.187
1108.84	291.241
1110.15	300.113
1111.45	308.424
1112.76	311.411
1114.07	328.829
1115.37	311.157
1116.68	330.654
1117.99	325.227
1119.29	334.657
1120.6	346.393
1121.91	341.118
1123.21	372.355
1124.52	345.634
1125.83	370.828
1127.13	371.278
1128.44	367.093
1129.75	346.705
1131.05	376.364
1132.36	387.441
1133.67	397.793
1134.97	384.047
1136.28	409.186
1137.59	418.464
1138.89	410.525
1140.2	412.552
1141.51	433.31
1142.81	463.845
1144.12	476.731
1145.43	465.283
1146.73	462.942
1148.04	455.455
1149.35	486.651
1150.65	521.34
1151.96	520.924
1153.27	504.713
1154.57	522.732
1155.88	536.657
1157.19	537.533
1158.49	549.556
1159.8	540.151
1161.11	563.864
1162.41	581.955
1163.72	561.149
1165.03	598.317
1166.33	616.592
1167.64	600.693
1168.95	592.168
1170.25	623.837
1171.56	626.532
1172.87	630.234
1174.17	623.581
1175.48	620.948
1176.79	621.698
1178.09	627.204
1179.4	642.8
1180.71	661.204
1182.01	646.908
1183.32	651.758
1184.63	640.811
1185.93	653.566
1187.24	681.52
1188.55	676.39
1189.85	646.761
1191.16	739.207
1192.47	868.149
1193.77	883.733
1195.08	785.341
1196.39	694.593
1197.69	711.928
1199	706.076
1200.31	698.878
1201.61	722.876
1202.92	716.239
1204.23	714.956
1205.53	732.906
1206.84	748.29
1208.15	738.736
1209.45	740.111
1210.76	760.049
1212.07	784.208
1213.37	763.637
1214.68	769.555
1215.99	776.492
1217.29	797.604
1218.6	801.291
1219.91	778.779
1221.21	816.657
1222.52	798.627
1223.83	827.899
1225.13	826.663
1226.44	862.759
1227.75	870.626
1229.05	875.038
1230.36	858.186
1231.67	879.638
1232.97	911.882
1234.28	903.213
1235.59	902.733
1236.89	924.966
1238.2	939.583
1239.51	960.858
1240.81	965.09
1242.12	967.7
1243.43	1001.26
1244.73	980.66
1246.04	989.846
1247.35	1030.04
1248.65	1049.85
1249.96	1054.65
1251.27	1061.31
1252.57	1089.8
1253.88	1082.43
1255.19	1109.79
1256.49	1134.14
1257.8	1148.14
1259.11	1164.26
1260.42	1191.99
1261.72	1182.05
1263.03	1204.11
1264.34	1220.09
1265.64	1247.41
1266.95	1259.81
1268.26	1268.28
1269.56	1302.63
1270.87	1306.78
1272.18	1315.52
1273.48	1346.49
1274.79	1379.9
1276.1	1404.12
1277.4	1412.93
1278.71	1424.9
1280.02	1464.49
1281.32	1498.42
1282.63	1511.64
1283.94	1539.96
1285.24	1564.89
1286.55	1593.6
1287.86	1637.91
1289.16	1649.09
1290.47	1666.1
1291.78	1689.03
1293.08	1716.43
1294.39	1773.53
1295.7	1799.16
1297	1852.79
1298.31	1885.54
1299.62	1918.43
1300.92	1946.93
1302.23	2005.55
1303.54	2018.67
1304.84	2058.58
1306.15	2089.71
1307.46	2144.96
1308.76	2165.9
1310.07	2216.27
1311.38	2246.43
1312.68	2303.59
1313.99	2374.11
1315.3	2387.44
1316.6	2421.49
1317.91	2493.67
1319.22	2574.13
1320.52	2613.99
1321.83	2633.51
1323.14	2679.25
1324.44	2719.31
1325.75	2777.61
1327.06	2801.63
1328.36	2882.61
1329.67	2937.61
1330.98	2974.34
1332.28	3026.78
1333.59	3078.89
1334.9	3097.41
1336.2	3122.06
1337.51	3176.1
1338.82	3218.31
1340.12	3246.39
1341.43	3290
1342.74	3299.89
1344.04	3350.61
1345.35	3366.19
1346.66	3386.83
1347.96	3391.88
1349.27	3381.38
1350.58	3374.19
1351.88	3425.28
1353.19	3417.44
1354.5	3404.92
1355.8	3422.78
1357.11	3368.63
1358.42	3372.16
1359.72	3334.8
1361.03	3361.27
1362.34	3274.88
1363.64	3265.28
1364.95	3242.64
1366.26	3210.99
1367.56	3182.06
1368.87	3128.98
1370.18	3111.91
1371.48	3040.46
1372.79	3019.88
1374.1	2962.48
1375.4	2922.18
1376.71	2877.78
1378.02	2840.77
1379.32	2812.93
1380.63	2765.39
1381.94	2701.06
1383.24	2667.56
1384.55	2629.91
1385.86	2566.73
1387.16	2545.07
1388.47	2513.17
1389.78	2471.77
1391.08	2419.11
1392.39	2391.65
1393.7	2371.21
1395	2311.32
1396.31	2273.26
1397.62	2248.92
1398.92	2231.11
1400.23	2201.17
1401.54	2172.53
1402.84	2125.93
1404.15	2092.35
1405.46	2055.38
1406.76	2040
1408.07	2031.09
1409.38	1985.84
1410.68	1961.66
1411.99	1962.25
1413.3	1949.13
1414.6	1859.91
1415.91	1862.79
1417.22	1861.71
1418.52	1841.34
1419.83	1813.25
1421.14	1772.06
1422.44	1790.38
1423.75	1785.81
1425.06	1744.07
1426.36	1725.16
1427.67	1731.66
1428.98	1723.5
1430.28	1713.15
1431.59	1682.37
1432.9	1666.81
1434.2	1644.88
1435.51	1654.68
1436.82	1666.43
1438.12	1645.92
1439.43	1616.33
1440.74	1607.64
1442.04	1612.73
1443.35	1630.54
1444.66	1617.34
1445.96	1563.25
1447.27	1561.85
1448.58	1562.02
1449.88	1563.94
1451.19	1544.2
1452.5	1563.19
1453.8	1538.59
1455.11	1531.13
1456.42	1532.22
1457.72	1529.08
1459.03	1536.99
1460.34	1521.56
1461.64	1500.94
1462.95	1512.94
1464.26	1527.57
1465.56	1509.13
1466.87	1509.58
1468.18	1513.66
1469.48	1514.58
1470.79	1480.93
1472.1	1506.17
1473.41	1504
1474.71	1498.97
1476.02	1521.41
1477.33	1510.95
1478.63	1511.04
1479.94	1499.42
1481.25	1473.45
1482.55	1486.96
1483.86	1489.34
1485.17	1493.2
1486.47	1510.61
1487.78	1502.3
1489.09	1479.96
1490.39	1484.64
1491.7	1492.94
1493.01	1500.95
1494.31	1500.76
1495.62	1513.24
1496.93	1508.87
1498.23	1505.38
1499.54	1516.77
1500.85	1508.54
1502.15	1509.14
1503.46	1500.94
1504.77	1488.66
1506.07	1502.62
1507.38	1512.63
1508.69	1501.61
1509.99	1524.78
1511.3	1535.7
1512.61	1484.86
1513.91	1527.23
1515.22	1525.17
1516.53	1536.5
1517.83	1566.87
1519.14	1536.9
1520.45	1533.5
1521.75	1555.16
1523.06	1558.03
1524.37	1573.66
1525.67	1570.49
1526.98	1583.61
1528.29	1584.01
1529.59	1602.53
1530.9	1607.96
1532.21	1614.29
1533.51	1622.75
1534.82	1630.16
1536.13	1634.5
1537.43	1649.56
1538.74	1673.67
1540.05	1691.96
1541.35	1688
1542.66	1716.22
1543.97	1727.36
1545.27	1735.17
1546.58	1776.91
1547.89	1789.68
1549.19	1827.71
1550.5	1838.53
1551.81	1841.64
1553.11	1866.37
1554.42	1918.07
1555.73	1935.27
1557.03	1978.7
1558.34	2032.07
1559.65	2057.78
1560.95	2100.74
1562.26	2123.22
1563.57	2159.82
1564.87	2185.63
1566.18	2238.67
1567.49	2264.84
1568.79	2323
1570.1	2319.12
1571.41	2384.15
1572.71	2432.32
1574.02	2503.23
1575.33	2579.11
1576.63	2575.91
1577.94	2569.91
1579.25	2646.2
1580.55	2706.51
1581.86	2778.26
1583.17	2819.59
1584.47	2890.13
1585.78	2940.81
1587.09	2994.55
1588.39	3038.9
1589.7	3102.14
1591.01	3145.47
1592.31	3205.48
1593.62	3254.22
1594.93	3290.13
1596.23	3286.61
1597.54	3357.76
1598.85	3398.46
1600.15	3403.72
1601.46	3477.82
1602.77	3483.76
1604.07	3490.29
1605.38	3478.01
1606.69	3442.43
1607.99	3474.35
1609.3	3481.65
1610.61	3436.73
1611.91	3389.86
1613.22	3377.25
1614.53	3343.52
1615.83	3294.19
1617.14	3257.53
1618.45	3202.54
1619.75	3113.97
1621.06	3066.95
1622.37	2970.29
1623.67	2949.57
1624.98	2848.12
1626.29	2734.88
1627.59	2653.82
1628.9	2584.6
1630.21	2504.97
1631.51	2419.81
1632.82	2321.92
1634.13	2236.41
1635.43	2141.65
1636.74	2072.91
1638.05	1978.07
1639.35	1916.37
1640.66	1813.36
1641.97	1744.41
1643.27	1650.02
1644.58	1628.03
1645.89	1550.69
1647.19	1478.47
1648.5	1407.08
1649.81	1358.56
1651.11	1323.58
1652.42	1223.14
1653.73	1203.37
1655.03	1121.54
1656.34	1085.39
1657.65	1035.31
1658.95	1002.43
1660.26	970.743
1661.57	902.869
1662.87	855.209
1664.18	810.453
1665.49	763.803
1666.79	768.796
1668.1	724.217
1669.41	691.558
1670.71	648.643
1672.02	618.031
1673.33	561.838
1674.63	562.589
1675.94	517.219
1677.25	499.996
1678.55	460.007
1679.86	435.043
1681.17	410.839
1682.47	383.293
1683.78	359.922
1685.09	334.258
1686.4	322.407
1687.7	309.142
1689.01	276.46
1690.32	267.059
1691.62	255.904
1692.93	225.898
1694.24	232.462
1695.54	221.798
1696.85	203.251
1698.16	184.011
1699.46	183.92
1700.77	173.936
1702.08	158.419
1703.38	141.058
1704.69	133.869
1706	140.971
1707.3	131.183
1708.61	120.245
1709.92	93.1153
1711.22	116.068
1712.53	81.0308
1713.84	102.737
1715.14	82.5509
1716.45	73.1523
1717.76	72.7514
1719.06	68.3479
1720.37	72.9915
1721.68	70.5703
1722.98	78.9181
1724.29	78.9916
1725.6	68.3227
1726.9	54.2914
1728.21	43.4104
1729.52	39.6507
1730.82	52.4538
1732.13	34.451
1733.44	18.3137
1734.74	6.67649
1736.05	18.071
1737.36	25.4772
1738.66	3.51212
1739.97	4.76547
1741.28	9.45605
1742.58	1.48824
1743.89	-0.425285
1745.2	6.88709
1746.5	-0.164948
1747.81	-8.55531
1749.12	11.2173
1750.42	-8.00258
1751.73	-2.84839
1753.04	-13.8088
1754.34	-7.60267
1755.65	-19.2972
1756.96	-19.0903
1758.26	-6.30544
1759.57	-7.95412
1760.88	-22.0907
1762.18	-28.3694
1763.49	-20.4454
1764.8	-16.7155
1766.1	-20.4003
1767.41	-20.931
1768.72	-7.95992
1770.02	-23.7728
1771.33	-24.7844
1772.64	-9.74681
1773.94	-21.4675
1775.25	-27.6789
1776.56	-29.1552
1777.86	-27.4939
1779.17	-28.0481
1780.48	-21.5138
1781.78	-20.6643
1783.09	-20.5011
1784.4	-27.5925
1785.7	-34.021
1787.01	-32.4423
1788.32	-30.2539
1789.62	-25.7895
1790.93	-24.4196
1792.24	-27.363
1793.54	-33.1951
1794.85	-28.2183
1796.16	-34.1096
1797.46	-24.5494
1798.77	-41.7988
1800.08	-32.9979
1801.38	-36.7415
1802.69	-25.9419
1804	-27.389
1805.3	-28.4027
1806.61	-37.9215
1807.92	-37.5748
1809.22	-23.7081
1810.53	-23.5634
1811.84	-29.3951
1813.14	-30.198
1814.45	-38.7835
1815.76	-27.9634
1817.06	-48.109
1818.37	-53.5989
1819.68	-34.5925
1820.98	-35.428
1822.29	-38.7389
1823.6	-37.3742
1824.9	-37.4466
1826.21	-43.4939
1827.52	-31.7015
1828.82	-31.813
1830.13	-34.5589
1831.44	-27.7977
1832.74	-30.8255
1834.05	-41.9376
1835.36	-32.9337
1836.66	-33.6078
1837.97	-40.0829
1839.28	-33.6603
1840.58	-32.8654
1841.89	-39.5878
1843.2	-26.6772
1844.5	-35.7537
1845.81	-42.2443
1847.12	-34.9448
1848.42	-33.9136
1849.73	-36.0029
1851.04	-33.2106
1852.34	-39.1604
1853.65	-42.7411
1854.96	-27.2795
1856.26	-30.9607
1857.57	-39.7297
1858.88	-46.4806
1860.18	-41.0644
1861.49	-21.4223
1862.8	-33.7872
1864.1	-14.1424
1865.41	-40.2152
1866.72	-34.7836
1868.02	-33.2964
1869.33	-32.9585
1870.64	-37.0028
1871.94	-39.276
1873.25	-17.8971
1874.56	-30.8453
1875.86	-30.7193
1877.17	-30.5204
1878.48	-39.4336
1879.78	-32.0633
1881.09	-24.5896
1882.4	-28.0604
1883.7	-40.0312
1885.01	-34.5615
1886.32	-16.1249
1887.62	-24.952
1888.93	-36.7513
1890.24	-27.624
1891.54	-35.1428
1892.85	-31.9323
1894.16	-26.5918
1895.47	-28.0735
1896.77	-39.8106
1898.08	-37.8182
1899.39	-23.1102
1900.69	-28.4705
1902	-26.6656
1903.31	-33.7227
1904.61	-28.0985
1905.92	-33.3454
1907.23	-32.8911
1908.53	-31.478
1909.84	-28.4986
1911.15	-28.3911
1912.45	-22.8333
1913.76	-26.3217
1915.07	-30.643
1916.37	-28.7847
1917.68	-28.6104
1918.99	-19.3942
1920.29	-35.085
1921.6	-29.9941
1922.91	-29.6853
1924.21	-32.7965
1925.52	-32.9339
1926.83	-32.7131
1928.13	-31.3923
1929.44	-44.7438
1930.75	-27.7269
1932.05	-22.3177
1933.36	-23.3862
1934.67	-25.4
1935.97	-29.6266
1937.28	-26.1356
1938.59	-28.6775
1939.89	-28.7514
1941.2	-27.5693
1942.51	-19.0153
1943.81	-25.4793
1945.12	-23.7685
1946.43	-27.8575
1947.73	-32.5982
1949.04	-25.9698
1950.35	-26.7763
1951.65	-27.5279
1952.96	-36.4724
1954.27	-26.7547
1955.57	-24.7621
1956.88	-26.8873
1958.19	-12.9323
1959.49	-25.965
1960.8	-23.1074
1962.11	-24.032
1963.41	-23.5918
1964.72	-31.4963
1966.03	-27.6356
1967.33	-16.4889
1968.64	-0.193825
1969.95	-5.83248
1971.25	-11.4592
1972.56	-22.7709
1973.87	-23.4574
1975.17	-18.2291
1976.48	-13.2384
1977.79	-12.3459
1979.09	-12.2439
1980.4	-13.2619
1981.71	-23.3886
1983.01	-15.8046
1984.32	-13.6231
1985.63	-25.0719
1986.93	-25.3875
1988.24	-19.4655
1989.55	-10.9908
1990.85	-6.3715
1992.16	-19.2533
1993.47	-23.0709
1994.77	-11.897
1996.08	-13.0564
1997.39	-15.6998
1998.69	-16.8054
2000	-13.3294