File: Example Data/Raman/CNT - TIM/Raytheon/Al foil/2011/03-21-11/Al - 8micron - B3 - MW - 5min - bottom_1.txt
300	20.848
301.307	29.875
302.613	33.6992
303.92	40.437
305.227	48.4851
306.533	49.5262
307.84	55.9611
309.147	44.7812
310.453	50.1926
311.76	53.7898
313.067	59.9776
314.374	67.8311
315.68	62.2978
316.987	54.2125
318.294	55.6016
319.6	51.9623
320.907	59.3896
322.214	42.9279
323.52	57.3763
324.827	62.3427
326.134	59.9751
327.44	49.6695
328.747	57.3511
330.054	70.9614
331.361	54.6194
332.667	55.6153
333.974	37.7666
335.281	55.8165
336.587	47.2329
337.894	52.5473
339.201	51.8012
340.507	50.6017
341.814	49.3393
343.121	43.7454
344.427	45.1144
345.734	41.9119
347.041	33.6749
348.347	33.9408
349.654	37.6567
350.961	45.5132
352.267	40.5646
353.574	35.9008
354.881	40.1663
356.188	39.2109
357.494	30.861
358.801	33.6413
360.108	30.3302
361.414	26.4015
362.721	49.9916
364.028	39.6569
365.334	25.3198
366.641	30.6243
367.948	35.914
369.254	27.5423
370.561	33.6217
371.868	13.232
373.174	27.4669
374.481	20.1913
375.788	36.6853
377.095	29.771
378.401	26.4502
379.708	26.1857
381.015	15.2066
382.321	10.4853
383.628	14.6646
384.935	25.4798
386.241	15.3937
387.548	18.5371
388.855	13.6279
390.161	8.86844
391.468	15.4096
392.775	18.9638
394.081	14.623
395.388	17.0019
396.695	16.6776
398.002	15.2131
399.308	8.28254
400.615	19.8342
401.922	25.4601
403.228	11.2116
404.535	3.12695
405.842	12.0492
407.148	21.8762
408.455	18.3852
409.762	11.2985
411.068	9.673
412.375	16.7265
413.682	33.7188
414.988	8.00291
416.295	8.20201
417.602	9.20905
418.909	5.02735
420.215	7.08051
421.522	6.55546
422.829	-6.1056
424.135	10.1533
425.442	2.18042
426.749	12.8775
428.055	10.7105
429.362	0.0989807
430.669	-0.986005
431.975	0.382749
433.282	-2.5471
434.589	-3.20899
435.895	2.00902
437.202	4.51942
438.509	17.8211
439.816	9.49078
441.122	3.36018
442.429	2.01968
443.736	-10.2379
445.042	-6.64567
446.349	-4.03225
447.656	-6.21712
448.962	-3.62784
450.269	-4.02547
451.576	-12.6693
452.882	-6.58801
454.189	-13.7957
455.496	-8.85295
456.802	-13.0499
458.109	1.84907
459.416	-9.53545
460.723	-13.1283
462.029	-4.84745
463.336	-7.4182
464.643	-12.561
465.949	-18.0499
467.256	-9.31973
468.563	-18.3706
469.869	-11.6769
471.176	-25.1154
472.483	-9.41801
473.789	-14.5419
475.096	-21.1073
476.403	-20.5903
477.709	-19.1656
479.016	-13.9531
480.323	-21.0834
481.63	-26.6123
482.936	-7.62126
484.243	-28.3913
485.55	-30.3101
486.856	-20.0399
488.163	-27.8536
489.47	-31.5211
490.776	-30.7078
492.083	-39.1134
493.39	-48.8564
494.696	-43.9959
496.003	-35.1703
497.31	-38.4119
498.616	-37.6684
499.923	-33.9325
501.23	-47.0928
502.536	-44.0231
503.843	-40.1879
505.15	-45.3322
506.457	-49.4498
507.763	-48.6408
509.07	-50.2187
510.377	-50.9593
511.683	-50.3655
512.99	-51.1967
514.297	-42.8975
515.603	-53.144
516.91	-59.0361
518.217	-53.5771
519.523	-46.8274
520.83	-49.5827
522.137	-60.7037
523.443	-59.5391
524.75	-45.6404
526.057	-61.7402
527.364	-61.6
528.67	-39.5333
529.977	-55.2566
531.284	-58.2971
532.59	-51.0517
533.897	-47.0001
535.204	-53.402
536.51	-56.8695
537.817	-61.0554
539.124	-64.991
540.43	-54.1127
541.737	-47.4012
543.044	-63.3592
544.351	-63.5238
545.657	-63.463
546.964	-66.6153
548.271	-46.8945
549.577	-49.2107
550.884	-50.4091
552.191	-47.3008
553.497	-50.4099
554.804	-55.7872
556.111	-53.2046
557.417	-46.7295
558.724	-49.618
560.031	-75.8739
561.337	-49.7797
562.644	-46.0124
563.951	-59.3939
565.258	-61.9258
566.564	-65.237
567.871	-60.7414
569.178	-56.1088
570.484	-56.9916
571.791	-56.273
573.098	-53.568
574.404	-58.0205
575.711	-61.0006
577.018	-56.8199
578.324	-53.2959
579.631	-46.2083
580.938	-58.1529
582.244	-53.6071
583.551	-48.2847
584.858	-50.9824
586.164	-53.0462
587.471	-52.3594
588.778	-53.6068
590.085	-52.1493
591.391	-45.9765
592.698	-54.3533
594.005	-43.6009
595.311	-42.1513
596.618	-47.2961
597.925	-48.1711
599.231	-44.9604
600.538	-47.3081
601.845	-50.3475
603.151	-56.1021
604.458	-51.8297
605.765	-49.3562
607.071	-57.7908
608.378	-51.6931
609.685	-55.2036
610.992	-70.4958
612.298	-44.0545
613.605	-52.5652
614.912	-62.6165
616.218	-52.9719
617.525	-46.2707
618.832	-48.4029
620.138	-47.8227
621.445	-45.8666
622.752	-43.7692
624.058	-42.8203
625.365	-43.943
626.672	-42.2108
627.978	-43.3236
629.285	-39.2902
630.592	-36.9495
631.899	-27.121
633.205	-35.152
634.512	-42.3316
635.819	-38.6731
637.125	-45.935
638.432	-42.9319
639.739	-41.5871
641.045	-37.838
642.352	-32.821
643.659	-42.3326
644.965	-50.4968
646.272	-41.6725
647.579	-32.1872
648.885	-35.476
650.192	-52.4197
651.499	-39.1914
652.806	-32.1454
654.112	-32.7909
655.419	-46.5484
656.726	-37.442
658.032	-36.4023
659.339	-33.649
660.646	-20.4485
661.952	-20.9964
663.259	-32.9754
664.566	-33.0971
665.872	-36.5628
667.179	-30.0077
668.486	-31.1639
669.792	-38.104
671.099	-36.3815
672.406	-45.026
673.713	-40.3322
675.019	-29.9194
676.326	-37.0265
677.633	-32.5276
678.939	-32.217
680.246	-37.3623
681.553	-36.4287
682.859	-41.5459
684.166	-47.3983
685.473	-38.5438
686.779	-38.8825
688.086	-39.0224
689.393	-24.8122
690.699	-26.1515
692.006	-17.3439
693.313	-35.3506
694.62	-48.0503
695.926	-33.7305
697.233	-32.6285
698.54	-26.5324
699.846	-30.1701
701.153	-37.2962
702.46	-34.1758
703.766	-32.7289
705.073	-26.0083
706.38	-29.9534
707.686	-29.1582
708.993	-31.332
710.3	-37.1684
711.606	-14.7866
712.913	-25.9072
714.22	-30.8479
715.526	-38.055
716.833	-21.0535
718.14	-22.4925
719.447	-16.3254
720.753	-15.9275
722.06	-22.5163
723.367	-23.8819
724.673	-23.8551
725.98	-18.6179
727.287	-17.3686
728.593	-32.1724
729.9	-24.6104
731.207	-9.38741
732.513	-19.8707
733.82	-16.5078
735.127	-27.1302
736.434	-20.3328
737.74	-12.6247
739.047	-17.4169
740.354	-21.7922
741.66	-14.8554
742.967	-10.6867
744.274	-17.7466
745.58	-20.6578
746.887	-10.0935
748.194	-2.24012
749.5	-7.70589
750.807	-12.3699
752.114	-10.8569
753.42	9.9967
754.727	-8.10781
756.034	1.16533
757.341	6.2615
758.647	-4.88119
759.954	0.279236
761.261	-12.6977
762.567	-5.55191
763.874	0.369528
765.181	-6.62823
766.487	-6.43517
767.794	3.36171
769.101	8.11143
770.407	11.4141
771.714	11.5428
773.021	-1.49424
774.327	2.1675
775.634	10.2782
776.941	12.1828
778.247	3.21149
779.554	23.3822
780.861	14.9163
782.168	4.39396
783.474	8.65062
784.781	13.6002
786.088	15.7598
787.394	13.3645
788.701	2.91561
790.008	14.5365
791.314	21.9408
792.621	15.0708
793.928	13.2905
795.234	13.4907
796.541	14.3233
797.848	18.1663
799.154	5.60959
800.461	5.10526
801.768	21.6911
803.075	31.8442
804.381	34.3628
805.688	26.1612
806.995	29.3205
808.301	23.6448
809.608	33.8372
810.915	17.6453
812.221	14.8246
813.528	18.164
814.835	30.521
816.141	22.6024
817.448	34.2388
818.755	33.26
820.061	21.1497
821.368	25.152
822.675	25.5532
823.982	23.1946
825.288	25.8127
826.595	31.5311
827.902	26.0967
829.208	39.089
830.515	39.9018
831.822	24.8748
833.128	34.6725
834.435	40.7123
835.742	43.2901
837.048	47.5014
838.355	35.2453
839.662	38.3991
840.969	47.4305
842.275	34.9227
843.582	34.7756
844.889	46.5967
846.195	49.0801
847.502	49.0811
848.809	45.0975
850.115	51.6211
851.422	57.1059
852.729	46.7216
854.035	53.6839
855.342	41.0182
856.649	52.8083
857.955	47.0149
859.262	57.3244
860.569	52.8819
861.875	51.4277
863.182	56.7959
864.489	39.375
865.796	42.089
867.102	36.4482
868.409	38.6918
869.716	51.5477
871.022	52.9174
872.329	38.034
873.636	27.5903
874.942	20.7044
876.249	18.0141
877.556	22.3199
878.862	32.177
880.169	33.1977
881.476	20.5585
882.782	16.8907
884.089	21.9858
885.396	19.6463
886.703	23.9183
888.009	18.3326
889.316	23.3287
890.623	20.2709
891.929	26.8386
893.236	10.9565
894.543	12.411
895.849	16.7798
897.156	19.5007
898.463	13.4955
899.769	7.98424
901.076	28.591
902.383	14.9782
903.689	7.88251
904.996	4.1353
906.303	17.9614
907.61	12.9749
908.916	14.5494
910.223	8.17765
911.53	0.354084
912.836	4.88218
914.143	9.73671
915.45	2.9425
916.756	-0.119606
918.063	4.69184
919.37	4.29377
920.676	4.00002
921.983	3.37777
923.29	12.1593
924.596	9.28636
925.903	-3.66921
927.21	7.70798
928.517	9.85078
929.823	7.77734
931.13	12.7452
932.437	-3.15062
933.743	14.054
935.05	-4.25507
936.357	-1.27172
937.663	5.36696
938.97	15.265
940.277	1.99525
941.583	4.50926
942.89	-3.86606
944.197	-5.10573
945.503	1.45877
946.81	6.3684
948.117	10.3148
949.424	2.47106
950.73	1.34968
952.037	-0.95498
953.344	-6.70845
954.65	-6.51385
955.957	-8.6642
957.264	-12.5623
958.57	-11.1621
959.877	-10.6976
961.184	-16.0842
962.49	-19.8256
963.797	-15.8475
965.104	-23.8079
966.41	-27.2689
967.717	-8.01773
969.024	-15.802
970.331	-6.06175
971.637	-10.0038
972.944	-9.61053
974.251	0.361272
975.557	-22.8669
976.864	-22.1222
978.171	-20.1856
979.477	-6.93893
980.784	-4.55102
982.091	-10.7963
983.397	-23.3494
984.704	-6.52084
986.011	-8.63687
987.317	-21.7799
988.624	-19.825
989.931	-10.5274
991.237	-15.7941
992.544	-10.447
993.851	-6.79633
995.158	-20.1271
996.464	-19.5089
997.771	-15.2761
999.078	-0.950256
1000.38	-4.1227
1001.69	-9.24907
1003	-15.9584
1004.3	-16.0274
1005.61	1.33213
1006.92	-3.67601
1008.22	-9.96333
1009.53	-3.0862
1010.84	-9.06071
1012.14	-8.06903
1013.45	-9.65065
1014.76	-9.28661
1016.06	2.70054
1017.37	5.21947
1018.68	-15.8446
1019.98	-10.7053
1021.29	-1.65254
1022.6	4.70788
1023.9	-3.36932
1025.21	-11.1701
1026.52	-4.34821
1027.82	0.275606
1029.13	-2.93175
1030.44	4.27466
1031.74	14.5783
1033.05	14.0237
1034.36	-1.5093
1035.66	3.88268
1036.97	11.5751
1038.28	2.46951
1039.58	-3.31771
1040.89	3.99666
1042.2	-8.42114
1043.51	18.9798
1044.81	11.3428
1046.12	0.512314
1047.43	10.3459
1048.73	3.15907
1050.04	15.3193
1051.35	2.39612
1052.65	-12.3059
1053.96	8.23808
1055.27	13.6024
1056.57	12.6518
1057.88	20.9435
1059.19	8.21281
1060.49	-3.28958
1061.8	0.236634
1063.11	5.68125
1064.41	-4.71754
1065.72	-12.2167
1067.03	5.66458
1068.33	4.61614
1069.64	11.5754
1070.95	11.3703
1072.25	-6.53331
1073.56	-3.46458
1074.87	8.94301
1076.17	17.1672
1077.48	4.21289
1078.79	-8.56456
1080.09	4.25475
1081.4	8.73936
1082.71	12.0176
1084.01	19.9879
1085.32	11.2145
1086.63	21.9976
1087.93	10.6735
1089.24	0.903363
1090.55	4.98633
1091.85	18.1648
1093.16	18.5023
1094.47	14.9735
1095.77	14.7962
1097.08	9.00141
1098.39	-5.65812
1099.69	-4.77352
1101	8.27898
1102.31	20.8225
1103.61	9.10123
1104.92	8.76345
1106.23	4.7742
1107.53	11.1982
1108.84	17.4044
1110.15	15.2576
1111.45	20.9738
1112.76	23.5017
1114.07	2.8809
1115.37	-0.602261
1116.68	19.4999
1117.99	26.5179
1119.29	20.9136
1120.6	13.4813
1121.91	25.8961
1123.21	4.32537
1124.52	25.7453
1125.83	6.40656
1127.13	15.1604
1128.44	20.634
1129.75	2.93288
1131.05	26.8714
1132.36	19.0118
1133.67	13.0629
1134.97	25.4547
1136.28	24.8339
1137.59	52.9874
1138.89	14.7975
1140.2	24.2807
1141.51	29.5636
1142.81	22.4439
1144.12	28.9814
1145.43	31.3344
1146.73	44.4776
1148.04	54.8468
1149.35	51.7336
1150.65	50.1128
1151.96	59.3215
1153.27	62.2929
1154.57	67.7448
1155.88	55.4451
1157.19	62.5349
1158.49	21.6074
1159.8	46.7737
1161.11	50.4266
1162.41	44.4592
1163.72	34.3003
1165.03	58.6323
1166.33	60.1948
1167.64	45.488
1168.95	66.228
1170.25	59.8431
1171.56	65.0013
1172.87	69.8558
1174.17	71.0594
1175.48	38.5017
1176.79	60.2456
1178.09	57.1287
1179.4	61.9118
1180.71	65.0647
1182.01	56.252
1183.32	58.0807
1184.63	63.9001
1185.93	65.6993
1187.24	74.3408
1188.55	49.6034
1189.85	75.0818
1191.16	57.9534
1192.47	48.0857
1193.77	65.3235
1195.08	76.9893
1196.39	54.9437
1197.69	57.2556
1199	47.2512
1200.31	62.6961
1201.61	68.1184
1202.92	78.5603
1204.23	47.7192
1205.53	55.1546
1206.84	69.7841
1208.15	91.916
1209.45	102.561
1210.76	74.5995
1212.07	81.5184
1213.37	127.265
1214.68	108.538
1215.99	87.6667
1217.29	80.7651
1218.6	113.762
1219.91	110.539
1221.21	108.939
1222.52	122.526
1223.83	118.539
1225.13	111.46
1226.44	133.229
1227.75	141.804
1229.05	133.861
1230.36	139.402
1231.67	147.267
1232.97	142.965
1234.28	148.133
1235.59	174.723
1236.89	157.223
1238.2	157.969
1239.51	168.857
1240.81	165.153
1242.12	193.52
1243.43	197.18
1244.73	214.139
1246.04	223.053
1247.35	229.7
1248.65	231.953
1249.96	238.943
1251.27	230.379
1252.57	239.313
1253.88	254.738
1255.19	264.134
1256.49	256.619
1257.8	281.052
1259.11	277.915
1260.42	307.677
1261.72	291.996
1263.03	304.602
1264.34	331.257
1265.64	323.279
1266.95	328.011
1268.26	359.345
1269.56	363.28
1270.87	358.318
1272.18	364.18
1273.48	389.611
1274.79	401.586
1276.1	415.105
1277.4	428.97
1278.71	445.669
1280.02	461.464
1281.32	464.15
1282.63	475.216
1283.94	501.641
1285.24	516.283
1286.55	529.542
1287.86	547.528
1289.16	568.577
1290.47	591.849
1291.78	599.254
1293.08	607.967
1294.39	637.911
1295.7	657.648
1297	666.656
1298.31	682.964
1299.62	713.391
1300.92	714.919
1302.23	755.564
1303.54	789.577
1304.84	814.543
1306.15	831.897
1307.46	851.774
1308.76	875.794
1310.07	931.106
1311.38	963.178
1312.68	981.425
1313.99	982.933
1315.3	1021.73
1316.6	1028.13
1317.91	1062.85
1319.22	1087.47
1320.52	1132.375
1321.83	1149.34
1323.14	1180
1324.44	1184.04
1325.75	1257.79
1327.06	1256.44
1328.36	1293.73
1329.67	1324.36
1330.98	1333.28
1332.28	1340.45
1333.59	1365.99
1334.9	1405.17
1336.2	1429.58
1337.51	1444.37
1338.82	1434.55
1340.12	1459.22
1341.43	1454.88
1342.74	1470.72
1344.04	1493.49
1345.35	1476.55
1346.66	1451.77
1347.96	1457.68
1349.27	1466.52
1350.58	1471.2
1351.88	1465.15
1353.19	1425.75
1354.5	1401.14
1355.8	1375.87
1357.11	1371.43
1358.42	1384.28
1359.72	1370.99
1361.03	1310.92
1362.34	1326.93
1363.64	1288.14
1364.95	1247.63
1366.26	1247.28
1367.56	1210.84
1368.87	1168.24
1370.18	1132.05
1371.48	1119.53
1372.79	1104.97
1374.1	1086.05
1375.4	1067
1376.71	1030.64
1378.02	997.496
1379.32	970.229
1380.63	937.482
1381.94	906.354
1383.24	890.416
1384.55	852.023
1385.86	830.596
1387.16	815.904
1388.47	777.8125
1389.78	745.681
1391.08	726.727
1392.39	697.231
1393.7	656.887
1395	646.121
1396.31	636.796
1397.62	603.701
1398.92	584.632
1400.23	579.637
1401.54	555.773
1402.84	521.017
1404.15	483.388
1405.46	489.372
1406.76	472.992
1408.07	448.649
1409.38	430.636
1410.68	420.533
1411.99	386.975
1413.3	359.708
1414.6	354.741
1415.91	354.57
1417.22	304.522
1418.52	309.197
1419.83	286.124
1421.14	271.934
1422.44	281.912
1423.75	259.568
1425.06	248.766
1426.36	203.195
1427.67	208.848
1428.98	206.907
1430.28	192.096
1431.59	184.269
1432.9	171.004
1434.2	156.305
1435.51	155.131
1436.82	158.468
1438.12	151.336
1439.43	128.715
1440.74	122.237
1442.04	111.225
1443.35	114.334
1444.66	90.126
1445.96	85.8969
1447.27	80.3465
1448.58	89.7533
1449.88	84.8417
1451.19	102.165
1452.5	80.5151
1453.8	62.6686
1455.11	58.5707
1456.42	53.9166
1457.72	44.6746
1459.03	45.8783
1460.34	55.8734
1461.64	51.215
1462.95	36.002
1464.26	40.9976
1465.56	39.696
1466.87	36.0914
1468.18	14.2245
1469.48	19.7175
1470.79	-5.75332
1472.1	6.67935
1473.41	-10.6733
1474.71	-0.509822
1476.02	6.57815
1477.33	9.48359
1478.63	23.2694
1479.94	0.611452
1481.25	14.7564
1482.55	36.2265
1483.86	47.6513
1485.17	41.4618
1486.47	66.5542
1487.78	64.699
1489.09	74.3723
1490.39	84.5885
1491.7	89.2634
1493.01	101.128
1494.31	108.951
1495.62	113.493
1496.93	121.471
1498.23	140.081
1499.54	150.9
1500.85	150.74
1502.15	160.672
1503.46	176.438
1504.77	175.637
1506.07	183.292
1507.38	176.792
1508.69	182.144
1509.99	213.79
1511.3	229.715
1512.61	235.231
1513.91	254.284
1515.22	239.026
1516.53	237.983
1517.83	287.922
1519.14	300.829
1520.45	280.347
1521.75	306.594
1523.06	334.703
1524.37	346.243
1525.67	355.158
1526.98	377.103
1528.29	361.221
1529.59	387.727
1530.9	406.076
1532.21	404.445
1533.51	419.844
1534.82	461.033
1536.13	460.046
1537.43	473.498
1538.74	499.275
1540.05	531.42
1541.35	578.381
1542.66	597.857
1543.97	634.556
1545.27	659.536
1546.58	644.66
1547.89	915.771
1549.19	1110.41
1550.5	797.464
1551.81	772.872
1553.11	796.77
1554.42	822.913
1555.73	839.967
1557.03	892.982
1558.34	935.684
1559.65	982.205
1560.95	1036.96
1562.26	1041.21
1563.57	1043.11
1564.87	1062.68
1566.18	1123.17
1567.49	1163.89
1568.79	1205.48
1570.1	1245.39
1571.41	1266.79
1572.71	1282.72
1574.02	1341.48
1575.33	1388.95
1576.63	1423.18
1577.94	1473.7
1579.25	1487.8
1580.55	1530.25
1581.86	1553.27
1583.17	1582.99
1584.47	1619.06
1585.78	1651.84
1587.09	1685.5
1588.39	1700.96
1589.7	1708.38
1591.01	1738.19
1592.31	1740.65
1593.62	1761.93
1594.93	1748.92
1596.23	1804.9
1597.54	1787.67
1598.85	1787.99
1600.15	1773.7
1601.46	1784.15
1602.77	1787.02
1604.07	1810.97
1605.38	1744.04
1606.69	1736.47
1607.99	1743.12
1609.3	1719.97
1610.61	1655.52
1611.91	1623.57
1613.22	1637.25
1614.53	1694.84
1615.83	1588.58
1617.14	1505.56
1618.45	1434.31
1619.75	1381.22
1621.06	1351.42
1622.37	1296.01
1623.67	1258.99
1624.98	1179.43
1626.29	1170.39
1627.59	1100.18
1628.9	1035.61
1630.21	1019.45
1631.51	991.641
1632.82	935.829
1634.13	884.767
1635.43	846.697
1636.74	814.69
1638.05	764.409
1639.35	729.094
1640.66	689.487
1641.97	662.54
1643.27	618.622
1644.58	593.219
1645.89	586.711
1647.19	518.282
1648.5	500.988
1649.81	471.925
1651.11	441.735
1652.42	423.9
1653.73	376.564
1655.03	369.589
1656.34	344.735
1657.65	317.549
1658.95	298.654
1660.26	287.714
1661.57	268.802
1662.87	237.678
1664.18	208.54
1665.49	207.601
1666.79	189.715
1668.1	174.122
1669.41	141.494
1670.71	158.801
1672.02	127.36
1673.33	129.932
1674.63	116.438
1675.94	108.5
1677.25	106.705
1678.55	93.8895
1679.86	67.2894
1681.17	59.163
1682.47	48.6908
1683.78	35.2311
1685.09	45.6416
1686.4	54.1712
1687.7	38.5861
1689.01	41.1968
1690.32	10.0292
1691.62	19.0105
1692.93	20.4634
1694.24	21.6547
1695.54	26.881
1696.85	12.4739
1698.16	9.92759
1699.46	11.7023
1700.77	27.8928
1702.08	34.8955
1703.38	22.6357
1704.69	17.7859
1706	13.5431
1707.3	13.0624
1708.61	12.3609
1709.92	4.94997
1711.22	19.3966
1712.53	12.365
1713.84	17.9776
1715.14	5.35297
1716.45	-2.58704
1717.76	-3.79541
1719.06	-5.22525
1720.37	-7.24931
1721.68	2.53065
1722.98	0.2953
1724.29	-3.97737
1725.6	8.77745
1726.9	-1.6807
1728.21	-6.91587
1729.52	-1.55239
1730.82	9.18939
1732.13	-16.8703
1733.44	-20.4915
1734.74	-13.9059
1736.05	-3.60576
1737.36	-1.74095
1738.66	-6.84669
1739.97	-1.96141
1741.28	3.25237
1742.58	4.82877
1743.89	-0.254081
1745.2	-4.47781
1746.5	-3.24108
1747.81	-14.8314
1749.12	-4.68217
1750.42	11.7475
1751.73	5.11584
1753.04	-4.1449
1754.34	-3.5714
1755.65	-0.787576
1756.96	6.68294
1758.26	5.37484
1759.57	3.50674
1760.88	-0.355829
1762.18	-4.3566
1763.49	13.6845
1764.8	12.6683
1766.1	26.9238
1767.41	17.8503
1768.72	11.9616
1770.02	16.8859
1771.33	4.37601
1772.64	6.83656
1773.94	16.4666
1775.25	7.09058
1776.56	-3.4348
1777.86	4.45527
1779.17	16.2806
1780.48	3.59288
1781.78	15.9493
1783.09	1.90203
1784.4	6.55998
1785.7	1.46652
1787.01	-1.717
1788.32	1.31587
1789.62	-1.90081
1790.93	3.79383
1792.24	-3.86926
1793.54	-8.55441
1794.85	-2.29053
1796.16	-0.185619
1797.46	-10.7565
1798.77	-11.7027
1800.08	-0.0130877
1801.38	-12.787
1802.69	-7.10854
1804	-7.26376
1805.3	3.95531
1806.61	-9.32219
1807.92	-7.63502
1809.22	-13.8642
1810.53	-14.8617
1811.84	-12.559
1813.14	2.26984
1814.45	-3.15326
1815.76	-9.93261
1817.06	4.24308
1818.37	-3.88183
1819.68	-2.28358
1820.98	-11.3561
1822.29	-4.83725
1823.6	-2.18501
1824.9	-7.03554
1826.21	-0.264555
1827.52	2.1135
1828.82	7.60209
1830.13	-8.59193
1831.44	-6.50083
1832.74	-9.76232
1834.05	-0.662568
1835.36	-4.07327
1836.66	-8.93582
1837.97	1.38706
1839.28	0.241125
1840.58	-3.31533
1841.89	-1.32857
1843.2	-0.547825
1844.5	-0.170305
1845.81	-3.13811
1847.12	-5.3053
1848.42	-2.47226
1849.73	-4.17677
1851.04	-7.48228
1852.34	2.84071
1853.65	-1.28852
1854.96	-9.45247
1856.26	-0.626098
1857.57	-4.98266
1858.88	5.42508
1860.18	5.11069
1861.49	1.57992
1862.8	-13.2882
1864.1	-9.68338
1865.41	-3.41959
1866.72	0.641251
1868.02	-1.14384
1869.33	3.19117
1870.64	9.06075
1871.94	4.72855
1873.25	-0.304891
1874.56	-6.30751
1875.86	20.2149
1877.17	-5.13844
1878.48	3.4948
1879.78	-2.10531
1881.09	-2.36665
1882.4	-8.21816
1883.7	-3.50667
1885.01	0.464551
1886.32	-1.19168
1887.62	-0.745391
1888.93	0.117908
1890.24	6.22004
1891.54	-3.28881
1892.85	-13.7522
1894.16	1.50587
1895.47	4.34515
1896.77	2.76559
1898.08	-2.7785
1899.39	-5.52685
1900.69	-9.33039
1902	6.48575
1903.31	7.80645
1904.61	11.4307
1905.92	4.33762
1907.23	-1.51634
1908.53	-6.3319
1909.84	-3.82819
1911.15	-1.37043
1912.45	-7.97828
1913.76	-15.782
1915.07	1.02738
1916.37	-6.08695
1917.68	-8.07003
1918.99	-3.50798
1920.29	-1.37242
1921.6	-3.42246
1922.91	2.9281
1924.21	-1.29439
1925.52	3.53617
1926.83	-7.31
1928.13	-18.9545
1929.44	-0.914105
1930.75	3.03742
1932.05	-2.13628
1933.36	-10.4859
1934.67	-2.5953
1935.97	-4.79714
1937.28	-10.0294
1938.59	-3.11412
1939.89	-7.62487
1941.2	-0.235857
1942.51	-13.8438
1943.81	-8.77665
1945.12	-8.96561
1946.43	-14.3981
1947.73	-8.60415
1949.04	-1.50159
1950.35	3.27244
1951.65	-2.37033
1952.96	-13.5347
1954.27	4.92112
1955.57	7.05064
1956.88	-13.6996
1958.19	-5.86753
1959.49	-10.8198
1960.8	-8.85489
1962.11	-1.3892
1963.41	-10.8857
1964.72	-1.31001
1966.03	-0.0794324
1967.33	-6.55514
1968.64	-4.56816
1969.95	6.46367
1971.25	-0.341011
1972.56	-1.20214
1973.87	-4.01993
1975.17	-4.85316
1976.48	-0.402716
1977.79	-2.18367
1979.09	9.95732
1980.4	-8.00172
1981.71	-7.77953
1983.01	-11.9193
1984.32	-11.8661
1985.63	-8.4428
1986.93	-5.19579
1988.24	-1.00022
1989.55	-11.0704
1990.85	-10.9279
1992.16	-0.420698
1993.47	-1.39785
1994.77	0.656429
1996.08	-4.75595
1997.39	5.54587
1998.69	-0.803581
2000	-14.7114