File: Example Data/Raman/CNT - TIM/Raytheon/Al foil/2010/04-03-10/Al - 4-3-10 - run3 - 10 microns - A_1.txt
200	72.1292
202.454	70.8801
204.908	74.6667
207.362	74.4258
209.816	80.0661
212.27	82.6136
214.724	74.3095
217.178	81.7062
219.632	80.9936
222.086	77.4359
224.54	75.6457
226.994	80.6386
229.448	71.9011
231.902	71.2787
234.356	70.637
236.81	78.5946
239.264	72.7342
241.718	74.6785
244.172	78.3252
246.626	81.2863
249.08	79.8677
251.534	74.3845
253.988	76.7075
256.442	72.617
258.896	75.4852
261.35	69.6236
263.804	75.9364
266.258	71.2018
268.712	73.1369
271.166	72.3358
273.62	75.8029
276.074	74.706
278.528	73.5369
280.982	71.2432
283.436	74.616
285.89	70.9804
288.344	65.7383
290.798	66.9058
293.252	68.6686
295.706	68.811
298.16	68.9695
300.613	63.4377
303.067	72.1004
305.521	72.0863
307.975	72.3111
310.429	72.3323
312.883	66.6196
315.337	71.6396
317.791	64.8444
320.245	72.4897
322.699	67
325.153	65.9248
327.607	69.8978
330.061	65.6102
332.515	73.5568
334.969	68.5537
337.423	67.3781
339.877	68.4338
342.331	68.0479
344.785	65.7313
347.239	63.7284
349.693	64.841
352.147	61.3656
354.601	62.6498
357.055	67.6324
359.509	68.0244
361.963	66.1285
364.417	61.7991
366.871	59.9703
369.325	71.5669
371.779	63.1532
374.233	57.633
376.687	66.4622
379.141	59.635
381.595	64.589
384.049	64.3661
386.503	68.8943
388.957	62.577
391.411	58.7864
393.865	62.6872
396.319	66.8663
398.773	63.9474
401.227	65.1084
403.681	68.1695
406.135	58.7389
408.589	66.88
411.043	60.6616
413.497	57.7955
415.951	60.1961
418.405	62.846
420.859	59.7098
423.313	66.5085
425.767	53.5097
428.221	59.1474
430.675	61.8725
433.129	52.4518
435.583	61.5431
438.037	58.7847
440.491	57.3465
442.945	52.2234
445.399	60.9096
447.853	56.0068
450.307	58.2376
452.761	56.097
455.215	55.5381
457.669	51.0012
460.123	55.0288
462.577	54.9133
465.031	52.1306
467.485	60.8169
469.939	55.1441
472.393	52.9948
474.847	55.0753
477.301	52.1676
479.755	54.9743
482.209	56.6412
484.663	53.8321
487.117	53.8839
489.571	56.402
492.025	51.687
494.479	54.2271
496.933	54.2467
499.387	54.3339
501.84	47.1672
504.294	53.2633
506.748	54.3809
509.202	55.6029
511.656	58.8416
514.11	44.3088
516.564	54.5251
519.018	48.4994
521.472	50.7386
523.926	50.5598
526.38	48.8585
528.834	43.2259
531.288	54.121
533.742	54.4498
536.196	48.9819
538.65	50.8386
541.104	49.5449
543.558	48.3966
546.012	56.5373
548.466	51.4598
550.92	47.5249
553.374	53.3877
555.828	50.5913
558.282	52.6231
560.736	51.9326
563.19	54.771
565.644	48.1805
568.098	60.1876
570.552	46.8016
573.006	56.4221
575.46	58.3286
577.914	52.5263
580.368	58.0396
582.822	51.9838
585.276	49.7199
587.73	51.4385
590.184	55.0899
592.638	50.4796
595.092	50.7603
597.546	52.0287
600	47.8245
602.454	53.5897
604.908	52.3967
607.362	59.1777
609.816	56.5329
612.27	53.7291
614.724	57.6835
617.178	50.0908
619.632	59.7001
622.086	49.7413
624.54	60.1873
626.994	57.319
629.448	57.7289
631.902	51.4945
634.356	62.362
636.81	59.6222
639.264	51.1524
641.718	55.61
644.172	59.5118
646.626	60.8631
649.08	54.6892
651.534	66.3895
653.988	55.7019
656.442	56.9588
658.896	54.2942
661.35	59.1032
663.804	54.223
666.258	51.0166
668.712	62.4712
671.166	61.6055
673.62	60.2799
676.074	64.4385
678.528	54.7085
680.982	55.0293
683.436	53.6219
685.89	56.0254
688.344	61.7236
690.798	56.0989
693.252	53.123
695.706	57.9358
698.159	60.7653
700.614	61.7872
703.068	55.3548
705.521	62.1708
707.975	62.9398
710.429	65.9974
712.883	64.0358
715.337	66.3079
717.791	64.6689
720.245	70.4294
722.699	64.5029
725.153	69.349
727.607	67.6833
730.061	66.1586
732.515	66.0775
734.969	69.619
737.423	67.7519
739.877	67.1322
742.331	68.1365
744.785	68.7207
747.239	74.843
749.693	67.5762
752.147	68.8899
754.601	63.716
757.055	74.4766
759.509	71.8432
761.963	71.8341
764.417	69.8408
766.871	69.4118
769.325	80.1957
771.779	69.9861
774.233	76.1334
776.687	84.4064
779.141	76.6294
781.595	81.0611
784.049	70.9954
786.503	77.6794
788.957	70.7227
791.411	76.3206
793.865	76.8911
796.319	82.5226
798.773	77.3047
801.227	75.0342
803.681	74.9767
806.135	74.1909
808.589	73.307
811.043	80.1026
813.497	75.5887
815.951	78.3333
818.405	76.7184
820.859	79.9524
823.313	84.9685
825.767	79.8782
828.221	79.9337
830.675	85.1941
833.129	81.359
835.583	79.9836
838.037	79.8601
840.491	82.2268
842.945	81.6711
845.399	80.7459
847.853	81.6586
850.307	84.8007
852.761	83.3486
855.215	79.0752
857.669	82.1814
860.123	94.3385
862.577	75.0209
865.031	84.5439
867.485	81.3259
869.939	78.08
872.393	80.2338
874.847	78.3156
877.301	80.5421
879.755	69.6822
882.209	76.6667
884.663	73.8682
887.117	81.8525
889.571	70.5843
892.025	74.1939
894.479	76.2353
896.932	71.7319
899.386	65.6942
901.841	65.5889
904.294	72.1986
906.748	69.5346
909.202	73.3333
911.656	70.7567
914.11	72.0439
916.564	67.7063
919.018	69.9834
921.472	61.8097
923.926	72.652
926.38	69.6747
928.834	74.8863
931.288	67.1948
933.742	63.1849
936.196	69.4822
938.65	60.2568
941.104	70.32
943.558	69.0287
946.012	68.1588
948.466	67.215
950.92	67.8461
953.374	64.4757
955.828	70.9252
958.282	69.3658
960.736	61.801
963.19	72.8343
965.644	76.5092
968.098	71.7112
970.552	73.477
973.006	65.9601
975.46	64.1077
977.914	64.2439
980.368	70.2533
982.822	64.474
985.276	75.1121
987.73	71.9928
990.184	69.2419
992.638	70.8851
995.092	71.9751
997.546	72.5769
1000	76.1961
1002.45	76.0768
1004.91	71.1092
1007.36	61.2657
1009.82	69.4672
1012.27	82.6978
1014.72	71
1017.18	76.1299
1019.63	79.4703
1022.09	80.945
1024.54	77.8009
1026.99	79.7471
1029.45	79.7614
1031.9	90.2676
1034.36	87.1753
1036.81	86.2659
1039.26	80.3426
1041.72	86.9442
1044.17	82.6913
1046.63	93.5821
1049.08	89.5869
1051.53	95.38
1053.99	89.2253
1056.44	96.1954
1058.9	100.835
1061.35	88.9838
1063.8	84.2902
1066.26	92.3333
1068.71	92.1536
1071.17	97.2074
1073.62	101.965
1076.07	104.958
1078.53	99.9714
1080.98	94.1729
1083.44	96.9419
1085.89	105.808
1088.34	101.55
1090.8	101.273
1093.25	91.5861
1095.71	112.509
1098.16	110.115
1100.61	103.604
1103.07	105.754
1105.52	112.999
1107.98	111.56
1110.43	109.825
1112.88	111.974
1115.34	115.259
1117.79	112.532
1120.25	115.377
1122.7	112.598
1125.15	120.474
1127.61	123.122
1130.06	126.068
1132.52	134.363
1134.97	131.979
1137.42	135.163
1139.88	131.645
1142.33	145.391
1144.79	137.464
1147.24	150.664
1149.69	152.377
1152.15	151.022
1154.6	148.207
1157.06	155.488
1159.51	161.412
1161.96	156.333
1164.42	155.232
1166.87	156.338
1169.33	162.04
1171.78	163.189
1174.23	161.371
1176.69	162.84
1179.14	166.723
1181.6	171.216
1184.05	165.945
1186.5	173.044
1188.96	163.488
1191.41	179.996
1193.86	179.13
1196.32	174.096
1198.77	181.49
1201.23	175.049
1203.68	183.704
1206.14	175.47
1208.59	178.382
1211.04	183.685
1213.5	181.566
1215.95	178.523
1218.4	178.064
1220.86	182.817
1223.31	188.671
1225.77	190.019
1228.22	207.597
1230.67	193.576
1233.13	192.636
1235.58	206.787
1238.04	206.443
1240.49	205.363
1242.94	212.191
1245.4	219.301
1247.85	235.073
1250.31	222.407
1252.76	229.928
1255.21	238.968
1257.67	235.199
1260.12	227.924
1262.58	240.204
1265.03	252.881
1267.48	263.864
1269.94	250.875
1272.39	253.024
1274.85	272.964
1277.3	269.95
1279.75	285.137
1282.21	283.228
1284.66	294.753
1287.12	305.464
1289.57	307.378
1292.02	333.214
1294.48	330.015
1296.93	341.747
1299.39	340.297
1301.84	349.781
1304.29	355.342
1306.75	363.88
1309.2	397.263
1311.66	402.224
1314.11	407.257
1316.56	390.99
1319.02	421.804
1321.47	418.876
1323.93	424.684
1326.38	437.565
1328.83	458.274
1331.29	455.874
1333.74	458.326
1336.2	463.016
1338.65	476.237
1341.1	459.416
1343.56	473.553
1346.01	482.139
1348.47	482.235
1350.92	473.359
1353.37	465.918
1355.83	468.458
1358.28	464.726
1360.74	447.045
1363.19	458.519
1365.64	456.342
1368.1	455.85
1370.55	422.23
1373.01	425.099
1375.46	423.068
1377.91	389.489
1380.37	390.04
1382.82	394.49
1385.28	372.911
1387.73	380.026
1390.18	377.342
1392.64	361.228
1395.09	364.172
1397.55	335.399
1400	335.142
1402.45	336.447
1404.91	334.319
1407.36	314.971
1409.82	321.252
1412.27	317.393
1414.72	324.96
1417.18	309.724
1419.63	297.125
1422.09	291.061
1424.54	294.554
1426.99	284.06
1429.45	295.075
1431.9	270.032
1434.36	294.817
1436.81	281.768
1439.26	292.01
1441.72	266.741
1444.17	277.849
1446.63	272.091
1449.08	268.324
1451.53	258.448
1453.99	258.323
1456.44	277.446
1458.9	261.417
1461.35	267.586
1463.8	258.238
1466.26	258.945
1468.71	264.573
1471.17	267.887
1473.62	261.456
1476.07	261.944
1478.53	273.213
1480.98	256.436
1483.44	257.334
1485.89	256.043
1488.34	258.744
1490.8	260.002
1493.25	254.662
1495.71	264.635
1498.16	259.912
1500.61	264.218
1503.07	250.418
1505.52	261.643
1507.98	269.997
1510.43	266.417
1512.88	258.922
1515.34	261.883
1517.79	262.176
1520.25	270.111
1522.7	276.028
1525.15	268.25
1527.61	266.167
1530.06	263.631
1532.52	271.262
1534.97	271.107
1537.42	282.056
1539.88	282.898
1542.33	289.731
1544.79	289.796
1547.24	299.397
1549.69	294.703
1552.15	316.31
1554.6	323.529
1557.06	327.868
1559.51	338.167
1561.96	332.889
1564.42	353.493
1566.87	357.516
1569.33	361.32
1571.78	373.373
1574.23	379.982
1576.69	385.49
1579.14	408.214
1581.6	430.288
1584.05	438.116
1586.5	447.355
1588.96	454.6
1591.41	490.93
1593.86	496.587
1596.32	501.464
1598.77	496.77
1601.23	502.161
1603.68	503.056
1606.14	490.267
1608.59	497.969
1611.04	481.243
1613.5	463.227
1615.95	441.666
1618.4	443.52
1620.86	397.638
1623.31	372.185
1625.77	345.808
1628.22	341.255
1630.67	313.829
1633.13	297.69
1635.58	277.965
1638.04	256.3
1640.49	243.966
1642.94	229.666
1645.4	224.254
1647.85	202.043
1650.31	190.486
1652.76	194.507
1655.21	174.518
1657.67	172.197
1660.12	154.692
1662.58	150.388
1665.03	146.18
1667.48	131.932
1669.94	123.988
1672.39	125.111
1674.85	115.948
1677.3	114.539
1679.75	100.996
1682.21	90.2183
1684.66	90.1656
1687.12	82.9623
1689.57	78.701
1692.02	83.4817
1694.48	72.7357
1696.93	79.9478
1699.39	73.7107
1701.84	72.3758
1704.29	73.1233
1706.75	68.713
1709.2	66.4642
1711.66	74.0473
1714.11	59.793
1716.56	68.3648
1719.02	66.9301
1721.47	70.3664
1723.93	60.4297
1726.38	60.2504
1728.83	59.0665
1731.29	52.4043
1733.74	56.9527
1736.2	58.3817
1738.65	59.3605
1741.1	54.7962
1743.56	56.8329
1746.01	52.7935
1748.47	55.5465
1750.92	54.7826
1753.37	53.7787
1755.83	55.4295
1758.28	57.5025
1760.74	48.7389
1763.19	51.1854
1765.64	52.7927
1768.1	52.5954
1770.55	55.324
1773.01	48.8351
1775.46	51.3847
1777.91	52.9185
1780.37	54.3688
1782.82	52.4639
1785.28	53.4254
1787.73	48.1587
1790.18	47.7959
1792.64	51.1778
1795.09	47.8936
1797.55	52.229
1800	50.401
1802.45	52.6959
1804.91	49.9576
1807.36	51.7966
1809.82	45.345
1812.27	45.4585
1814.72	52.1598
1817.18	45.469
1819.63	51.6307
1822.09	58.1224
1824.54	48.5645
1826.99	57.2611
1829.45	50.9641
1831.9	52.1814
1834.36	47.5435
1836.81	41.0315
1839.26	47.2713
1841.72	51.3962
1844.17	51.9203
1846.63	47.0797
1849.08	47.0097
1851.53	50.288
1853.99	47.1466
1856.44	48.2225
1858.9	44.4031
1861.35	52.4671
1863.8	53.3586
1866.26	54.0916
1868.71	46.5017
1871.17	47.4571
1873.62	51.5117
1876.07	45.1359
1878.53	52.0931
1880.98	48.9687
1883.44	50.4533
1885.89	46.6835
1888.34	50.7401
1890.8	46.6815
1893.25	49.2913
1895.71	47.5455
1898.16	47.5182
1900.61	42.2669
1903.07	50.4652
1905.52	48.2143
1907.98	49.4034
1910.43	50.0979
1912.88	44.6487
1915.34	53.0953
1917.79	55.5585
1920.25	51.8847
1922.7	52.6996
1925.15	46.1299
1927.61	57.6681
1930.06	43.397
1932.52	48.014
1934.97	49.9375
1937.42	51.6826
1939.88	55.4513
1942.33	50.9592
1944.79	55.0672
1947.24	51.6461
1949.69	45.3029
1952.15	48.7298
1954.6	53.4938
1957.06	51.118
1959.51	45.8096
1961.96	48.4915
1964.42	44.5438
1966.87	50.5805
1969.33	59.0254
1971.78	50.0047
1974.23	50.43
1976.69	49.5999
1979.14	50.5168
1981.6	49.6331
1984.05	55.2594
1986.5	51.7807
1988.96	54.896
1991.41	50.3333
1993.86	50.8824
1996.32	53.2631
1998.77	52.448
2001.23	52.9137
2003.68	50.2545
2006.14	53.3968
2008.59	55.8582
2011.04	49.0322
2013.5	53.8279
2015.95	50.6252
2018.4	51.0193
2020.86	48.9132
2023.31	50.9831
2025.77	51.0678
2028.22	51.2331
2030.67	57.3729
2033.13	49.3643
2035.58	49.2678
2038.04	47.2165
2040.49	54.4539
2042.94	49.9244
2045.4	48.1798
2047.85	52.0447
2050.31	51.916
2052.76	53.0718
2055.21	50.3934
2057.67	52.68
2060.12	55.8689
2062.58	56.0943
2065.03	53.318
2067.48	52.365
2069.94	56.5451
2072.39	50.8617
2074.85	55.1771
2077.3	49.5631
2079.75	52.6947
2082.21	55.6855
2084.66	54.8143
2087.12	53.1767
2089.57	50.3272
2092.02	51.094
2094.48	55.2426
2096.93	53.8643
2099.39	50.5658
2101.84	59.6264
2104.29	60.9318
2106.75	59.1757
2109.2	49.5699
2111.66	52.2252
2114.11	49.8692
2116.56	53.2068
2119.02	50.0322
2121.47	44.8577
2123.93	47.9738
2126.38	47.6851
2128.83	46.764
2131.29	51.6459
2133.74	56.1592
2136.2	55.2703
2138.65	49.5968
2141.1	48.2372
2143.56	54.0976
2146.01	59.3894
2148.47	49.7691
2150.92	50.3854
2153.37	57.8728
2155.83	52.4097
2158.28	58.4572
2160.74	46.8788
2163.19	50.31
2165.64	51.3283
2168.1	51.1952
2170.55	55.9503
2173.01	57.5487
2175.46	54.2051
2177.91	56.9733
2180.37	50.2873
2182.82	55.9537
2185.28	52.2356
2187.73	62.0509
2190.18	59.3826
2192.64	53.0055
2195.09	55.9585
2197.55	57.8694
2200	53.3699
2202.45	56.8771
2204.91	54.4789
2207.36	57.8035
2209.82	58.0672
2212.27	51.323
2214.72	59.1798
2217.18	57.9164
2219.63	57.8146
2222.09	54.2201
2224.54	52.6838
2226.99	49.9658
2229.45	50.6137
2231.9	56.6792
2234.36	59.5691
2236.81	58.4441
2239.26	58.5482
2241.72	59.4715
2244.17	57.3634
2246.63	59.3985
2249.08	59.084
2251.53	60.1614
2253.99	51.455
2256.44	57.4911
2258.9	59.4887
2261.35	57.983
2263.8	59.5301
2266.26	58.0665
2268.71	62.3296
2271.17	59.2896
2273.62	60.3702
2276.07	58.7642
2278.53	61.4408
2280.98	63.9493
2283.44	60.3422
2285.89	55.9903
2288.34	60.0881
2290.8	65.0882
2293.25	62.1786
2295.71	62.108
2298.16	59.3504
2300.61	60.386
2303.07	56.0114
2305.52	59.6937
2307.98	56.4276
2310.43	60.102
2312.88	58.1042
2315.34	58.574
2317.79	61.7796
2320.25	56.1501
2322.7	57.0855
2325.15	62.5684
2327.61	67.2284
2330.06	89.7743
2332.52	82.5484
2334.97	59.6926
2337.42	61.1078
2339.88	59.786
2342.33	61.4135
2344.79	63.1012
2347.24	59.5046
2349.69	61.1048
2352.15	64.9694
2354.6	67.0319
2357.06	64.1007
2359.51	68.128
2361.96	64.9041
2364.42	61.5323
2366.87	61.6246
2369.33	61.8975
2371.78	70.1434
2374.23	67.7624
2376.69	65.986
2379.14	63.2348
2381.59	66.292
2384.05	66.0276
2386.5	64.1352
2388.96	63.1679
2391.41	69.3992
2393.86	71.578
2396.32	67.66
2398.77	70.7149
2401.23	70.1352
2403.68	71.7672
2406.14	68.1258
2408.59	71.4569
2411.04	70.8764
2413.5	68.6954
2415.95	70.5201
2418.41	74.8732
2420.86	72.7986
2423.31	72.9551
2425.77	68.9702
2428.22	70.0488
2430.67	72.9382
2433.13	76.3382
2435.58	74.6219
2438.04	77.3471
2440.49	70.9507
2442.94	71.6423
2445.4	72.0733
2447.85	76.8566
2450.31	76.7544
2452.76	72.8466
2455.21	78.5974
2457.67	71.3136
2460.12	81.0802
2462.58	79.036
2465.03	71.3619
2467.48	78.4477
2469.94	74.3171
2472.39	80.8685
2474.85	74.4521
2477.3	73.1318
2479.75	79.84
2482.21	75.7958
2484.66	76.6036
2487.12	76.5506
2489.57	77.3728
2492.02	75.3776
2494.48	79.6712
2496.93	82.3003
2499.39	82.7912
2501.84	79.631
2504.29	78.7892
2506.75	82.5465
2509.2	83.82
2511.66	77.2169
2514.11	83.7831
2516.56	85.0871
2519.02	81.5831
2521.47	87.0428
2523.93	81.2064
2526.38	84.5402
2528.83	84.219
2531.29	91.4778
2533.74	84.6151
2536.2	86.4814
2538.65	91.9258
2541.1	89.1044
2543.56	84.5571
2546.01	87.6319
2548.47	84.7706
2550.92	102.581
2553.37	90.7657
2555.83	89.6114
2558.28	91.8381
2560.74	90.5908
2563.19	94.1051
2565.64	93.9125
2568.1	88.3881
2570.55	92.5866
2573.01	95.3586
2575.46	95.3186
2577.91	98.6024
2580.37	100.464
2582.82	101.793
2585.28	93.5449
2587.73	99.4835
2590.18	88.1763
2592.64	98.7963
2595.09	95.358
2597.55	93.5946
2600	109.816
2602.45	100.807
2604.91	94.6123
2607.36	96.5473
2609.82	104.081
2612.27	104.414
2614.72	110.075
2617.18	106.53
2619.63	93.7977
2622.09	97.0512
2624.54	104.992
2626.99	101.781
2629.45	106.351
2631.9	116.467
2634.36	112.023
2636.81	112.075
2639.26	113.835
2641.72	109.125
2644.17	112.975
2646.63	103.779
2649.08	116.518
2651.53	105.935
2653.99	123.554
2656.44	112.089
2658.9	118.794
2661.35	113.579
2663.8	126.667
2666.26	117.995
2668.71	116.933
2671.17	117.485
2673.62	117.221
2676.07	110.044
2678.53	115.322
2680.98	115.723
2683.44	123.12
2685.89	116.855
2688.34	128.014
2690.8	118.051
2693.25	116.158
2695.71	120.465
2698.16	112.493
2700.61	115.035
2703.07	116.333
2705.52	119.6
2707.98	118.823
2710.43	102.359
2712.88	122.496
2715.34	124.633
2717.79	116.14
2720.25	125.265
2722.7	114.002
2725.15	114.325
2727.61	118.315
2730.06	118.816
2732.52	122.352
2734.97	119.37
2737.42	111.391
2739.88	111.906
2742.33	115.275
2744.79	108.601
2747.24	110.758
2749.69	117.248
2752.15	114.475
2754.6	115.933
2757.06	117.522
2759.51	100.747
2761.96	112.541
2764.42	116.54
2766.87	105.439
2769.33	105.544
2771.78	105.853
2774.23	115.298
2776.69	118.824
2779.14	121.989
2781.59	109.174
2784.05	117.517
2786.5	114.048
2788.96	107.166
2791.41	111.239
2793.86	110.866
2796.32	118.903
2798.77	114.016
2801.23	112.069
2803.68	119.012
2806.14	109.044
2808.59	109.485
2811.04	111.834
2813.5	109.777
2815.95	108.442
2818.41	115.044
2820.86	116.443
2823.31	114.078
2825.77	104.491
2828.22	106.669
2830.67	108.622
2833.13	114.231
2835.58	117.404
2838.04	112.77
2840.49	108.173
2842.94	108.163
2845.4	115.955
2847.85	103.677
2850.31	119.772
2852.76	113.983
2855.21	115.942
2857.67	114.447
2860.12	115.193
2862.58	122.714
2865.03	100.803
2867.48	114
2869.94	118.021
2872.39	121.621
2874.85	120.164
2877.3	127.845
2879.75	112.402
2882.21	114.986
2884.66	122.813
2887.12	123.831
2889.57	115.777
2892.02	120.766
2894.48	132.296
2896.93	122.418
2899.39	120.101
2901.84	124.603
2904.29	128.727
2906.75	117.125
2909.2	121.944
2911.66	123.797
2914.11	127.707
2916.56	125.191
2919.02	122.699
2921.47	119.885
2923.93	130.687
2926.38	122.277
2928.83	113.015
2931.29	128.931
2933.74	130.562
2936.2	114.986
2938.65	127.023
2941.1	124.776
2943.56	122.202
2946.01	121.829
2948.47	119.657
2950.92	117.353
2953.37	116.763
2955.83	119.655
2958.28	119.079
2960.74	114.592
2963.19	122.827
2965.64	114.214
2968.1	112.051
2970.55	110.003
2973.01	117.804
2975.46	117.08
2977.91	110.036
2980.37	106.559
2982.82	107.278
2985.28	104.468
2987.73	104.93
2990.18	101.798
2992.64	108.296
2995.09	101.384
2997.55	105.338
3000	102.729