File: Example Data/Raman/CNT - TIM/Raytheon/Al foil/2010/04-03-10/Al - 4-3-10 - run3 - 25 microns - A_1.txt
200	60.0319
202.454	64.7961
204.908	64.8428
207.362	70.7048
209.816	69
212.27	75.9532
214.724	70.9714
217.178	67.9184
219.632	72.6187
222.086	78.5876
224.54	65.3333
226.994	66.6506
229.448	70.37
231.902	74.509
234.356	83.3403
236.81	73.104
239.264	71.3024
241.718	69.8183
244.172	71
246.626	77.0936
249.08	73.5159
251.534	70.7687
253.988	71.6021
256.442	70.2127
258.896	67.277
261.35	66.159
263.804	71.8987
266.258	69.6053
268.712	69.3768
271.166	80.9823
273.62	68.0481
276.074	72.2942
278.528	66.4277
280.982	66.6066
283.436	69.4861
285.89	75.6992
288.344	64.3907
290.798	73
293.252	70.3341
295.706	70.6375
298.16	72.9848
300.613	72.7833
303.067	62.8332
305.521	69.6275
307.975	61.0267
310.429	68.4623
312.883	66.3142
315.337	63.5781
317.791	66.3445
320.245	66.739
322.699	66.501
325.153	64.624
327.607	61.7011
330.061	66.6538
332.515	70.0253
334.969	65.2203
337.423	63.495
339.877	73.3691
342.331	67.6469
344.785	55.0647
347.239	57.8302
349.693	60.6514
352.147	68.9051
354.601	59.8062
357.055	70.9
359.509	61.6469
361.963	61.7687
364.417	65.6329
366.871	67.9698
369.325	62.993
371.779	62.0626
374.233	63.071
376.687	58.7547
379.141	61.2128
381.595	56.6602
384.049	63.3552
386.503	60.0566
388.957	59.9907
391.411	63.8683
393.865	56.9519
396.319	56.3333
398.773	59.8538
401.227	66.979
403.681	60.2347
406.135	56.3678
408.589	64.0476
411.043	56.4257
413.497	55.8221
415.951	56.0002
418.405	58.3406
420.859	61.8172
423.313	62.2212
425.767	59.9118
428.221	58.2404
430.675	54.6667
433.129	54.8926
435.583	52.476
438.037	57.0517
440.491	58.5395
442.945	55.5861
445.399	52.9377
447.853	56.8243
450.307	52.7362
452.761	54.526
455.215	56.1269
457.669	54.5552
460.123	56.3477
462.577	52.1465
465.031	55.117
467.485	52.35
469.939	56.9549
472.393	54.5328
474.847	54.7484
477.301	55.7067
479.755	47.5334
482.209	50.1959
484.663	56.0458
487.117	53.7916
489.571	50.1998
492.025	48.6837
494.479	42.3784
496.933	53.1664
499.387	47.0315
501.84	49.8328
504.294	47.0621
506.748	45.0259
509.202	52.3584
511.656	41.4465
514.11	49.3104
516.564	50.2082
519.018	51.4005
521.472	48.3333
523.926	46.1495
526.38	47.3198
528.834	47.1074
531.288	52.733
533.742	49.3097
536.196	48.5928
538.65	48.4945
541.104	49.6635
543.558	49.6508
546.012	43.318
548.466	48.5041
550.92	56.4002
553.374	50.6228
555.828	48.8174
558.282	54.2889
560.736	43.6087
563.19	47.5359
565.644	47.1285
568.098	45.8088
570.552	45.4337
573.006	48.3333
575.46	44.6779
577.914	55.9825
580.368	49.8461
582.822	53.769
585.276	43.0956
587.73	52.385
590.184	52.2571
592.638	51.9703
595.092	42.7603
597.546	52.992
600	54.544
602.454	52.9692
604.908	49.4417
607.362	48.1184
609.816	44.73
612.27	47.0206
614.724	56.4585
617.178	59.376
619.632	51.6934
622.086	55.6719
624.54	53.1397
626.994	51.7535
629.448	57.3962
631.902	58.7179
634.356	54.6031
636.81	56.1737
639.264	53.3064
641.718	51.6356
644.172	55.8591
646.626	56.7832
649.08	53.9504
651.534	55.621
653.988	56.7977
656.442	57.9026
658.896	58.1175
661.35	56.0754
663.804	57.4439
666.258	54.5272
668.712	52.6436
671.166	52.8368
673.62	59.4843
676.074	57.9821
678.528	59.5002
680.982	57.3781
683.436	54.9851
685.89	62.6804
688.344	56.6012
690.798	59.4065
693.252	56.6148
695.706	63.4349
698.159	58.4384
700.614	58.2886
703.068	58.7034
705.521	61.5288
707.975	61.9466
710.429	67.9017
712.883	60.5594
715.337	60.5815
717.791	58.7652
720.245	58.9376
722.699	61.4615
725.153	61.8412
727.607	68.5241
730.061	66.2643
732.515	65.9729
734.969	63.9524
737.423	67.6575
739.877	60.9582
742.331	67.7586
744.785	70.1568
747.239	63.1627
749.693	68.1089
752.147	66.9291
754.601	64.7109
757.055	70.4986
759.509	68.1278
761.963	67.3318
764.417	69.172
766.871	66.3529
769.325	69.1841
771.779	70.8526
774.233	66.333
776.687	71.0968
779.141	67.6418
781.595	71.927
784.049	68.6667
786.503	72.8139
788.957	69.3877
791.411	73.5877
793.865	71.2218
796.319	72
798.773	69.7894
801.227	73.6667
803.681	68.5115
806.135	71.6084
808.589	78.3178
811.043	79.4586
813.497	72.1462
815.951	77.5538
818.405	79.4741
820.859	73.4594
823.313	78.5157
825.767	69.1323
828.221	73.0529
830.675	78.7105
833.129	76.1253
835.583	79.178
838.037	70.7311
840.491	72.2747
842.945	76.8322
845.399	75.0353
847.853	75.0388
850.307	77.8421
852.761	73.658
855.215	80.547
857.669	72.8439
860.123	69.7026
862.577	71.5459
865.031	82.1228
867.485	80.8411
869.939	76.8582
872.393	81.4397
874.847	75.3451
877.301	70.4209
879.755	75.6389
882.209	76.0371
884.663	77.5108
887.117	72.6482
889.571	71.4753
892.025	72.9468
894.479	69.2216
896.932	67.6442
899.386	64.3223
901.841	67.1779
904.294	67.2816
906.748	65.7256
909.202	66.0399
911.656	65.6126
914.11	66.4035
916.564	57.0726
919.018	62.1641
921.472	64.5326
923.926	68.4203
926.38	63.9406
928.834	61.5674
931.288	62.9513
933.742	67.112
936.196	61.4465
938.65	70.4669
941.104	61.392
943.558	58.0666
946.012	62.1798
948.466	64.2123
950.92	56.7948
953.374	64.6292
955.828	67.2874
958.282	62.1167
960.736	67.5959
963.19	66.1919
965.644	59.6138
968.098	60.7558
970.552	57.8257
973.006	61.2586
975.46	71.2039
977.914	67.92
980.368	72.6929
982.822	62.9037
985.276	64.6205
987.73	73.0425
990.184	65.0223
992.638	68.4828
995.092	70.8753
997.546	74.7947
1000	71.647
1002.45	72.2932
1004.91	71.3521
1007.36	67.3289
1009.82	69.6667
1012.27	76.8113
1014.72	74.479
1017.18	73.5368
1019.63	76.8168
1022.09	78.3333
1024.54	82.6676
1026.99	83.0973
1029.45	74.606
1031.9	82.2382
1034.36	82.8385
1036.81	78.1011
1039.26	80.7407
1041.72	81.8143
1044.17	83.5599
1046.63	91.9609
1049.08	83.0298
1051.53	89.4927
1053.99	91.9126
1056.44	78.0857
1058.9	89.4395
1061.35	87.244
1063.8	87.0804
1066.26	89.5111
1068.71	86.6919
1071.17	96.2703
1073.62	83.4949
1076.07	81.2558
1078.53	96.6667
1080.98	97.2827
1083.44	97.0392
1085.89	90.9691
1088.34	96.7838
1090.8	102.003
1093.25	99.4143
1095.71	100
1098.16	103.113
1100.61	104.753
1103.07	108.039
1105.52	103.249
1107.98	103.302
1110.43	104.758
1112.88	113.169
1115.34	108.357
1117.79	110.892
1120.25	114.208
1122.7	104.639
1125.15	116.024
1127.61	111.258
1130.06	112.912
1132.52	121.955
1134.97	130.168
1137.42	121.317
1139.88	128.945
1142.33	125.595
1144.79	136.775
1147.24	134.334
1149.69	134.921
1152.15	136.87
1154.6	141.931
1157.06	139.49
1159.51	139.724
1161.96	152.086
1164.42	148.16
1166.87	155.271
1169.33	142.765
1171.78	150.095
1174.23	159.717
1176.69	150.579
1179.14	164.884
1181.6	157.951
1184.05	163.844
1186.5	162.601
1188.96	151.072
1191.41	161.089
1193.86	158.474
1196.32	157.564
1198.77	158.929
1201.23	157.033
1203.68	163.773
1206.14	175.333
1208.59	168.651
1211.04	182.014
1213.5	185.117
1215.95	181.763
1218.4	180.748
1220.86	175.144
1223.31	189.383
1225.77	185.754
1228.22	184.836
1230.67	186.82
1233.13	215.546
1235.58	201.244
1238.04	201.765
1240.49	207.027
1242.94	202.169
1245.4	209.725
1247.85	210.107
1250.31	216.413
1252.76	218.059
1255.21	227.978
1257.67	237.604
1260.12	232.967
1262.58	237.101
1265.03	227.782
1267.48	243.463
1269.94	244.116
1272.39	254.262
1274.85	258.893
1277.3	285.262
1279.75	276.382
1282.21	282.526
1284.66	281.419
1287.12	288.334
1289.57	304.714
1292.02	305.787
1294.48	309.838
1296.93	332.516
1299.39	335.45
1301.84	347.841
1304.29	361.099
1306.75	368.744
1309.2	391.981
1311.66	386.948
1314.11	394.983
1316.56	406.541
1319.02	409.659
1321.47	424.859
1323.93	445.273
1326.38	471.276
1328.83	457.706
1331.29	478.151
1333.74	486.978
1336.2	493.659
1338.65	492.273
1341.1	470.742
1343.56	492.188
1346.01	489.258
1348.47	487.168
1350.92	493.488
1353.37	472.308
1355.83	483.883
1358.28	469.92
1360.74	455.504
1363.19	461.162
1365.64	451.104
1368.1	453.678
1370.55	435.436
1373.01	418.326
1375.46	418.021
1377.91	406.236
1380.37	385.214
1382.82	378.264
1385.28	384.188
1387.73	359.848
1390.18	364.459
1392.64	361.125
1395.09	350.377
1397.55	346.249
1400	330.883
1402.45	328.94
1404.91	324.775
1407.36	311.578
1409.82	302.5
1412.27	298.814
1414.72	302.055
1417.18	273.459
1419.63	296.361
1422.09	274.364
1424.54	280.176
1426.99	283.394
1429.45	279.126
1431.9	275.415
1434.36	271.183
1436.81	264.765
1439.26	254.328
1441.72	259.893
1444.17	259.604
1446.63	272.434
1449.08	255.486
1451.53	262.727
1453.99	243.124
1456.44	257.502
1458.9	261.104
1461.35	250.269
1463.8	252.097
1466.26	256.629
1468.71	242.831
1471.17	251.211
1473.62	227.634
1476.07	242.082
1478.53	245.806
1480.98	250.442
1483.44	246.557
1485.89	245.974
1488.34	249.079
1490.8	251.404
1493.25	241.962
1495.71	256.124
1498.16	256.002
1500.61	244.621
1503.07	248.018
1505.52	250.753
1507.98	252.417
1510.43	249.39
1512.88	255.892
1515.34	256.121
1517.79	252.342
1520.25	259.833
1522.7	253.296
1525.15	257.074
1527.61	256.515
1530.06	274.328
1532.52	264.144
1534.97	267.37
1537.42	270.394
1539.88	273.34
1542.33	271.162
1544.79	290.069
1547.24	279.911
1549.69	291.854
1552.15	304.681
1554.6	315.307
1557.06	316.225
1559.51	311.946
1561.96	343.203
1564.42	341.074
1566.87	354.313
1569.33	377.81
1571.78	370.238
1574.23	399.888
1576.69	404.808
1579.14	409.989
1581.6	439.634
1584.05	439.582
1586.5	462.556
1588.96	483.844
1591.41	483.023
1593.86	509.738
1596.32	514.084
1598.77	520.916
1601.23	514.598
1603.68	526.826
1606.14	520.128
1608.59	513.362
1611.04	497.393
1613.5	488.391
1615.95	460.663
1618.4	452.52
1620.86	429.246
1623.31	402.332
1625.77	383.433
1628.22	354.073
1630.67	319.877
1633.13	297.239
1635.58	280.101
1638.04	270.086
1640.49	262.302
1642.94	237.092
1645.4	232.721
1647.85	208.553
1650.31	194.94
1652.76	180.982
1655.21	178.831
1657.67	169.68
1660.12	150.008
1662.58	145.51
1665.03	135.617
1667.48	128.384
1669.94	124.077
1672.39	114.175
1674.85	102.829
1677.3	96.6169
1679.75	98.8257
1682.21	93.4817
1684.66	86.2658
1687.12	83.6528
1689.57	75.1497
1692.02	73.9293
1694.48	79.6667
1696.93	78.7797
1699.39	69.2356
1701.84	70.2111
1704.29	64.8906
1706.75	67.4233
1709.2	65.137
1711.66	63.261
1714.11	63.979
1716.56	58.3398
1719.02	56.4207
1721.47	54.1314
1723.93	60.2475
1726.38	57.7511
1728.83	55.0613
1731.29	57.979
1733.74	56.3812
1736.2	59.1582
1738.65	51.6753
1741.1	53.5945
1743.56	50.0827
1746.01	52.2065
1748.47	54.2589
1750.92	48.1621
1753.37	50.2045
1755.83	49.4124
1758.28	52.7091
1760.74	50.2071
1763.19	51.8498
1765.64	47.1852
1768.1	57.8583
1770.55	48.1544
1773.01	50.2247
1775.46	45.1442
1777.91	50.06
1780.37	40.1167
1782.82	47.5675
1785.28	48.5176
1787.73	49.1472
1790.18	49.2655
1792.64	47.4502
1795.09	50.4755
1797.55	47.916
1800	49.7915
1802.45	46.4662
1804.91	45.8425
1807.36	47.7741
1809.82	53.4839
1812.27	49.3538
1814.72	51.1164
1817.18	49.1693
1819.63	48.8652
1822.09	46.149
1824.54	52.6594
1826.99	45.0433
1829.45	48.3416
1831.9	41.6183
1834.36	46.5669
1836.81	37.2856
1839.26	47.3333
1841.72	50.9184
1844.17	44.8379
1846.63	46.2248
1849.08	46.7294
1851.53	53.2396
1853.99	43.1466
1856.44	50.3859
1858.9	47.8992
1861.35	47.8535
1863.8	48.0284
1866.26	51.1232
1868.71	48.1748
1871.17	50.7423
1873.62	47.1149
1876.07	50.9094
1878.53	45.8528
1880.98	47.6101
1883.44	46.0788
1885.89	51.1623
1888.34	46.4073
1890.8	49.6348
1893.25	56.7199
1895.71	44.5455
1898.16	42.4258
1900.61	47.0109
1903.07	47.6358
1905.52	39.7193
1907.98	46.8837
1910.43	45.1201
1912.88	47.8371
1915.34	41.8375
1917.79	50.7695
1920.25	45.8692
1922.7	50.3566
1925.15	49.806
1927.61	44.3329
1930.06	50.1471
1932.52	45.7875
1934.97	47.7167
1937.42	44.7677
1939.88	52.4355
1942.33	49.3742
1944.79	47.5665
1947.24	53.1629
1949.69	50.8183
1952.15	47.14
1954.6	45.8371
1957.06	43.7322
1959.51	38.5577
1961.96	44.5141
1964.42	50.2981
1966.87	45.839
1969.33	46.7707
1971.78	55.2679
1974.23	48.7068
1976.69	45.3331
1979.14	49.872
1981.6	46.8546
1984.05	48.3166
1986.5	47.2763
1988.96	49.3653
1991.41	46.6667
1993.86	46.9929
1996.32	46.0895
1998.77	45.6667
2001.23	43.2063
2003.68	53.9409
2006.14	53.2454
2008.59	47.278
2011.04	51.9759
2013.5	46.0595
2015.95	52.3677
2018.4	46.85
2020.86	42.6057
2023.31	41.5349
2025.77	48.6298
2028.22	50.9477
2030.67	52.2909
2033.13	49.1239
2035.58	51.6486
2038.04	119.142
2040.49	55.0275
2042.94	48.409
2045.4	52.5306
2047.85	51.1661
2050.31	50.0434
2052.76	49.3283
2055.21	49.1388
2057.67	53.98
2060.12	45.4831
2062.58	46.3241
2065.03	48.1707
2067.48	44.5873
2069.94	46.4991
2072.39	49.7731
2074.85	49.6002
2077.3	49.8277
2079.75	51.972
2082.21	47.3385
2084.66	48.7058
2087.12	52.7194
2089.57	48.631
2092.02	50.7093
2094.48	50.1818
2096.93	42.9275
2099.39	47.0613
2101.84	45.6094
2104.29	45.3727
2106.75	45.949
2109.2	46.5451
2111.66	50.7696
2114.11	49.3139
2116.56	49.8285
2119.02	46.612
2121.47	53.0768
2123.93	47.8502
2126.38	56.5204
2128.83	57.1284
2131.29	45.7907
2133.74	47.1839
2136.2	50.3021
2138.65	47.5195
2141.1	49.4079
2143.56	48.3996
2146.01	49.7024
2148.47	52.2053
2150.92	54.5935
2153.37	48.057
2155.83	51.4358
2158.28	53.227
2160.74	50.4748
2163.19	53.4097
2165.64	54.6717
2168.1	54.1633
2170.55	54.1256
2173.01	53.5982
2175.46	50.2136
2177.91	54.9467
2180.37	48.2245
2182.82	57.5856
2185.28	53.4488
2187.73	54.4303
2190.18	56.6723
2192.64	50.9366
2195.09	55.0285
2197.55	52.8694
2200	48.3747
2202.45	52.4208
2204.91	50.0612
2207.36	52.4375
2209.82	52.9718
2212.27	48.1807
2214.72	55.5445
2217.18	49.8586
2219.63	51.5372
2222.09	55.3547
2224.54	50.9826
2226.99	50.5747
2229.45	51.7932
2231.9	52.4642
2234.36	54.394
2236.81	50.7418
2239.26	56.3086
2241.72	54.8629
2244.17	49.087
2246.63	50.7168
2249.08	57.6797
2251.53	54.56
2253.99	53.1024
2256.44	53.3797
2258.9	53.4516
2261.35	54.2932
2263.8	46.877
2266.26	52.1425
2268.71	57.6024
2271.17	55.4857
2273.62	56.9168
2276.07	54.9477
2278.53	59.6361
2280.98	58.9691
2283.44	61.0066
2285.89	57.1829
2288.34	57.6376
2290.8	51.717
2293.25	61.1785
2295.71	52.7461
2298.16	53.1809
2300.61	55.9693
2303.07	51.5227
2305.52	56.8972
2307.98	52.4659
2310.43	55.0558
2312.88	55.045
2315.34	55.4127
2317.79	57.0632
2320.25	51.6098
2322.7	63.3748
2325.15	59.7677
2327.61	64.306
2330.06	71.0856
2332.52	76.4698
2334.97	60.0964
2337.42	55.7286
2339.88	59.2145
2342.33	60.4104
2344.79	64.3338
2347.24	63.1638
2349.69	60.9607
2352.15	59.7605
2354.6	61.1997
2357.06	63.7128
2359.51	62.5328
2361.96	61.0994
2364.42	58.798
2366.87	59.8488
2369.33	61.7456
2371.78	57.8149
2374.23	64.3141
2376.69	61.5803
2379.14	58.4151
2381.59	62.8178
2384.05	60.2886
2386.5	65.1188
2388.96	67.356
2391.41	64.0145
2393.86	63.921
2396.32	60.63
2398.77	63.4902
2401.23	60.7231
2403.68	66.3102
2406.14	66.8604
2408.59	66.0951
2411.04	67.2871
2413.5	69.0722
2415.95	69.6054
2418.41	63.2997
2420.86	70.5756
2423.31	72.1122
2425.77	65.7309
2428.22	74.1967
2430.67	69.2361
2433.13	65.6753
2435.58	68.0681
2438.04	71.9157
2440.49	72.5253
2442.94	66.8086
2445.4	71.7681
2447.85	75.9721
2450.31	77.3891
2452.76	73.6929
2455.21	72.091
2457.67	71.2769
2460.12	72.4044
2462.58	76.1679
2465.03	75.3639
2467.48	74.4029
2469.94	76.3065
2472.39	76.9281
2474.85	70.3302
2477.3	77.0755
2479.75	76.1266
2482.21	77.6742
2484.66	73.0837
2487.12	78.4376
2489.57	76.3228
2492.02	80.9523
2494.48	74.036
2496.93	80.6867
2499.39	85.2733
2501.84	81.0438
2504.29	81.2306
2506.75	78.0046
2509.2	86.3905
2511.66	76.5644
2514.11	79.2236
2516.56	81.8596
2519.02	77.2744
2521.47	81.0497
2523.93	88.7513
2526.38	77.8556
2528.83	80.4571
2531.29	83.543
2533.74	83.4014
2536.2	84.3454
2538.65	83.8083
2541.1	89.1249
2543.56	85.2196
2546.01	88.7747
2548.47	89.7212
2550.92	89.6119
2553.37	86.421
2555.83	88.2578
2558.28	86.1133
2560.74	85.2385
2563.19	86.6381
2565.64	95.0027
2568.1	86.0275
2570.55	88.1506
2573.01	93.8069
2575.46	85.2809
2577.91	93.887
2580.37	97.3693
2582.82	88.8139
2585.28	95.6441
2587.73	94.5759
2590.18	103.582
2592.64	97.2774
2595.09	96.6863
2597.55	96.9722
2600	97.915
2602.45	100.765
2604.91	102.121
2607.36	92.2659
2609.82	105.017
2612.27	108.492
2614.72	106.577
2617.18	100.52
2619.63	107
2622.09	103.425
2624.54	112.599
2626.99	115.391
2629.45	111.416
2631.9	108.947
2634.36	111.492
2636.81	107.004
2639.26	116.618
2641.72	107.68
2644.17	112.768
2646.63	124.986
2649.08	123.734
2651.53	115.738
2653.99	130.401
2656.44	131.272
2658.9	115.08
2661.35	118.519
2663.8	128.369
2666.26	124.04
2668.71	137.533
2671.17	127.962
2673.62	128.163
2676.07	126.107
2678.53	127.033
2680.98	134.626
2683.44	136.654
2685.89	130.29
2688.34	123.48
2690.8	120.651
2693.25	132.901
2695.71	138.663
2698.16	123.399
2700.61	141.56
2703.07	134.706
2705.52	128.533
2707.98	135.437
2710.43	126.461
2712.88	128.29
2715.34	129.653
2717.79	135.24
2720.25	121.241
2722.7	116.028
2725.15	129.369
2727.61	132.18
2730.06	123.786
2732.52	119.191
2734.97	117.845
2737.42	115.69
2739.88	120.472
2742.33	120.825
2744.79	120.867
2747.24	112.332
2749.69	113.67
2752.15	120.479
2754.6	110.215
2757.06	103.27
2759.51	125.725
2761.96	113.781
2764.42	109.126
2766.87	115.674
2769.33	128.173
2771.78	117.267
2774.23	108.675
2776.69	114.919
2779.14	113.011
2781.59	117.32
2784.05	110.938
2786.5	115.811
2788.96	113.285
2791.41	118.145
2793.86	106.231
2796.32	111.552
2798.77	122.305
2801.23	104.954
2803.68	107.229
2806.14	111.245
2808.59	117.264
2811.04	105.028
2813.5	121.062
2815.95	107.705
2818.41	113.24
2820.86	108.034
2823.31	105.614
2825.77	113.09
2828.22	106.168
2830.67	116.625
2833.13	105.743
2835.58	107.002
2838.04	114.168
2840.49	103.092
2842.94	117.03
2845.4	112.492
2847.85	114.798
2850.31	117.623
2852.76	113.056
2855.21	113.551
2857.67	119.269
2860.12	124.097
2862.58	115.713
2865.03	110.697
2867.48	110.254
2869.94	113.203
2872.39	112.03
2874.85	122.751
2877.3	118.994
2879.75	118.31
2882.21	118.316
2884.66	123.765
2887.12	125.847
2889.57	121.447
2892.02	120.259
2894.48	119.631
2896.93	109.798
2899.39	113.753
2901.84	113.73
2904.29	125.191
2906.75	131.342
2909.2	122.61
2911.66	125.618
2914.11	127.618
2916.56	120.78
2919.02	129.982
2921.47	126.262
2923.93	122.978
2926.38	124.821
2928.83	124.997
2931.29	132.096
2933.74	128.647
2936.2	125.443
2938.65	127.264
2941.1	124.702
2943.56	122.946
2946.01	127.18
2948.47	122.495
2950.92	124.711
2953.37	123.417
2955.83	124.024
2958.28	119.667
2960.74	116.708
2963.19	107.948
2965.64	102.223
2968.1	120.026
2970.55	110.654
2973.01	109.553
2975.46	119.854
2977.91	116.146
2980.37	110.049
2982.82	111.323
2985.28	110.271
2987.73	103.105
2990.18	106.025
2992.64	106.548
2995.09	100.047
2997.55	106.342
3000	98.7916