File: Example Data/Raman/CNT - TIM/Raytheon/Al foil/2010/04-03-10/Al - 4-3-10 - run2 - 10 microns - A_1.txt
200	100.6
202.454	96.4985
204.908	101.443
207.362	102.518
209.816	108.207
212.27	111.538
214.724	108
217.178	109.777
219.632	110.686
222.086	108.878
224.54	113.224
226.994	108.719
229.448	103.421
231.902	111.927
234.356	113.301
236.81	107.352
239.264	108.023
241.718	122.121
244.172	104.569
246.626	107
249.08	108.899
251.534	106.051
253.988	102.719
256.442	106.103
258.896	102.858
261.35	104.04
263.804	109.107
266.258	101.225
268.712	102.857
271.166	90.6106
273.62	101.304
276.074	99.3921
278.528	100.012
280.982	103.576
283.436	96.9485
285.89	108.465
288.344	100.826
290.798	107.08
293.252	95.001
295.706	107.204
298.16	104.909
300.613	99.779
303.067	102.233
305.521	108.679
307.975	100.471
310.429	98.2178
312.883	99.1883
315.337	96.9441
317.791	97.7666
320.245	94.129
322.699	104.959
325.153	97.3232
327.607	91.7021
330.061	96.2932
332.515	89.3737
334.969	90.2627
337.423	96.8531
339.877	94.7684
342.331	94.9604
344.785	92.6667
347.239	91.3951
349.693	98.0542
352.147	89.7963
354.601	89.2657
357.055	91.2323
359.509	89.4369
361.963	91.4361
364.417	96.2382
366.871	92.7562
369.325	92.811
371.779	91.1609
374.233	86.3725
376.687	81.2861
379.141	91.6671
381.595	83.89
384.049	94.7213
386.503	83.7573
388.957	85.5566
391.411	94.8443
393.865	82.9759
396.319	83.4354
398.773	92.3333
401.227	84.5173
403.681	76.7701
406.135	81.3776
408.589	81.6853
411.043	71.6308
413.497	83.0707
415.951	80.5877
418.405	85.6381
420.859	87.9807
423.313	81.8187
425.767	88.5968
428.221	86.8446
430.675	79.5166
433.129	85.6011
435.583	90.5431
438.037	86.354
440.491	80.4737
442.945	84.729
445.399	75.7935
447.853	84.5059
450.307	71.2789
452.761	77.7511
455.215	74.67
457.669	83.6659
460.123	83.5802
462.577	83.1734
465.031	73.3197
467.485	82.0834
469.939	78.1514
472.393	76.6588
474.847	81.1543
477.301	79.1071
479.755	78.2104
482.209	81.2018
484.663	73.6591
487.117	67.1935
489.571	72.5392
492.025	75.8061
494.479	68.5514
496.933	76.746
499.387	67.2501
501.84	78.1229
504.294	76.0462
506.748	71.4543
509.202	74.7936
511.656	74.1976
514.11	76.8032
516.564	72.7651
519.018	77.4994
521.472	68.5755
523.926	78.265
526.38	73.8518
528.834	68.3764
531.288	73.7938
533.742	74.0294
536.196	79.8046
538.65	71.0108
541.104	71.0801
543.558	68.7582
546.012	68.7369
548.466	69.0098
550.92	71.7168
553.374	78.8473
555.828	71.0154
558.282	65.8216
560.736	72.4031
563.19	73.9919
565.644	72.7951
568.098	74.4007
570.552	76.0368
573.006	70.868
575.46	74.6645
577.914	70.4561
580.368	76.7526
582.822	79.9788
585.276	73.5673
587.73	75.3118
590.184	69.1536
592.638	68.6177
595.092	75.9623
597.546	71.5307
600	71.7893
602.454	70.7538
604.908	72.4601
607.362	77.2121
609.816	75.4454
612.27	74.3958
614.724	78.3502
617.178	80.6667
619.632	78.7269
622.086	69.0266
624.54	83.4952
626.994	75.5075
629.448	80.0202
631.902	66.1612
634.356	78.1077
636.81	76.6283
639.264	71.3076
641.718	79.579
644.172	84.4742
646.626	78.8251
649.08	80.8468
651.534	78.1684
653.988	78.4914
656.442	77.6205
658.896	77.9805
661.35	76.7481
663.804	84.5557
666.258	79.9834
668.712	81.8276
671.166	76.2925
673.62	75.8617
676.074	71.4158
678.528	79.3762
680.982	77.0293
683.436	80.9851
685.89	81.2434
688.344	77.3333
690.798	85.2673
693.252	81.5069
695.706	82.9393
698.159	75.6795
700.614	90.2256
703.068	81.318
705.521	81.3251
707.975	80.1454
710.429	81.7702
712.883	74.6551
715.337	85.5307
717.791	88.9601
720.245	84.8247
722.699	82.789
725.153	83.9128
727.607	84.8065
730.061	87.8436
732.515	91.9315
734.969	77.6748
737.423	83.5799
739.877	84.87
742.331	88.4029
744.785	83.4616
747.239	96.1216
749.693	88.2546
752.147	96.249
754.601	92.2952
757.055	90.376
759.509	88.6825
761.963	90.3333
764.417	86.4034
766.871	93.5098
769.325	93.5174
771.779	93.7596
774.233	86.0658
776.687	91.5377
779.141	100.851
781.595	94.2503
784.049	91.0517
786.503	91.0217
788.957	94.7959
791.411	86.8909
793.865	96.4434
796.319	96.4884
798.773	93.5951
801.227	101.12
803.681	101.411
806.135	101.861
808.589	95.5054
811.043	95.6617
813.497	92.1949
815.951	95.4896
818.405	99.5715
820.859	103.185
823.313	93.3301
825.767	104.66
828.221	100.194
830.675	105.432
833.129	97.9385
835.583	98.3593
838.037	97.2151
840.491	108.725
842.945	99.66
845.399	96.7459
847.853	105.356
850.307	92.1692
852.761	107.079
855.215	102.371
857.669	94.6667
860.123	95.5487
862.577	107.2
865.031	99.8447
867.485	103.667
869.939	99.0709
872.393	95.7307
874.847	95.2242
877.301	105.704
879.755	97.5667
882.209	94.917
884.663	102.981
887.117	101.501
889.571	87.9328
892.025	94.3976
894.479	96.6432
896.932	92.2507
899.386	97.5813
901.841	89.2635
904.294	93.0703
906.748	92.3333
909.202	85.467
911.656	89.3965
914.11	85.8245
916.564	91.8548
919.018	78.6635
921.472	84.9131
923.926	83.8842
926.38	92
928.834	87.1917
931.288	83.5168
933.742	90.3445
936.196	88.738
938.65	96.476
941.104	80.6586
943.558	86.6953
946.012	87.0685
948.466	92.785
950.92	89.154
953.374	83.3184
955.828	87.4742
958.282	96.0804
960.736	91.2144
963.19	87.6667
965.644	79.3327
968.098	95.576
970.552	81.6724
973.006	96.408
975.46	92.6884
977.914	98.0855
980.368	93.5599
982.822	95.6741
985.276	88.1354
987.73	95.383
990.184	95.4301
992.638	101.862
995.092	95.3742
997.546	89.6842
1000	90.6078
1002.45	98.6633
1004.91	97.4311
1007.36	100.574
1009.82	96.3022
1012.27	105.94
1014.72	102.118
1017.18	93.1907
1019.63	99.6644
1022.09	106.864
1024.54	101.844
1026.99	103.11
1029.45	104.185
1031.9	114.696
1034.36	115.608
1036.81	110.982
1039.26	107.528
1041.72	113.28
1044.17	114.069
1046.63	117.535
1049.08	115.025
1051.53	121.67
1053.99	116.976
1056.44	118.948
1058.9	128.412
1061.35	123.561
1063.8	120.049
1066.26	116.512
1068.71	121.206
1071.17	115.255
1073.62	112.429
1076.07	123.923
1078.53	118.399
1080.98	115.325
1083.44	121.61
1085.89	131.292
1088.34	129.277
1090.8	129.782
1093.25	129.739
1095.71	128
1098.16	121.554
1100.61	123.84
1103.07	134.021
1105.52	131.665
1107.98	138.922
1110.43	147.691
1112.88	147.893
1115.34	132.95
1117.79	144.709
1120.25	142.694
1122.7	142.908
1125.15	146.044
1127.61	154.052
1130.06	155.369
1132.52	154.35
1134.97	154.621
1137.42	161.513
1139.88	155.589
1142.33	162.014
1144.79	156.149
1147.24	157.667
1149.69	166.146
1152.15	168.488
1154.6	173.22
1157.06	171.942
1159.51	176.905
1161.96	173.26
1164.42	175.924
1166.87	174.703
1169.33	180.941
1171.78	183.125
1174.23	178.868
1176.69	185.479
1179.14	189.931
1181.6	181.622
1184.05	185.105
1186.5	189.689
1188.96	185.532
1191.41	196.318
1193.86	193.375
1196.32	195
1198.77	191.755
1201.23	195.595
1203.68	193.847
1206.14	209.364
1208.59	207.129
1211.04	213.552
1213.5	205.697
1215.95	207.176
1218.4	214.049
1220.86	205.864
1223.31	225.351
1225.77	223.159
1228.22	230.301
1230.67	232.844
1233.13	231.578
1235.58	235.228
1238.04	235.686
1240.49	233.668
1242.94	245.32
1245.4	248.32
1247.85	242.264
1250.31	256.437
1252.76	256.275
1255.21	259.281
1257.67	258.641
1260.12	269.688
1262.58	265.884
1265.03	290.852
1267.48	287.068
1269.94	300.859
1272.39	312.548
1274.85	303.947
1277.3	317.582
1279.75	314.755
1282.21	328.71
1284.66	332.828
1287.12	331.95
1289.57	353.183
1292.02	360.127
1294.48	367.488
1296.93	370.598
1299.39	378.583
1301.84	390.559
1304.29	407.044
1306.75	408.904
1309.2	409.244
1311.66	418.069
1314.11	451.351
1316.56	455.062
1319.02	460.183
1321.47	480.128
1323.93	479.385
1326.38	487.779
1328.83	488.459
1331.29	484.756
1333.74	494.424
1336.2	490.218
1338.65	521.791
1341.1	509.495
1343.56	504.127
1346.01	497.518
1348.47	486.274
1350.92	511.16
1353.37	511.289
1355.83	491.311
1358.28	485.761
1360.74	483.769
1363.19	455.828
1365.64	465.792
1368.1	444.851
1370.55	472.206
1373.01	446.071
1375.46	423.317
1377.91	412.638
1380.37	411.132
1382.82	392.269
1385.28	384.854
1387.73	383.345
1390.18	383.554
1392.64	378.545
1395.09	367.673
1397.55	355.853
1400	353.095
1402.45	351.109
1404.91	354.536
1407.36	333.242
1409.82	345.375
1412.27	333.951
1414.72	330.932
1417.18	335.561
1419.63	321.426
1422.09	318.842
1424.54	311.671
1426.99	317.306
1429.45	317.075
1431.9	313.063
1434.36	303.365
1436.81	310.978
1439.26	295.831
1441.72	296.78
1444.17	301.144
1446.63	299.174
1449.08	296.559
1451.53	286.992
1453.99	300.337
1456.44	295.824
1458.9	293.295
1461.35	293.168
1463.8	281.954
1466.26	287.231
1468.71	285.413
1471.17	284.244
1473.62	281.003
1476.07	283.502
1478.53	291.723
1480.98	285.488
1483.44	295.789
1485.89	276.855
1488.34	277.892
1490.8	290.119
1493.25	289.918
1495.71	292.595
1498.16	278.642
1500.61	290.21
1503.07	291.724
1505.52	281.321
1507.98	280.855
1510.43	298.705
1512.88	279.975
1515.34	299.688
1517.79	299.876
1520.25	291.072
1522.7	291.275
1525.15	304.146
1527.61	299.694
1530.06	301.078
1532.52	303.656
1534.97	318.705
1537.42	325.176
1539.88	320.624
1542.33	316.777
1544.79	341.032
1547.24	332.017
1549.69	345.415
1552.15	342.813
1554.6	381.588
1557.06	379.185
1559.51	383.355
1561.96	389.448
1564.42	404.726
1566.87	419.642
1569.33	433.102
1571.78	436.99
1574.23	439.695
1576.69	461.425
1579.14	461.227
1581.6	472.372
1584.05	490.397
1586.5	497.03
1588.96	504.078
1591.41	509.507
1593.86	517.618
1596.32	523.711
1598.77	515.62
1601.23	491.442
1603.68	506.049
1606.14	481.665
1608.59	465.182
1611.04	450.03
1613.5	436.599
1615.95	402.675
1618.4	394.067
1620.86	370.628
1623.31	360.087
1625.77	330.096
1628.22	316.776
1630.67	292.664
1633.13	277.102
1635.58	263.327
1638.04	253.122
1640.49	253.834
1642.94	225.097
1645.4	216.434
1647.85	206.545
1650.31	184.066
1652.76	176.562
1655.21	170.981
1657.67	181.522
1660.12	155.675
1662.58	150.781
1665.03	146.962
1667.48	134.932
1669.94	132.059
1672.39	139.178
1674.85	122.988
1677.3	113.511
1679.75	119.937
1682.21	106.378
1684.66	106.387
1687.12	102.24
1689.57	102.989
1692.02	101.639
1694.48	92.9098
1696.93	98.7826
1699.39	94.2874
1701.84	87.1669
1704.29	92.7987
1706.75	76.4599
1709.2	84.8249
1711.66	82.5477
1714.11	83.0456
1716.56	81.9262
1719.02	80.3037
1721.47	80.0165
1723.93	75.0825
1726.38	78.1858
1728.83	76.7175
1731.29	79.7717
1733.74	78.6906
1736.2	78.0863
1738.65	81.1216
1741.1	83.0104
1743.56	70.0467
1746.01	69.8732
1748.47	70.6277
1750.92	73.1555
1753.37	72.1401
1755.83	70.8041
1758.28	71.2066
1760.74	75.8562
1763.19	73.3311
1765.64	71.9036
1768.1	67.3403
1770.55	74.5156
1773.01	67.9754
1775.46	68.7052
1777.91	65.2758
1780.37	72.3511
1782.82	72.4975
1785.28	74.0218
1787.73	74.5354
1790.18	72.1841
1792.64	72.5406
1795.09	69.7614
1797.55	66.5318
1800	76.1103
1802.45	65.5163
1804.91	73.5516
1807.36	66.5762
1809.82	64.6075
1812.27	65.3549
1814.72	70.3004
1817.18	69.5541
1819.63	67.3159
1822.09	65.9468
1824.54	66.0341
1826.99	65.485
1829.45	66.6639
1831.9	59.709
1834.36	72.4862
1836.81	72.0134
1839.26	64.8928
1841.72	65.2892
1844.17	61.5487
1846.63	67.268
1849.08	65.3478
1851.53	67.5148
1853.99	74.7094
1856.44	72.7896
1858.9	69.6047
1861.35	63.3248
1863.8	67.3365
1866.26	66.0269
1868.71	60.1424
1871.17	64.9417
1873.62	69.8102
1876.07	60.0371
1878.53	68.2532
1880.98	67.0566
1883.44	64.5261
1885.89	68.6493
1888.34	68.7227
1890.8	70.9809
1893.25	63.6667
1895.71	67.5151
1898.16	63.4796
1900.61	68.1413
1903.07	70.7094
1905.52	62.0627
1907.98	67.0928
1910.43	69.5655
1912.88	66.8684
1915.34	65.4173
1917.79	59.4823
1920.25	66.5607
1922.7	65.9205
1925.15	65.108
1927.61	62.3305
1930.06	63.5639
1932.52	61.9339
1934.97	62.0875
1937.42	68.3045
1939.88	71.4513
1942.33	66.3742
1944.79	64.7773
1947.24	64.9925
1949.69	71.848
1952.15	70.9731
1954.6	63.3507
1957.06	70.5965
1959.51	62.1699
1961.96	67.3277
1964.42	62.8479
1966.87	63.2321
1969.33	69.0934
1971.78	70.8646
1974.23	68.8035
1976.69	68.0447
1979.14	66
1981.6	67.085
1984.05	61.0286
1986.5	65.035
1988.96	61.3893
1991.41	66.0423
1993.86	65.1141
1996.32	67.4063
1998.77	68.9894
2001.23	65.0671
2003.68	65.3277
2006.14	67.1227
2008.59	68.8978
2011.04	68.9197
2013.5	72.8912
2015.95	66.2575
2018.4	67.1658
2020.86	66.554
2023.31	67.2297
2025.77	70.775
2028.22	68.7974
2030.67	64.4322
2033.13	70.354
2035.58	62.7559
2038.04	70.1413
2040.49	63.8196
2042.94	69.5154
2045.4	69.9591
2047.85	63.5292
2050.31	64.7738
2052.76	55.7278
2055.21	69.0436
2057.67	68.8732
2060.12	67.9139
2062.58	70.846
2065.03	69.4426
2067.48	69.6189
2069.94	62.0332
2072.39	72.1771
2074.85	62.5851
2077.3	71.414
2079.75	73.3834
2082.21	65.3453
2084.66	64.5201
2087.12	67.6684
2089.57	68.9032
2092.02	73.3077
2094.48	67.2735
2096.93	64.7508
2099.39	63.1856
2101.84	63.2529
2104.29	70.6378
2106.75	69.2982
2109.2	65.8288
2111.66	68.3333
2114.11	68.4509
2116.56	65.9373
2119.02	70.5112
2121.47	65.6874
2123.93	66.8689
2126.38	74.3926
2128.83	65.3872
2131.29	65.4206
2133.74	69.5217
2136.2	67.8869
2138.65	69.3258
2141.1	64.5571
2143.56	67.9963
2146.01	73.1902
2148.47	67.6412
2150.92	66.1355
2153.37	69.5175
2155.83	70.6159
2158.28	68.4353
2160.74	65.7475
2163.19	63.0934
2165.64	63.6001
2168.1	68.2603
2170.55	64.4481
2173.01	64.0932
2175.46	71.0571
2177.91	66.3273
2180.37	70.3862
2182.82	67.7593
2185.28	61.182
2187.73	74.0038
2190.18	72.8692
2192.64	70.1639
2195.09	64.4294
2197.55	60.9556
2200	65.0536
2202.45	62.4917
2204.91	72.5497
2207.36	71.1599
2209.82	73.1898
2212.27	71.6285
2214.72	71.0885
2217.18	67.0594
2219.63	77.9189
2222.09	66.5736
2224.54	67.974
2226.99	73.4007
2229.45	76.5105
2231.9	75.3253
2234.36	71.8028
2236.81	71.7044
2239.26	71.0616
2241.72	69.1435
2244.17	68.9935
2246.63	74.4353
2249.08	65.7496
2251.53	70.5265
2253.99	67.265
2256.44	70.5662
2258.9	70.5963
2261.35	77.4587
2263.8	68.494
2266.26	77.076
2268.71	74.3372
2271.17	72.5308
2273.62	74.9119
2276.07	66.7013
2278.53	69.6788
2280.98	77.8221
2283.44	75.2955
2285.89	79.8495
2288.34	77.5452
2290.8	63.9065
2293.25	76.6983
2295.71	75.7329
2298.16	72.7552
2300.61	73.8651
2303.07	74.1027
2305.52	76.5078
2307.98	77.7223
2310.43	66.636
2312.88	73.8446
2315.34	67.8893
2317.79	79.9354
2320.25	74.8454
2322.7	73.7914
2325.15	77.2945
2327.61	83.1329
2330.06	98.5297
2332.52	102.198
2334.97	81.3666
2337.42	76.7624
2339.88	77.1414
2342.33	72.5501
2344.79	78.0507
2347.24	79.5042
2349.69	79.9845
2352.15	79.3001
2354.6	80.1641
2357.06	79.3997
2359.51	77.1122
2361.96	75.3352
2364.42	77.5797
2366.87	81.0374
2369.33	81.6051
2371.78	75.537
2374.23	84.167
2376.69	78.4265
2379.14	81.3065
2381.59	83.0422
2384.05	81.2024
2386.5	85.5029
2388.96	83.8986
2391.41	84.4857
2393.86	83.3976
2396.32	77.6119
2398.77	82.4964
2401.23	79.91
2403.68	81.2587
2406.14	82.3553
2408.59	78.9354
2411.04	81.8546
2413.5	81.3457
2415.95	79.5581
2418.41	82.6116
2420.86	84.2428
2423.31	85.717
2425.77	85.959
2428.22	86.0334
2430.67	86.4964
2433.13	83.4118
2435.58	89.7781
2438.04	93.603
2440.49	91.558
2442.94	91.5228
2445.4	86.8971
2447.85	88.1628
2450.31	87.7772
2452.76	87.9413
2455.21	87.223
2457.67	84.9423
2460.12	92.0743
2462.58	83.4642
2465.03	93.8067
2467.48	93.2404
2469.94	90.4541
2472.39	92.4101
2474.85	84.8201
2477.3	91.2175
2479.75	89.9126
2482.21	88.5591
2484.66	91.8624
2487.12	92.0684
2489.57	93.7189
2492.02	94.1181
2494.48	94.6185
2496.93	97.5654
2499.39	98.5126
2501.84	100.21
2504.29	95.9703
2506.75	96.4968
2509.2	99.8298
2511.66	96.5171
2514.11	97.568
2516.56	94.0415
2519.02	94.9272
2521.47	93.2448
2523.93	99.723
2526.38	102.749
2528.83	98.0441
2531.29	100.938
2533.74	98.2145
2536.2	99.9763
2538.65	100.12
2541.1	102.325
2543.56	103.88
2546.01	101.437
2548.47	96.3986
2550.92	100.102
2553.37	99.2991
2555.83	99.6345
2558.28	111.507
2560.74	101.582
2563.19	98.321
2565.64	106.785
2568.1	101.936
2570.55	109.922
2573.01	111.828
2575.46	106.844
2577.91	107.018
2580.37	110.68
2582.82	113.622
2585.28	118.748
2587.73	111.53
2590.18	111.834
2592.64	114.251
2595.09	115.433
2597.55	113.843
2600	117.726
2602.45	120.219
2604.91	118.563
2607.36	117.676
2609.82	127.811
2612.27	106.853
2614.72	123.366
2617.18	114.676
2619.63	118.24
2622.09	125.015
2624.54	126.275
2626.99	124.57
2629.45	121.761
2631.9	118.845
2634.36	128.995
2636.81	126.502
2639.26	125.34
2641.72	117.125
2644.17	122.323
2646.63	125.973
2649.08	129.6
2651.53	124.05
2653.99	135.242
2656.44	128.756
2658.9	121.511
2661.35	135.066
2663.8	134.437
2666.26	142.003
2668.71	133.534
2671.17	139.991
2673.62	138.973
2676.07	138.504
2678.53	129.371
2680.98	139.176
2683.44	139.546
2685.89	136.661
2688.34	129.908
2690.8	131.913
2693.25	127.854
2695.71	127.586
2698.16	134.56
2700.61	136.86
2703.07	131.667
2705.52	142.35
2707.98	133.357
2710.43	134.489
2712.88	136.186
2715.34	132.774
2717.79	134.246
2720.25	133.305
2722.7	123.715
2725.15	130.333
2727.61	123.945
2730.06	127.09
2732.52	127.364
2734.97	137.049
2737.42	132.937
2739.88	128.345
2742.33	138.585
2744.79	123.375
2747.24	126.09
2749.69	131.956
2752.15	128.878
2754.6	123.875
2757.06	128.068
2759.51	128.307
2761.96	122.07
2764.42	125.862
2766.87	120.2
2769.33	127.712
2771.78	117.92
2774.23	138.175
2776.69	124.485
2779.14	123.839
2781.59	129.746
2784.05	120.6
2786.5	128.262
2788.96	118.744
2791.41	119.836
2793.86	130.226
2796.32	121.491
2798.77	126.419
2801.23	124.828
2803.68	132.385
2806.14	129.128
2808.59	123.666
2811.04	122.237
2813.5	130.213
2815.95	126.659
2818.41	119.717
2820.86	133.769
2823.31	127.509
2825.77	126.72
2828.22	124.436
2830.67	122.006
2833.13	117.641
2835.58	118.985
2838.04	125.941
2840.49	124.634
2842.94	129.074
2845.4	128.511
2847.85	122.941
2850.31	126.895
2852.76	130.811
2855.21	122.942
2857.67	126.235
2860.12	124.473
2862.58	126.804
2865.03	126.509
2867.48	119.917
2869.94	138.067
2872.39	137.466
2874.85	121.587
2877.3	129.774
2879.75	134.989
2882.21	131.086
2884.66	126.86
2887.12	122.503
2889.57	122.891
2892.02	128.609
2894.48	131.223
2896.93	139.798
2899.39	134.598
2901.84	135.857
2904.29	130.247
2906.75	128.083
2909.2	132.498
2911.66	139.454
2914.11	128.188
2916.56	130.324
2919.02	135.183
2921.47	138.831
2923.93	135.642
2926.38	128.79
2928.83	131.298
2931.29	141.24
2933.74	143.478
2936.2	136.019
2938.65	117.753
2941.1	132.505
2943.56	125.731
2946.01	128.148
2948.47	134.327
2950.92	120.64
2953.37	129.494
2955.83	125.362
2958.28	128.489
2960.74	122.446
2963.19	128.134
2965.64	130.526
2968.1	121.462
2970.55	126.984
2973.01	113.196
2975.46	122.347
2977.91	122.737
2980.37	119.333
2982.82	119.47
2985.28	117.263
2987.73	114.649
2990.18	112.825
2992.64	107.913
2995.09	111.612
2997.55	108.842
3000	124.604