File: Example Data/Raman/CNT - TIM/Raytheon/Al foil/2010/04-03-10/Al - 4-3-10 - run3 - 25 microns - B_2.txt
200	62.8197
202.454	66.0073
204.908	63.4717
207.362	68.7633
209.816	70.5484
212.27	61.4387
214.724	65.2571
217.178	71.0926
219.632	70.2151
222.086	63.5719
224.54	70.4479
226.994	63.7428
229.448	66.0549
231.902	65.6003
234.356	69.6963
236.81	68.0506
239.264	75.6964
241.718	68.7645
244.172	71.4675
246.626	62.9047
249.08	70.8978
251.534	69.6147
253.988	61.1276
256.442	61.7942
258.896	67.1584
261.35	74.6766
263.804	76.4784
266.258	67.7171
268.712	69.5781
271.166	66.4835
273.62	69.6212
276.074	62.2158
278.528	70.481
280.982	68
283.436	70.7945
285.89	63.8557
288.344	62.1757
290.798	65.5797
293.252	60.6685
295.706	67.6667
298.16	64.6972
300.613	59.5661
303.067	71.1002
305.521	64.9489
307.975	58.9689
310.429	67.4995
312.883	63.4695
315.337	69.1021
317.791	63.0889
320.245	60.9521
322.699	68.1635
325.153	64.3867
327.607	63.5731
330.061	69.6503
332.515	57.861
334.969	61.113
337.423	65.8484
339.877	63.8317
342.331	60.3644
344.785	64.8008
347.239	59.2253
349.693	57.8646
352.147	54.6736
354.601	53.7893
357.055	57.2675
359.509	61.7063
361.963	55.4104
364.417	58.6293
366.871	61.6958
369.325	51.7148
371.779	58.9604
374.233	54.9309
376.687	54.5818
379.141	55.5158
381.595	57.3787
384.049	59.1967
386.503	44.507
388.957	57.8206
391.411	59
393.865	60.3057
396.319	59.7665
398.773	54.7603
401.227	61.4198
403.681	56.9531
406.135	57.3333
408.589	48.7453
411.043	54.041
413.497	50.5112
415.951	52.6278
418.405	46.5916
420.859	54.4839
423.313	53.8771
425.767	50.1601
428.221	51.0532
430.675	54.4655
433.129	61.1675
435.583	46.2377
438.037	52.64
440.491	50.3333
442.945	49.5275
445.399	54.2065
447.853	50.4854
450.307	49.1812
452.761	52.7511
455.215	53.4196
457.669	46.5572
460.123	43.7224
462.577	52.3333
465.031	55.1411
467.485	50.175
469.939	46.2721
472.393	50.2729
474.847	42.1038
477.301	46.6667
479.755	47.6513
482.209	47.4156
484.663	54.3792
487.117	45.9375
489.571	49.0012
492.025	45.9797
494.479	48.2271
496.933	47.9966
499.387	47.104
501.84	49.8123
504.294	49.6046
506.748	46.9266
509.202	50.2301
511.656	43.8024
514.11	45.9296
516.564	45.5179
519.018	46.6996
521.472	42.94
523.926	39.188
526.38	45.9293
528.834	44.5593
531.288	45.7698
533.742	47.2565
536.196	47.6305
538.65	46.1073
541.104	43.8911
543.558	46.5673
546.012	44.5198
548.466	49.0542
550.92	48.9168
553.374	47.5947
555.828	45.2715
558.282	47.2655
560.736	46.2045
563.19	47.4397
565.644	43.0978
568.098	47.1129
570.552	49.8016
573.006	46.4632
575.46	44.3395
577.914	51.2281
580.368	45.0822
582.822	47.1823
585.276	42.8582
587.73	43
590.184	40.2458
592.638	48.0839
595.092	50.0608
597.546	48.1973
600	46.2016
602.454	47.8
604.908	48.6135
607.362	46.2741
609.816	43.2823
612.27	44.6457
614.724	49.3418
617.178	55.2485
619.632	52.489
622.086	48.3412
624.54	47.1365
626.994	51.4203
629.448	50.6869
631.902	48.707
634.356	49.3333
636.81	53.4424
639.264	51.9742
641.718	52.4278
644.172	54
646.626	51.3333
649.08	49.8153
651.534	48.0807
653.988	52.4906
656.442	54.6617
658.896	48.6862
661.35	48.002
663.804	54.7774
666.258	51.9386
668.712	54.7816
671.166	52.8639
673.62	47.9465
676.074	54.4838
678.528	51.2098
680.982	53.2084
683.436	58.9143
685.89	57.6529
688.344	53.3418
690.798	55.4177
693.252	53.944
695.706	47.2335
698.159	55.8457
700.614	51.8941
703.068	63.5656
705.521	58.0657
707.975	61.4361
710.429	55.4622
712.883	58.9169
715.337	58.4095
717.791	55.3333
720.245	58.5255
722.699	57.0829
725.153	58.5612
727.607	57.35
730.061	56.0437
732.515	56.4199
734.969	66.492
737.423	63.4063
739.877	60.409
742.331	63.1365
744.785	63.1282
747.239	59.2093
749.693	64.139
752.147	62.2625
754.601	65.0319
757.055	63.7135
759.509	60.5257
761.963	64.4887
764.417	62.0531
766.871	55.2157
769.325	66.2003
771.779	61.2853
774.233	59.3335
776.687	65.1355
779.141	61.8926
781.595	64.0297
784.049	67.4718
786.503	65.5456
788.957	68.6973
791.411	65.5435
793.865	61.447
796.319	66.6104
798.773	68.0859
801.227	70.8376
803.681	71.6355
806.135	69.4758
808.589	69.9581
811.043	68.4862
813.497	68.3138
815.951	74.6667
818.405	66.2134
820.859	67.7451
823.313	76.7515
825.767	71.7928
828.221	70.3563
830.675	66.2456
833.129	67.9509
835.583	73.4757
838.037	79.1828
840.491	71.0617
842.945	71.6555
845.399	74.5334
847.853	66.4682
850.307	69.0539
852.761	71.4517
855.215	79.8051
857.669	71.3797
860.123	75.241
862.577	78.504
865.031	75.7569
867.485	70.1603
869.939	69.9397
872.393	69.8862
874.847	73.6873
877.301	64.9731
879.755	69.7289
882.209	72.0864
884.663	68.2419
887.117	62.6282
889.571	67.1837
892.025	66.1284
894.479	56.6059
896.932	59.4109
899.386	67.0028
901.841	62.8524
904.294	60.1347
906.748	61.9651
909.202	61.4269
911.656	68.7569
914.11	63.5876
916.564	53.7789
919.018	62.1682
921.472	57.1137
923.926	56.4638
926.38	53.2225
928.834	58.8015
931.288	57.221
933.742	61.2101
936.196	56.5087
938.65	56.8379
941.104	62.6827
943.558	61.0096
946.012	60.4921
948.466	63.0805
950.92	63.4102
953.374	62.4082
955.828	58.6609
958.282	56.6472
960.736	56.3333
963.19	56.9394
965.644	59.3505
968.098	68.8655
970.552	59.3362
973.006	56.6493
975.46	64.882
977.914	59.4133
980.368	60.5201
982.822	62.363
985.276	66.0461
987.73	59.5392
990.184	55.6536
992.638	64.3678
995.092	64.9252
997.546	57.6285
1000	63.2353
1002.45	64.7295
1004.91	61.9813
1007.36	67.0485
1009.82	61.947
1012.27	69.3262
1014.72	65.1042
1017.18	68.5976
1019.63	67.4989
1022.09	67.0806
1024.54	66.8668
1026.99	74.7724
1029.45	63.5505
1031.9	74.012
1034.36	75.0208
1036.81	69.9494
1039.26	78.352
1041.72	72.5212
1044.17	84.9803
1046.63	78.6667
1049.08	75.0548
1051.53	80.913
1053.99	82.3483
1056.44	80.0616
1058.9	81.0826
1061.35	76.8374
1063.8	86.4397
1066.26	79.7558
1068.71	75.103
1071.17	79.6673
1073.62	84.0777
1076.07	80.9641
1078.53	77.4602
1080.98	87.2743
1083.44	92.8947
1085.89	87.9072
1088.34	94.9645
1090.8	86.6508
1093.25	85.2704
1095.71	94.4068
1098.16	95.774
1100.61	93.9822
1103.07	96.8499
1105.52	93.4991
1107.98	98.0747
1110.43	102.242
1112.88	100.199
1115.34	96.8017
1117.79	99.4395
1120.25	100.626
1122.7	97.2372
1125.15	102.402
1127.61	112.439
1130.06	108.105
1132.52	108.545
1134.97	118.039
1137.42	115.976
1139.88	115.565
1142.33	121.541
1144.79	138.687
1147.24	128.334
1149.69	138.067
1152.15	131.4
1154.6	134.557
1157.06	138.676
1159.51	146.548
1161.96	141.585
1164.42	143.565
1166.87	142.377
1169.33	149.097
1171.78	144.796
1174.23	148.377
1176.69	151.957
1179.14	154.199
1181.6	148.512
1184.05	148.166
1186.5	148.464
1188.96	157.219
1191.41	153.175
1193.86	161.812
1196.32	157.731
1198.77	163.367
1201.23	160.41
1203.68	162.495
1206.14	163.894
1208.59	166.774
1211.04	152.792
1213.5	166.197
1215.95	173.641
1218.4	167.983
1220.86	166.916
1223.31	180.36
1225.77	181.862
1228.22	169.769
1230.67	182.715
1233.13	191.244
1235.58	188.618
1238.04	188.913
1240.49	196.392
1242.94	196.498
1245.4	185.81
1247.85	207.687
1250.31	203.36
1252.76	215.58
1255.21	223.836
1257.67	217.092
1260.12	212.397
1262.58	216.739
1265.03	234.979
1267.48	227.901
1269.94	240.345
1272.39	250.952
1274.85	258.492
1277.3	266.305
1279.75	258.701
1282.21	255.561
1284.66	290.912
1287.12	285.579
1289.57	299.48
1292.02	299.333
1294.48	315.764
1296.93	322.643
1299.39	333.676
1301.84	340.892
1304.29	349.182
1306.75	372.133
1309.2	375.801
1311.66	384.537
1314.11	408.679
1316.56	418.644
1319.02	427.181
1321.47	440.305
1323.93	456.115
1326.38	455.463
1328.83	473.703
1331.29	475.666
1333.74	497.497
1336.2	499.124
1338.65	508.628
1341.1	494.498
1343.56	508.868
1346.01	518.26
1348.47	500.389
1350.92	505.366
1353.37	501.253
1355.83	491.047
1358.28	484.42
1360.74	493.579
1363.19	478.698
1365.64	459.018
1368.1	443.661
1370.55	439.366
1373.01	442.765
1375.46	423.299
1377.91	392.628
1380.37	389.813
1382.82	386.442
1385.28	376.396
1387.73	356.276
1390.18	346.986
1392.64	335.231
1395.09	333.721
1397.55	320.476
1400	319.619
1402.45	305.199
1404.91	299.761
1407.36	294.274
1409.82	296.088
1412.27	285.612
1414.72	267.773
1417.18	275.043
1419.63	257.152
1422.09	247.693
1424.54	262.583
1426.99	268.693
1429.45	259.434
1431.9	259.918
1434.36	238.79
1436.81	234.949
1439.26	236.071
1441.72	241.111
1444.17	238.805
1446.63	242.571
1449.08	235.4
1451.53	237.175
1453.99	226.089
1456.44	233.083
1458.9	226.499
1461.35	230.691
1463.8	232.293
1466.26	232.222
1468.71	230.585
1471.17	235.351
1473.62	229.335
1476.07	224.448
1478.53	226.276
1480.98	235.558
1483.44	230.808
1485.89	227.15
1488.34	229.45
1490.8	223.883
1493.25	230.095
1495.71	227.87
1498.16	229.431
1500.61	225.768
1503.07	237.574
1505.52	228.323
1507.98	232.297
1510.43	236.087
1512.88	225.996
1515.34	235.59
1517.79	242.923
1520.25	234.335
1522.7	236.565
1525.15	241.247
1527.61	247.548
1530.06	242.737
1532.52	247.846
1534.97	250.003
1537.42	256.336
1539.88	258.763
1542.33	263.556
1544.79	261.098
1547.24	277.75
1549.69	292.593
1552.15	304.703
1554.6	296.577
1557.06	301.543
1559.51	302.138
1561.96	305.679
1564.42	327.662
1566.87	338.002
1569.33	342.001
1571.78	355.721
1574.23	373.117
1576.69	390.732
1579.14	425.876
1581.6	418.565
1584.05	442.698
1586.5	455.223
1588.96	466.101
1591.41	489.867
1593.86	490.974
1596.32	516.226
1598.77	526.521
1601.23	523.586
1603.68	518.542
1606.14	513.59
1608.59	517.546
1611.04	507.621
1613.5	472.807
1615.95	478.996
1618.4	453.725
1620.86	427.27
1623.31	402.258
1625.77	382.626
1628.22	369.219
1630.67	328.882
1633.13	295.896
1635.58	296.897
1638.04	268.083
1640.49	246.055
1642.94	230.718
1645.4	209.928
1647.85	205.663
1650.31	198.983
1652.76	169.905
1655.21	161.109
1657.67	162.272
1660.12	144.008
1662.58	143.173
1665.03	127.798
1667.48	115.078
1669.94	116.886
1672.39	109.445
1674.85	108.433
1677.3	100.035
1679.75	91.0072
1682.21	88.9617
1684.66	82.5801
1687.12	76.3296
1689.57	75.7698
1692.02	78.7469
1694.48	75.5226
1696.93	63.7768
1699.39	69.5377
1701.84	68.5014
1704.29	67.0416
1706.75	54.1484
1709.2	63.4474
1711.66	52.1177
1714.11	55.2444
1716.56	52.9935
1719.02	59.6895
1721.47	57.1984
1723.93	52.237
1726.38	55.6006
1728.83	52.2773
1731.29	47.0341
1733.74	49.2387
1736.2	45.4876
1738.65	48.671
1741.1	44.9639
1743.56	49.8329
1746.01	47.7642
1748.47	45.3815
1750.92	46.6904
1753.37	41.6135
1755.83	43.5669
1758.28	48.4225
1760.74	44.4864
1763.19	43.8896
1765.64	46.7593
1768.1	46.7019
1770.55	44.8648
1773.01	41.3193
1775.46	45.5482
1777.91	42.9425
1780.37	41.6844
1782.82	50.4347
1785.28	48.4824
1787.73	45.9654
1790.18	44.1427
1792.64	44.8963
1795.09	41.1954
1797.55	45.1196
1800	46.5419
1802.45	45.6399
1804.91	44.418
1807.36	43.0225
1809.82	44.9086
1812.27	38.7098
1814.72	46.9028
1817.18	38.9663
1819.63	41.1893
1822.09	48.4645
1824.54	41.2384
1826.99	41.9567
1829.45	47.6197
1831.9	46.3592
1834.36	44.2569
1836.81	47.0449
1839.26	42.5478
1841.72	45.9372
1844.17	47.2036
1846.63	41.464
1849.08	46.7923
1851.53	41.7929
1853.99	43.5214
1856.44	42.2104
1858.9	42.626
1861.35	44.4204
1863.8	45.6667
1866.26	42.9684
1868.71	48.0793
1871.17	45.4192
1873.62	39.1783
1876.07	43.1399
1878.53	45.6255
1880.98	46.367
1883.44	47.3454
1885.89	43.0857
1888.34	49.7972
1890.8	42.3312
1893.25	45.7199
1895.71	50.121
1898.16	45.1441
1900.61	41.3442
1903.07	39.3684
1905.52	39.733
1907.98	42.403
1910.43	44.3286
1912.88	44.3258
1915.34	43.5324
1917.79	39.5337
1920.25	49.5483
1922.7	44.406
1925.15	48.7308
1927.61	41.8635
1930.06	40.3873
1932.52	44.2392
1934.97	45.4021
1937.42	40.7229
1939.88	43.1569
1942.33	41.7847
1944.79	42.4888
1947.24	45.219
1949.69	43.3329
1952.15	45.7067
1954.6	44.8197
1957.06	45.6077
1959.51	44.1634
1961.96	42.9243
1964.42	45.1168
1966.87	43.5394
1969.33	43.4873
1971.78	45.5873
1974.23	48.4908
1976.69	44.2889
1979.14	45.6448
1981.6	42.358
1984.05	42.218
1986.5	45.0263
1988.96	46.52
1991.41	43.6841
1993.86	42.6507
1996.32	46.168
1998.77	47.9789
2001.23	45.2998
2003.68	42.6413
2006.14	37.6726
2008.59	40.2808
2011.04	44.4738
2013.5	45.8842
2015.95	42.6847
2018.4	44.1552
2020.86	43.9437
2023.31	42.3615
2025.77	45.5809
2028.22	46.3137
2030.67	43.6497
2033.13	45.031
2035.58	43.2768
2038.04	45.693
2040.49	49.5186
2042.94	46.1338
2045.4	46.3596
2047.85	44.4089
2050.31	45.1856
2052.76	43.5487
2055.21	41.1016
2057.67	50.2265
2060.12	52.573
2062.58	41.6414
2065.03	43.3957
2067.48	45.5555
2069.94	51.4438
2072.39	47.0319
2074.85	47.3112
2077.3	47.5977
2079.75	53.5191
2082.21	48.9727
2084.66	46.2209
2087.12	42.5938
2089.57	40.63
2092.02	43.9316
2094.48	48.3935
2096.93	49.4374
2099.39	47.3568
2101.84	44.9653
2104.29	38.685
2106.75	48.297
2109.2	49.3412
2111.66	45.1012
2114.11	50.0981
2116.56	40.4866
2119.02	45.6988
2121.47	46.3933
2123.93	41.6029
2126.38	42.7626
2128.83	44.2049
2131.29	49.4941
2133.74	50.1114
2136.2	44.0189
2138.65	45.9611
2141.1	45.044
2143.56	42.8306
2146.01	50.2528
2148.47	44.7949
2150.92	45.6043
2153.37	53.3333
2155.83	47.9996
2158.28	52.3224
2160.74	50.9899
2163.19	43.8706
2165.64	55.6768
2168.1	48.9269
2170.55	49.8744
2173.01	49.3333
2175.46	43.1938
2177.91	51.9588
2180.37	45.944
2182.82	46.7767
2185.28	49.689
2187.73	47.7599
2190.18	47
2192.64	46.5413
2195.09	51.6797
2197.55	51.8539
2200	45.3552
2202.45	46.8137
2204.91	47.3007
2207.36	49.3136
2209.82	47.5216
2212.27	49.1013
2214.72	47.0123
2217.18	48.2271
2219.63	47.9723
2222.09	49.0092
2224.54	47.0494
2226.99	45.6384
2229.45	51.1786
2231.9	48.0477
2234.36	47.3369
2236.81	53.165
2239.26	47.3233
2241.72	45.8625
2244.17	53.5147
2246.63	53.5965
2249.08	47.389
2251.53	45.6208
2253.99	47.6907
2256.44	50.1743
2258.9	47.5861
2261.35	51.0481
2263.8	50.5765
2266.26	46.6315
2268.71	49.1643
2271.17	49.434
2273.62	46.9786
2276.07	51.8952
2278.53	49.8406
2280.98	51.9928
2283.44	50.3907
2285.89	55.2249
2288.34	52.6885
2290.8	53.3136
2293.25	52.688
2295.71	57.5771
2298.16	49.6424
2300.61	49.9152
2303.07	53.7394
2305.52	55.2745
2307.98	57.7446
2310.43	58.8516
2312.88	51.9298
2315.34	53.6985
2317.79	49.5544
2320.25	55.8168
2322.7	54.8811
2325.15	51.3366
2327.61	56.4298
2330.06	67.644
2332.52	75.0832
2334.97	59.8585
2337.42	53.5086
2339.88	54.4041
2342.33	48.7946
2344.79	54.1288
2347.24	54.967
2349.69	52.993
2352.15	53.009
2354.6	57.4077
2357.06	60.016
2359.51	57.4891
2361.96	52.3826
2364.42	57.7141
2366.87	56.3937
2369.33	56.617
2371.78	53.1961
2374.23	59.1511
2376.69	57.6925
2379.14	60.3933
2381.59	59.7621
2384.05	61.3541
2386.5	63.6039
2388.96	56.9063
2391.41	62.2415
2393.86	59.8152
2396.32	63.9898
2398.77	61.9124
2401.23	62.5249
2403.68	57.5359
2406.14	59.3526
2408.59	62.5515
2411.04	62.8406
2413.5	61.9264
2415.95	63.2653
2418.41	62.5094
2420.86	64.8145
2423.31	66.8884
2425.77	63.1086
2428.22	62.8172
2430.67	63.8326
2433.13	65.0129
2435.58	62.4212
2438.04	70.1904
2440.49	69.03125
2442.94	64.8485
2445.4	70.4571
2447.85	67.7985
2450.31	65.2714
2452.76	68.2674
2455.21	69.9905
2457.67	69.9618
2460.12	72.8733
2462.58	69.8423
2465.03	69.8011
2467.48	70.1582
2469.94	70.3801
2472.39	66.5094
2474.85	64.6585
2477.3	71.5244
2479.75	67.6543
2482.21	70.612
2484.66	71.8225
2487.12	75.4213
2489.57	68.9818
2492.02	69.2215
2494.48	74.1044
2496.93	72.7699
2499.39	72.9564
2501.84	78.3436
2504.29	72.1296
2506.75	75.5734
2509.2	75.3537
2511.66	79.8389
2514.11	73.3238
2516.56	73.2919
2519.02	77.2445
2521.47	73.9857
2523.93	80.9498
2526.38	77.2512
2528.83	82.003
2531.29	82.115
2533.74	84.3256
2536.2	83.4704
2538.65	81.7233
2541.1	81.494
2543.56	76.6675
2546.01	74.5976
2548.47	82.7958
2550.92	88.7769
2553.37	83.9833
2555.83	83.9435
2558.28	90.123
2560.74	83.041
2563.19	87.1869
2565.64	95.6443
2568.1	88.6754
2570.55	85.3413
2573.01	93.7474
2575.46	85.7185
2577.91	90.6498
2580.37	83.7965
2582.82	87.8475
2585.28	89.1602
2587.73	88.4286
2590.18	92.8016
2592.64	88.1388
2595.09	90.9701
2597.55	88.3492
2600	95.7502
2602.45	92.7934
2604.91	93.0896
2607.36	94.8267
2609.82	99.6386
2612.27	107.645
2614.72	95.0688
2617.18	96.0393
2619.63	100.481
2622.09	100.2
2624.54	100.166
2626.99	105.249
2629.45	110.331
2631.9	103.872
2634.36	107.546
2636.81	99.0435
2639.26	108.654
2641.72	114.68
2644.17	111.618
2646.63	116.176
2649.08	122.472
2651.53	122.527
2653.99	117.64
2656.44	125.15
2658.9	124.035
2661.35	130.815
2663.8	117.609
2666.26	118.711
2668.71	124.574
2671.17	126.114
2673.62	128.779
2676.07	124.258
2678.53	124.42
2680.98	137.285
2683.44	130.288
2685.89	130.176
2688.34	126.399
2690.8	118.181
2693.25	127.387
2695.71	139.227
2698.16	126.033
2700.61	126.421
2703.07	128.059
2705.52	129.217
2707.98	117.539
2710.43	129.841
2712.88	129.096
2715.34	131.384
2717.79	128.439
2720.25	122.767
2722.7	124.439
2725.15	107.877
2727.61	124.753
2730.06	121.915
2732.52	124.86
2734.97	112.012
2737.42	114.965
2739.88	120.715
2742.33	120.479
2744.79	112.608
2747.24	115.995
2749.69	118.717
2752.15	119.179
2754.6	111.437
2757.06	104.285
2759.51	101.817
2761.96	108.529
2764.42	115.793
2766.87	113.577
2769.33	104.765
2771.78	110.274
2774.23	117.499
2776.69	111.576
2779.14	101.052
2781.59	108.24
2784.05	101.596
2786.5	106.297
2788.96	111.656
2791.41	110.696
2793.86	107
2796.32	103.123
2798.77	104.736
2801.23	101.839
2803.68	98.9601
2806.14	104.245
2808.59	106.125
2811.04	105.715
2813.5	111.595
2815.95	102.681
2818.41	104.864
2820.86	106.692
2823.31	111.517
2825.77	106.611
2828.22	100.9
2830.67	106.262
2833.13	101.385
2835.58	107.067
2838.04	112.324
2840.49	102.761
2842.94	106.649
2845.4	111.704
2847.85	108.857
2850.31	100.819
2852.76	103.294
2855.21	100.146
2857.67	103.796
2860.12	106.387
2862.58	107.068
2865.03	100.164
2867.48	114.189
2869.94	113.077
2872.39	106.224
2874.85	114.366
2877.3	115.22
2879.75	118.851
2882.21	112.244
2884.66	116.303
2887.12	113.695
2889.57	112.919
2892.02	115.263
2894.48	124.593
2896.93	119.817
2899.39	118.202
2901.84	121.254
2904.29	121.705
2906.75	115.306
2909.2	119.555
2911.66	113.319
2914.11	123.106
2916.56	118.44
2919.02	119.012
2921.47	120.579
2923.93	122.624
2926.38	120.363
2928.83	122.874
2931.29	113.384
2933.74	127.468
2936.2	117.076
2938.65	124.287
2941.1	115.687
2943.56	124.478
2946.01	115.13
2948.47	117.765
2950.92	114.73
2953.37	122.182
2955.83	111.728
2958.28	127.081
2960.74	110.292
2963.19	118.095
2965.64	109.306
2968.1	108.718
2970.55	104.006
2973.01	103.537
2975.46	95.026
2977.91	109.479
2980.37	101.098
2982.82	102.399
2985.28	102.095
2987.73	107.895
2990.18	99.0266
2992.64	97.2995
2995.09	98.895
2997.55	94.5342
3000	93.0312