File: Example Data/Raman/CNT - TIM/Raytheon/Al foil/2010/04-03-10/Al - 4-3-10 - run3 - 10 microns - B_1.txt
200	75.6092
202.454	78.2807
204.908	71.261
207.362	78.4626
209.816	85.4148
212.27	80.3161
214.724	91.5405
217.178	87.2626
219.632	87.2215
222.086	72.9921
224.54	86.3281
226.994	85.3534
229.448	82.6044
231.902	86.8665
234.356	84.9802
236.81	84.6667
239.264	79.6518
241.718	91.2612
244.172	86.9308
246.626	88.8073
249.08	86.6482
251.534	84.6147
253.988	92.8724
256.442	78.0035
258.896	90.7426
261.35	83.2677
263.804	84.7188
266.258	79.9532
268.712	84.1417
271.166	88.196
273.62	91.6694
276.074	86.2353
278.528	79.2477
280.982	80.5128
283.436	84.7684
285.89	92.6341
288.344	88.0012
290.798	80.3986
293.252	82.0006
295.706	79.8402
298.16	83.642
300.613	88.8876
303.067	84.3333
305.521	84.0511
307.975	79.24
310.429	76.2941
312.883	75.3142
315.337	83.4625
317.791	79.1334
320.245	79.8231
322.699	84.9965
325.153	84.8918
327.607	75.828
330.061	75.785
332.515	86.2235
334.969	76.2175
337.423	64.6667
339.877	76.3691
342.331	73.4463
344.785	81.5325
347.239	79.7965
349.693	67.6667
352.147	75.4491
354.601	74.1099
357.055	77.5341
359.509	74.3089
361.963	74.5903
364.417	75.3707
366.871	73.8166
369.325	71.7218
371.779	74.3295
374.233	74.2446
376.687	69.4497
379.141	71.3943
381.595	76.6796
384.049	72.235
386.503	74.6365
388.957	78.9171
391.411	71.7026
393.865	73.6595
396.319	65
398.773	71.6111
401.227	67.4827
403.681	80.385
406.135	74.1888
408.589	66.2071
411.043	71.7128
413.497	71.5511
415.951	65.7056
418.405	67.4695
420.859	66.2645
423.313	72.8602
425.767	69.5441
428.221	72.3878
430.675	66.9754
433.129	69
435.583	66.0856
438.037	69.236
440.491	67.4912
442.945	55.1428
445.399	69.1161
447.853	69.1639
450.307	68.5972
452.761	74.4374
455.215	71.3773
457.669	64.7769
460.123	63.1422
462.577	66.3841
465.031	65.2748
467.485	57.6748
469.939	64.2955
472.393	67.063
474.847	63.4748
477.301	59.1155
479.755	54.3591
482.209	64.6667
484.663	65.2112
487.117	58
489.571	63.5294
492.025	71.905
494.479	57.1622
496.933	61.4998
499.387	53.5728
501.84	61.3107
504.294	55.2092
506.748	58.4176
509.202	51.757
511.656	55.1358
514.11	57.7888
516.564	60.8082
519.018	57.3993
521.472	58.1726
523.926	61.7093
526.38	57.9594
528.834	58.2043
531.288	54.4849
533.742	62.27
536.196	56.1199
538.65	57.5375
541.104	63.0353
543.558	60.6271
546.012	59.1601
548.466	64.8999
550.92	56.9829
553.374	58.1543
555.828	64.3951
558.282	61.5343
560.736	65.331
563.19	55.5583
565.644	62.1436
568.098	59.2403
570.552	58.3412
573.006	54.8225
575.46	58.3341
577.914	54.8245
580.368	57
582.822	64.4195
585.276	57.7942
587.73	63.5277
590.184	64.0774
592.638	60.729
595.092	63.8407
597.546	60.1273
600	58.5173
602.454	59.4666
604.908	64.8937
607.362	66.9284
609.816	57.0729
612.27	66.5105
614.724	69.4669
617.178	65.497
619.632	61.9933
622.086	62.7893
624.54	62.1143
626.994	64.7245
629.448	67.5633
631.902	65.9286
634.356	65.1446
636.81	65.2828
639.264	62.8465
641.718	66.8367
644.172	65.0907
646.626	66.4132
649.08	65.6531
651.534	61.3965
653.988	64.7805
656.442	62.1585
658.896	67.3236
661.35	65.6646
663.804	57.7783
666.258	61.1985
668.712	64.2529
671.166	66.0546
673.62	74.761
676.074	66.0955
678.528	65.5413
680.982	70.2438
683.436	67.581
685.89	64.3323
688.344	68.0085
690.798	71.3187
693.252	65.3128
695.706	70.3316
698.159	67.5306
700.614	60.6064
703.068	66.2996
705.521	70.3251
707.975	66.142
710.429	67.2377
712.883	64.6488
715.337	68.71
717.791	73.9601
720.245	66.1355
722.699	71.3314
725.153	76.3503
727.607	73.0926
730.061	72.6391
732.515	68.0181
734.969	67.7381
737.423	77.3333
739.877	69.9119
742.331	74.5144
744.785	75.9173
747.239	77.9283
749.693	77.1993
752.147	76.4751
754.601	75.0885
757.055	79.4091
759.509	75.0356
761.963	78.4917
764.417	76.3291
766.871	74.1373
769.325	74.9348
771.779	77.4263
774.233	79.3333
776.687	76.3764
779.141	85.1367
781.595	77.0552
784.049	76.1877
786.503	75.7056
788.957	77.9694
791.411	83.4739
793.865	76.333
796.319	85.5226
798.773	85.7035
801.227	91.5213
803.681	87.0853
806.135	78.6117
808.589	87.9364
811.043	85.9724
813.497	84.6569
815.951	84.9512
818.405	82.6584
820.859	85.9776
823.313	87.6005
825.767	85.342
828.221	87.4652
830.675	87.6008
833.129	86.1018
835.583	85.0616
838.037	87.828
840.491	97.4181
842.945	95.0044
845.399	86.6314
847.853	99.8345
850.307	93.3822
852.761	92.6829
855.215	87.7106
857.669	89.8818
860.123	86.959
862.577	83.8728
865.031	86.4536
867.485	90.6754
869.939	85.261
872.393	89.0995
874.847	84.941
877.301	81.3468
879.755	79.5267
882.209	82.4467
884.663	84.3387
887.117	84.6835
889.571	76.5539
892.025	85.2856
894.479	74.5176
896.932	82.8747
899.386	73.1019
901.841	71.0185
904.294	78.7454
906.748	74.2396
909.202	91.0278
911.656	92.3715
914.11	77.7104
916.564	75.4389
919.018	76.8359
921.472	77.6858
923.926	63.7392
926.38	67.4018
928.834	75.9075
931.288	76.1423
933.742	78.042
936.196	80.3303
938.65	79.105
941.104	76.304
943.558	76.4476
946.012	73.8044
948.466	72.1021
950.92	77.4874
953.374	71.4869
955.828	79.2214
958.282	76.4786
960.736	74.4134
963.19	70.798
965.644	67.0166
968.098	72.245
970.552	74.0517
973.006	77.6145
975.46	73.4296
977.914	70.3302
980.368	78.2402
982.822	74.3184
985.276	73.68
987.73	80.5745
990.184	78.3333
992.638	78.2759
995.092	83.3673
997.546	80.8803
1000	76.9869
1002.45	79.014
1004.91	88.6854
1007.36	86.467
1009.82	81.8879
1012.27	83.3418
1014.72	87.2706
1017.18	91.4543
1019.63	90.0354
1022.09	86.284
1024.54	92.5783
1026.99	95.4644
1029.45	88.9095
1031.9	91.2143
1034.36	94.4464
1036.81	96.5343
1039.26	113.055
1041.72	103.535
1044.17	92.964
1046.63	103.398
1049.08	102.179
1051.53	104.153
1053.99	104.402
1056.44	99.9331
1058.9	108.897
1061.35	105.447
1063.8	101.141
1066.26	106.867
1068.71	104.103
1071.17	100.842
1073.62	111.873
1076.07	106.387
1078.53	110.835
1080.98	107.928
1083.44	108.333
1085.89	109.564
1088.34	112.173
1090.8	113.388
1093.25	110.91
1095.71	115.639
1098.16	123.106
1100.61	114.876
1103.07	125.087
1105.52	126.499
1107.98	124.371
1110.43	124.342
1112.88	141.502
1115.34	134.655
1117.79	129.759
1120.25	135.158
1122.7	131.85
1125.15	138.125
1127.61	141.958
1130.06	140.1
1132.52	151.499
1134.97	146.386
1137.42	142.659
1139.88	149.454
1142.33	162.894
1144.79	164.853
1147.24	157.669
1149.69	159.696
1152.15	174.471
1154.6	178.398
1157.06	184.439
1159.51	187.063
1161.96	182.253
1164.42	184.616
1166.87	182.029
1169.33	183.077
1171.78	193.11
1174.23	192.616
1176.69	191.811
1179.14	192.477
1181.6	203.247
1184.05	188.429
1186.5	197.207
1188.96	202.07
1191.41	202.639
1193.86	208.72
1196.32	207.378
1198.77	202.808
1201.23	203.809
1203.68	203.877
1206.14	193
1208.59	206.747
1211.04	213.351
1213.5	212.95
1215.95	218.707
1218.4	225.651
1220.86	228.766
1223.31	222.917
1225.77	237.417
1228.22	223.234
1230.67	239.128
1233.13	214.503
1235.58	243.018
1238.04	242.394
1240.49	250.455
1242.94	246.293
1245.4	256.961
1247.85	258.4
1250.31	256.598
1252.76	275.087
1255.21	271.227
1257.67	293.872
1260.12	289.852
1262.58	291.884
1265.03	294.959
1267.48	315.005
1269.94	307.525
1272.39	312.738
1274.85	326.753
1277.3	343.426
1279.75	343.186
1282.21	360.232
1284.66	356.408
1287.12	369.717
1289.57	381.569
1292.02	371.629
1294.48	397.861
1296.93	394
1299.39	426.783
1301.84	416.944
1304.29	414.407
1306.75	445.64
1309.2	461.443
1311.66	460.597
1314.11	479.472
1316.56	478.621
1319.02	496.002
1321.47	505.412
1323.93	501.107
1326.38	507.125
1328.83	512.68
1331.29	511.908
1333.74	531.492
1336.2	531.443
1338.65	512.507
1341.1	529.185
1343.56	524.426
1346.01	520.582
1348.47	522.28
1350.92	518.393
1353.37	514.244
1355.83	515.867
1358.28	502.278
1360.74	500.199
1363.19	488.004
1365.64	477.487
1368.1	479.272
1370.55	487.199
1373.01	463.353
1375.46	448.282
1377.91	465.511
1380.37	450.937
1382.82	420.418
1385.28	408.125
1387.73	408.954
1390.18	397.572
1392.64	400.175
1395.09	374.459
1397.55	382.985
1400	378.452
1402.45	360.885
1404.91	348.181
1407.36	355.365
1409.82	353.753
1412.27	329.15
1414.72	340.013
1417.18	336.212
1419.63	334.649
1422.09	336.73
1424.54	321.57
1426.99	321.324
1429.45	311.437
1431.9	318.113
1434.36	309.333
1436.81	307.285
1439.26	302.404
1441.72	308.489
1444.17	296.817
1446.63	295.931
1449.08	292.72
1451.53	297.487
1453.99	287.834
1456.44	297.15
1458.9	292.263
1461.35	287.135
1463.8	291.269
1466.26	300.93
1468.71	281.143
1471.17	284.088
1473.62	280.851
1476.07	302.959
1478.53	293.613
1480.98	279.647
1483.44	275.716
1485.89	289.068
1488.34	287.586
1490.8	284.942
1493.25	287.327
1495.71	291.66
1498.16	289.681
1500.61	274.865
1503.07	286.638
1505.52	290.094
1507.98	285.347
1510.43	294.31
1512.88	290.057
1515.34	296.069
1517.79	287.009
1520.25	295.146
1522.7	299.035
1525.15	294.059
1527.61	289.942
1530.06	298.189
1532.52	304.584
1534.97	300.707
1537.42	304.389
1539.88	311.694
1542.33	299.276
1544.79	321.588
1547.24	319.935
1549.69	333.576
1552.15	326.557
1554.6	349.621
1557.06	353.853
1559.51	367.885
1561.96	367.549
1564.42	372.314
1566.87	374.513
1569.33	389.585
1571.78	403.948
1574.23	404.969
1576.69	437.169
1579.14	443.807
1581.6	468.814
1584.05	479.574
1586.5	521.552
1588.96	522.111
1591.41	534.624
1593.86	556.378
1596.32	562.995
1598.77	573.878
1601.23	588.885
1603.68	597.473
1606.14	580.505
1608.59	568.242
1611.04	560.144
1613.5	543.995
1615.95	516.653
1618.4	496.285
1620.86	463.034
1623.31	415.94
1625.77	392.014
1628.22	336.985
1630.67	341.94
1633.13	299.728
1635.58	280.364
1638.04	272.393
1640.49	246.618
1642.94	250.234
1645.4	230.642
1647.85	205.71
1650.31	211.836
1652.76	200.69
1655.21	179.891
1657.67	182.5
1660.12	168.983
1662.58	160.283
1665.03	154.951
1667.48	150.277
1669.94	136.448
1672.39	126.905
1674.85	115.306
1677.3	114.021
1679.75	108.508
1682.21	108.408
1684.66	104.967
1687.12	98.7044
1689.57	94.3446
1692.02	91.2421
1694.48	91.6966
1696.93	80.058
1699.39	92.1545
1701.84	86.4567
1704.29	73.2604
1706.75	75.545
1709.2	76.7215
1711.66	72.3563
1714.11	74.3626
1716.56	69.6537
1719.02	73.656
1721.47	69.8155
1723.93	68.7181
1726.38	68.2842
1728.83	68.8027
1731.29	69.7558
1733.74	65.4524
1736.2	64.4536
1738.65	60.0815
1741.1	64.588
1743.56	62.1653
1746.01	60.4862
1748.47	69.3655
1750.92	56.1621
1753.37	66.7311
1755.83	54.7664
1758.28	60.8401
1760.74	64.7389
1763.19	62.0751
1765.64	60.4297
1768.1	65.6597
1770.55	56.6448
1773.01	63.4982
1775.46	52.2691
1777.91	56.5252
1780.37	57.7646
1782.82	58.5653
1785.28	56.3406
1787.73	60.101
1790.18	50.6258
1792.64	55.8963
1795.09	59.6451
1797.55	53.855
1800	56.8591
1802.45	55.9733
1804.91	54.2769
1807.36	53.2598
1809.82	56.2832
1812.27	56.1456
1814.72	53.5486
1817.18	58.8023
1819.63	60.928
1822.09	55.679
1824.54	55.8638
1826.99	60.2683
1829.45	67.5258
1831.9	61.4464
1834.36	58.0403
1836.81	55.4021
1839.26	57.0736
1841.72	57.7549
1844.17	57.6489
1846.63	58.4131
1849.08	61.2464
1851.53	54.4625
1853.99	58.58
1856.44	58.7023
1858.9	53.6957
1861.35	58.5669
1863.8	57.6635
1866.26	56.0284
1868.71	54.7944
1871.17	56.4499
1873.62	55.5632
1876.07	54.856
1878.53	52.7445
1880.98	59.0818
1883.44	59.5733
1885.89	52.2225
1888.34	67.0011
1890.8	59.9936
1893.25	54.986
1895.71	56.5456
1898.16	59.2817
1900.61	57.936
1903.07	57.7481
1905.52	58.1417
1907.98	57.6045
1910.43	55.9305
1912.88	59.8296
1915.34	53.5797
1917.79	54.4769
1920.25	52.8723
1922.7	61.406
1925.15	54.108
1927.61	50.5335
1930.06	61.2868
1932.52	52.5611
1934.97	57.9938
1937.42	58.4358
1939.88	54.6351
1942.33	53.9436
1944.79	58.3333
1947.24	50.6591
1949.69	55.8788
1952.15	53.2466
1954.6	54.8321
1957.06	48.9091
1959.51	58.4627
1961.96	58.9582
1964.42	53.8832
1966.87	61.1273
1969.33	57.4013
1971.78	52.1214
1974.23	52.607
1976.69	54.0668
1979.14	53.1616
1981.6	57.3512
1984.05	58.8639
1986.5	56.4342
1988.96	57.0507
1991.41	49.4628
1993.86	60.2157
1996.32	52.0193
1998.77	58.4947
2001.23	57.7266
2003.68	52.7371
2006.14	62.1861
2008.59	53.9972
2011.04	59.4618
2013.5	56.7229
2015.95	54.1244
2018.4	51.9859
2020.86	57.6269
2023.31	60.9133
2025.77	56.6381
2028.22	52.2331
2030.67	62.918
2033.13	59.5221
2035.58	55.017
2038.04	62.4031
2040.49	59.4814
2042.94	55.6159
2045.4	60.4956
2047.85	62.0022
2050.31	60.2087
2052.76	59.2772
2055.21	52.9421
2057.67	67.1664
2060.12	60.6255
2062.58	62.4023
2065.03	57.1707
2067.48	56.0636
2069.94	58.8278
2072.39	52.4149
2074.85	48.2226
2077.3	57.023
2079.75	52.6047
2082.21	59.641
2084.66	57.262
2087.12	58.2806
2089.57	56.6483
2092.02	57.2906
2094.48	56.0306
2096.93	61.5836
2099.39	60.7676
2101.84	58.1438
2104.29	55.3962
2106.75	57.8946
2109.2	59.7241
2111.66	62.6632
2114.11	56.1113
2116.56	53.8199
2119.02	59.0364
2121.47	55.4532
2123.93	56.0673
2126.38	59.8904
2128.83	56.8612
2131.29	53.7262
2133.74	59.6861
2136.2	53.063
2138.65	61.4266
2141.1	61.991
2143.56	60.7624
2146.01	50.9708
2148.47	55.641
2150.92	53.5002
2153.37	56.9112
2155.83	60
2158.28	62.3333
2160.74	59.3367
2163.19	54.7368
2165.64	65.6512
2168.1	59.5776
2170.55	56.0054
2173.01	65.1601
2175.46	62.1254
2177.91	58.5164
2180.37	50.7923
2182.82	60.6493
2185.28	54.4534
2187.73	59.9972
2190.18	61.8733
2192.64	57.9559
2195.09	59.1388
2197.55	59.1152
2200	57.0828
2202.45	59.2104
2204.91	57.3238
2207.36	57.5397
2209.82	61.9437
2212.27	60.444
2214.72	57.8988
2217.18	56.6015
2219.63	57.4671
2222.09	66.0576
2224.54	63.0619
2226.99	63.5025
2229.45	69.684
2231.9	91.399
2234.36	55.5535
2236.81	60.2305
2239.26	63.2373
2241.72	64.4807
2244.17	61.5775
2246.63	60.68
2249.08	60.2192
2251.53	65.0039
2253.99	65.1827
2256.44	62.0649
2258.9	60.7927
2261.35	59.437
2263.8	61.8674
2266.26	63.1516
2268.71	59.1277
2271.17	63.049
2273.62	60.0757
2276.07	67.4326
2278.53	58.5575
2280.98	70.1798
2283.44	65.4645
2285.89	60.422
2288.34	64.0897
2290.8	71.9935
2293.25	59.1855
2295.71	66.0404
2298.16	67.3045
2300.61	66.6846
2303.07	65.0005
2305.52	67.3546
2307.98	60.1884
2310.43	70.9798
2312.88	67.5666
2315.34	63.9289
2317.79	66.7943
2320.25	67.8536
2322.7	70.0904
2325.15	69.6412
2327.61	75.1709
2330.06	87.6636
2332.52	86.8736
2334.97	67.2622
2337.42	72.8553
2339.88	72.4424
2342.33	66.8049
2344.79	67.8985
2347.24	66.7353
2349.69	62.9345
2352.15	67.749
2354.6	70.0101
2357.06	70.9668
2359.51	69.1758
2361.96	69.8595
2364.42	71.812
2366.87	71.7974
2369.33	71.9786
2371.78	70.3421
2374.23	72.7972
2376.69	70.0644
2379.14	70.3695
2381.59	71.7536
2384.05	70.6631
2386.5	69.602
2388.96	79.2539
2391.41	74.6521
2393.86	72.2691
2396.32	70.5112
2398.77	77.8214
2401.23	76.1733
2403.68	74.1785
2406.14	80.5786
2408.59	70.2377
2411.04	72.7026
2413.5	79.3014
2415.95	74.5406
2418.41	80.0684
2420.86	80.1766
2423.31	75.4135
2425.77	79.8869
2428.22	81.5357
2430.67	77.0923
2433.13	79.055
2435.58	83.3354
2438.04	81.7972
2440.49	80.1065
2442.94	85.133
2445.4	80.8016
2447.85	82.6333
2450.31	74.3613
2452.76	78.9011
2455.21	82.2371
2457.67	79.0849
2460.12	80.8536
2462.58	87.1733
2465.03	85.5633
2467.48	85.3989
2469.94	85.2152
2472.39	88.6498
2474.85	93.8377
2477.3	87.6771
2479.75	91.203
2482.21	77.7472
2484.66	89.6949
2487.12	92.6464
2489.57	93.8968
2492.02	91.8293
2494.48	91.6243
2496.93	83.5073
2499.39	89.4187
2501.84	95.6464
2504.29	93.6933
2506.75	91.0023
2509.2	95.0817
2511.66	91.9152
2514.11	90.8704
2516.56	91.9602
2519.02	88.7811
2521.47	92.3209
2523.93	93.5442
2526.38	93.1075
2528.83	98.3488
2531.29	100.065
2533.74	100.669
2536.2	94.1364
2538.65	99.068
2541.1	105.154
2543.56	97.459
2546.01	100.368
2548.47	101.567
2550.92	92.4276
2553.37	98.1633
2555.83	103.731
2558.28	101.82
2560.74	93.9992
2563.19	103.849
2565.64	103.192
2568.1	111.783
2570.55	107.056
2573.01	103.615
2575.46	107.189
2577.91	103.995
2580.37	98.1168
2582.82	105.626
2585.28	106.451
2587.73	103.997
2590.18	106.546
2592.64	105.146
2595.09	106.336
2597.55	107.382
2600	110.26
2602.45	103.924
2604.91	109.386
2607.36	100.254
2609.82	119.992
2612.27	108.576
2614.72	115.054
2617.18	107.206
2619.63	116.797
2622.09	114.442
2624.54	111.261
2626.99	117.471
2629.45	123.379
2631.9	123.088
2634.36	125.995
2636.81	121.692
2639.26	114.763
2641.72	124.708
2644.17	112.456
2646.63	118.099
2649.08	121.38
2651.53	124.398
2653.99	120.693
2656.44	113.365
2658.9	123.244
2661.35	112.607
2663.8	127.997
2666.26	115.007
2668.71	119.96
2671.17	123.647
2673.62	129.735
2676.07	133.754
2678.53	129.71
2680.98	127.498
2683.44	130.441
2685.89	122.976
2688.34	112.52
2690.8	120.898
2693.25	115.142
2695.71	121.128
2698.16	119.733
2700.61	121.211
2703.07	125.392
2705.52	123.433
2707.98	131.19
2710.43	129.613
2712.88	126.56
2715.34	120.991
2717.79	129.942
2720.25	125.578
2722.7	117.618
2725.15	127.079
2727.61	133.523
2730.06	125.045
2732.52	126.077
2734.97	126.638
2737.42	130.253
2739.88	121.779
2742.33	113.971
2744.79	125.982
2747.24	125.232
2749.69	125.93
2752.15	128.606
2754.6	123.215
2757.06	123.488
2759.51	124.547
2761.96	118.69
2764.42	117.126
2766.87	118.305
2769.33	123.779
2771.78	124.427
2774.23	120.307
2776.69	131.626
2779.14	115.219
2781.59	119.12
2784.05	122.338
2786.5	122.89
2788.96	120.384
2791.41	122.025
2793.86	124.044
2796.32	118.709
2798.77	123.492
2801.23	116.943
2803.68	119.988
2806.14	122.377
2808.59	120.625
2811.04	125.401
2813.5	118.069
2815.95	119.333
2818.41	120.607
2820.86	141.768
2823.31	123.311
2825.77	131.543
2828.22	121.301
2830.67	121.599
2833.13	120.385
2835.58	127.121
2838.04	122.159
2840.49	127.258
2842.94	129.521
2845.4	125.81
2847.85	120.992
2850.31	128.442
2852.76	126.667
2855.21	126.999
2857.67	126.455
2860.12	127.817
2862.58	126.838
2865.03	126.706
2867.48	132.875
2869.94	139.39
2872.39	131.581
2874.85	130.15
2877.3	137.483
2879.75	120.172
2882.21	130.135
2884.66	135.351
2887.12	132.87
2889.57	138.647
2892.02	138.539
2894.48	127.406
2896.93	135.545
2899.39	138.395
2901.84	136.825
2904.29	131.191
2906.75	143.507
2909.2	134.501
2911.66	144.381
2914.11	138.178
2916.56	134.185
2919.02	146.126
2921.47	150.841
2923.93	142.309
2926.38	138.238
2928.83	140.525
2931.29	136.363
2933.74	145.881
2936.2	134.319
2938.65	141.774
2941.1	142.344
2943.56	139.276
2946.01	134.468
2948.47	133.406
2950.92	131.664
2953.37	127.979
2955.83	129.156
2958.28	134.201
2960.74	120.921
2963.19	126.918
2965.64	126.883
2968.1	120.769
2970.55	122.358
2973.01	123.246
2975.46	115.699
2977.91	128.056
2980.37	120.99
2982.82	120.82
2985.28	129.345
2987.73	125.124
2990.18	114.526
2992.64	113.615
2995.09	111.46
2997.55	112.047
3000	108.187