File: Example Data/Raman/CNT - TIM/Raytheon/Al foil/2010/04-03-10/Al - 4-3-10 - run2 - 10 microns - b_3.txt
200	82.8293
202.454	80.7793
204.908	83.5503
207.362	86.9986
209.816	89.5547
212.27	83.7431
214.724	96.8476
217.178	91.8721
219.632	82.689
222.086	82.3255
224.54	89.7289
226.994	85.4615
229.448	88.2088
231.902	97.0726
234.356	95.9703
236.81	85.8773
239.264	92.158
241.718	88.429
244.172	93.1097
246.626	86.2385
249.08	87.0335
251.534	95.6143
253.988	84.614
256.442	97.3264
258.896	93.548
261.35	93.6541
263.804	89.6463
266.258	91.7784
268.712	93.1948
271.166	96.9365
273.62	85.7975
276.074	94.4511
278.528	93.7995
280.982	91.9399
283.436	92.3076
285.89	98.5559
288.344	90.129
290.798	94.0797
293.252	90.3337
295.706	89.4201
298.16	91.4038
300.613	88.1487
303.067	88.134
305.521	83.2118
307.975	81.6178
310.429	83.5005
312.883	85.8969
315.337	93.3063
317.791	88.5555
320.245	88.6745
322.699	81.7098
325.153	83.1723
327.607	85.3591
330.061	84.9599
332.515	90.2338
334.969	84.0904
337.423	83.3707
339.877	82.9322
342.331	83.743
344.785	80.6269
347.239	82.3333
349.693	82.2792
352.147	85.4004
354.601	80.3799
357.055	80.0339
359.509	84.3729
361.963	83.6674
364.417	84.0951
366.871	91.6354
369.325	83.5188
371.779	94.5875
374.233	81.0355
376.687	80.8711
379.141	85.2738
381.595	78.4531
384.049	83.3497
386.503	83.3069
388.957	82.676
391.411	76.8543
393.865	75.9037
396.319	77.9978
398.773	78.7514
401.227	81.5155
403.681	79.0748
406.135	79.2676
408.589	80.4058
411.043	81.2103
413.497	76.0756
415.951	84.3531
418.405	69.3944
420.859	82.8752
423.313	79.9877
425.767	74.9301
428.221	76.3333
430.675	81.7517
433.129	77.0292
435.583	85.5526
438.037	74.882
440.491	72.636
442.945	80.5201
445.399	75.0323
447.853	71.8343
450.307	78.2366
452.761	73.7314
455.215	72.9983
457.669	77.2205
460.123	79.1335
462.577	76.8759
465.031	81.2299
467.485	75.4334
469.939	75.2198
472.393	70.6457
474.847	65.03125
477.301	71.5242
479.755	68.4616
482.209	76.7354
484.663	81.6082
487.117	74.0686
489.571	70.739
492.025	73.8298
494.479	73.3315
496.933	65.8345
499.387	64.6875
501.84	64.7508
504.294	66.1861
506.748	61.6155
509.202	62
511.656	58.0514
514.11	61.4928
516.564	63.9928
519.018	68.0777
521.472	65.1439
523.926	70.0215
526.38	68.0369
528.834	62.5806
531.288	59.4364
533.742	61.9955
536.196	67.0362
538.65	56.226
541.104	62.2404
543.558	59.8056
546.012	66.8399
548.466	61.7306
550.92	62.0582
553.374	63.0719
555.828	69.97
558.282	69.1114
560.736	67.5969
563.19	67.3252
565.644	65.0092
568.098	67.8725
570.552	64.7224
573.006	65.5541
575.46	65.0047
577.914	62.456
580.368	73.4768
582.822	62.6991
585.276	72.2767
587.73	67.4902
590.184	68.2298
592.638	61.046
595.092	76.8225
597.546	63.9093
600	66.5042
602.454	62.4923
604.908	70.6135
607.362	64.2837
609.816	72.9952
612.27	64.6145
614.724	61.7497
617.178	70.2788
619.632	61.764
622.086	66.4053
624.54	75.5238
626.994	68.971
629.448	65.9364
631.902	67.3828
634.356	69.0174
636.81	62.7172
639.264	75.7434
641.718	75.9433
644.172	76.0767
646.626	72.6971
649.08	71.6621
651.534	78.186
653.988	73.5528
656.442	69.8215
658.896	77.0589
661.35	78.5872
663.804	66.1676
666.258	69.2151
668.712	78.9656
671.166	74.1224
673.62	80.7799
676.074	72.4515
678.528	74.374
680.982	74.7315
683.436	79.8529
685.89	69.7566
688.344	76.2933
690.798	70.0915
693.252	71.4508
695.706	71.2265
698.159	75.537
700.614	74.6977
703.068	80.6544
705.521	76.2274
707.975	76.6065
710.429	73.9974
712.883	70.0063
715.337	75.7265
717.791	79.392
720.245	72.7738
722.699	80.3671
725.153	85.5273
727.607	77.1093
730.061	77.115
732.515	78.3333
734.969	77.3572
737.423	85.6498
739.877	75.3209
742.331	76.2572
744.785	83.2109
747.239	74.752
749.693	81.3149
752.147	83.3937
754.601	86.6605
757.055	81.5303
759.509	83.3834
761.963	80.6697
764.417	79.9724
766.871	82.8039
769.325	89.1957
771.779	81.6154
774.233	77.3329
776.687	91.3462
779.141	78.1616
781.595	91.4122
784.049	90.9178
786.503	96.0433
788.957	83.937
791.411	89.7282
793.865	86.3345
796.319	85.0673
798.773	92.9346
801.227	81.2821
803.681	90.372
806.135	87.8543
808.589	92.4372
811.043	93.1904
813.497	93.1774
815.951	91.6052
818.405	96
820.859	97.6891
823.313	91.0141
825.767	91.7885
828.221	95.2212
830.675	96.4616
833.129	90.981
835.583	95.3463
838.037	87.2473
840.491	96.838
842.945	100.186
845.399	94.0958
847.853	97.1719
850.307	103.85
852.761	93.8252
855.215	91.3145
857.669	94.5991
860.123	85.0308
862.577	96.6538
865.031	93.4837
867.485	92.1603
869.939	97.4526
872.393	86.6312
874.847	99.0944
877.301	87.8552
879.755	84.5578
882.209	93.2895
884.663	83.4757
887.117	90.9816
889.571	85.7718
892.025	84.7896
894.479	82.4293
896.932	84.8044
899.386	87.3802
901.841	86.8722
904.294	82.766
906.748	83.5626
909.202	87.7329
911.656	80.946
914.11	75.658
916.564	78.2277
919.018	83.8349
921.472	80.8467
923.926	76.5942
926.38	76.1198
928.834	76.9008
931.288	82.809
933.742	75.6583
936.196	90.0357
938.65	76.9184
941.104	81.36
943.558	88.3525
946.012	80.7938
948.466	81.4435
950.92	77.3591
953.374	80.7977
955.828	83.7212
958.282	82.7432
960.736	79.5312
963.19	84.7374
965.644	79.6488
968.098	82.0223
970.552	77.1954
973.006	81.2313
975.46	90.1924
977.914	81.171
980.368	80.5065
982.822	78.6667
985.276	87
987.73	86.8798
990.184	82.4954
992.638	93.7701
995.092	77.2314
997.546	80.7482
1000	103.196
1002.45	89.3908
1004.91	95.8175
1007.36	91.6226
1009.82	100.128
1012.27	92.5986
1014.72	92.6945
1017.18	92.6104
1019.63	101.585
1022.09	97.1227
1024.54	101.756
1026.99	106.338
1029.45	101.97
1031.9	99.2975
1034.36	115.653
1036.81	113.232
1039.26	112.63
1041.72	114.586
1044.17	107.051
1046.63	114.201
1049.08	113.503
1051.53	114.396
1053.99	113.363
1056.44	126.277
1058.9	120.495
1061.35	117.073
1063.8	126.474
1066.26	116.313
1068.71	122.334
1071.17	134.299
1073.62	121.031
1076.07	126.066
1078.53	124.244
1080.98	134.249
1083.44	127.354
1085.89	135.131
1088.34	131.985
1090.8	126.997
1093.25	137.784
1095.71	140.038
1098.16	143.559
1100.61	136.964
1103.07	138.85
1105.52	147.083
1107.98	137.336
1110.43	142.275
1112.88	143.387
1115.34	141.704
1117.79	152.57
1120.25	152.454
1122.7	152.977
1125.15	155.924
1127.61	168.93
1130.06	174.53
1132.52	170.257
1134.97	160.477
1137.42	175.852
1139.88	176.657
1142.33	180.966
1144.79	186.296
1147.24	194.998
1149.69	193.765
1152.15	205.814
1154.6	212.346
1157.06	204.779
1159.51	200.882
1161.96	208.665
1164.42	210.325
1166.87	218.613
1169.33	210.746
1171.78	221.174
1174.23	205.446
1176.69	215.928
1179.14	218.23
1181.6	233.715
1184.05	230.549
1186.5	226.847
1188.96	221.938
1191.41	228.516
1193.86	231.175
1196.32	241.166
1198.77	243.037
1201.23	243.776
1203.68	244.135
1206.14	258.485
1208.59	251.933
1211.04	268.15
1213.5	259.449
1215.95	264.804
1218.4	263.838
1220.86	277.821
1223.31	273.749
1225.77	287.1
1228.22	289.757
1230.67	298.163
1233.13	288.053
1235.58	288.93
1238.04	314.311
1240.49	308.607
1242.94	310.749
1245.4	318.889
1247.85	328.322
1250.31	326.64
1252.76	340.275
1255.21	342.445
1257.67	363.177
1260.12	344.165
1262.58	370.016
1265.03	385.584
1267.48	384.036
1269.94	391.59
1272.39	415.214
1274.85	406.018
1277.3	429.759
1279.75	424.21
1282.21	449.39
1284.66	463.91
1287.12	459.841
1289.57	472.09
1292.02	486.504
1294.48	500.787
1296.93	524.379
1299.39	540.205
1301.84	539.279
1304.29	581.018
1306.75	572.218
1309.2	575.287
1311.66	609.182
1314.11	637.125
1316.56	636.897
1319.02	669.804
1321.47	693.61
1323.93	713.803
1326.38	703.974
1328.83	714.544
1331.29	750.627
1333.74	749.007
1336.2	765.037
1338.65	785.69
1341.1	789.615
1343.56	770.786
1346.01	822.46
1348.47	779.44
1350.92	787.989
1353.37	771.758
1355.83	792.273
1358.28	760.505
1360.74	743.583
1363.19	736.941
1365.64	705.712
1368.1	713.931
1370.55	696.326
1373.01	681.88
1375.46	671.598
1377.91	628.991
1380.37	632.591
1382.82	625.43
1385.28	605.753
1387.73	576.239
1390.18	565.898
1392.64	555.537
1395.09	547.78
1397.55	529.714
1400	528.763
1402.45	507.089
1404.91	502.384
1407.36	502.457
1409.82	469.535
1412.27	481.896
1414.72	483.499
1417.18	440.198
1419.63	435.875
1422.09	443.759
1424.54	437.616
1426.99	415.172
1429.45	419.282
1431.9	426.585
1434.36	429.304
1436.81	405.016
1439.26	400.379
1441.72	408.369
1444.17	399.024
1446.63	401.439
1449.08	377.038
1451.53	391.852
1453.99	397.354
1456.44	375.016
1458.9	391.215
1461.35	393.342
1463.8	400.905
1466.26	382.917
1468.71	396.067
1471.17	379.167
1473.62	384.136
1476.07	387.452
1478.53	379.955
1480.98	385.769
1483.44	376.621
1485.89	381.705
1488.34	388.847
1490.8	382.759
1493.25	386.553
1495.71	392.742
1498.16	386.722
1500.61	383.648
1503.07	385.94
1505.52	396.027
1507.98	391.654
1510.43	395.959
1512.88	403.957
1515.34	391.076
1517.79	397.507
1520.25	399.84
1522.7	405.658
1525.15	405.52
1527.61	417.429
1530.06	418.063
1532.52	427.792
1534.97	422.036
1537.42	432.83
1539.88	431.446
1542.33	448.306
1544.79	450.559
1547.24	465.252
1549.69	472.194
1552.15	478.155
1554.6	499.625
1557.06	515.638
1559.51	527.557
1561.96	539.449
1564.42	543.322
1566.87	565.584
1569.33	571.274
1571.78	596.131
1574.23	630.2
1576.69	656.255
1579.14	680.446
1581.6	688.116
1584.05	721.087
1586.5	747.66
1588.96	753.2
1591.41	788.96
1593.86	783.085
1596.32	823.42
1598.77	825.162
1601.23	840.788
1603.68	876.072
1606.14	868.524
1608.59	848.483
1611.04	823.125
1613.5	811.135
1615.95	795.999
1618.4	752.891
1620.86	738.976
1623.31	703.117
1625.77	643.66
1628.22	595.349
1630.67	561.161
1633.13	521.488
1635.58	475.776
1638.04	439.367
1640.49	422.244
1642.94	381.91
1645.4	371.186
1647.85	355.082
1650.31	323.238
1652.76	303.946
1655.21	281.013
1657.67	258.882
1660.12	247.708
1662.58	231.291
1665.03	219.689
1667.48	208.869
1669.94	198.333
1672.39	190.128
1674.85	171.529
1677.3	162.929
1679.75	162.715
1682.21	147.445
1684.66	139.522
1687.12	133.278
1689.57	130.919
1692.02	125.801
1694.48	120.42
1696.93	110.9
1699.39	113.204
1701.84	110.042
1704.29	102.868
1706.75	102.397
1709.2	103.234
1711.66	94.883
1714.11	102.157
1716.56	94.3768
1719.02	85.1465
1721.47	92.55
1723.93	83.5947
1726.38	81.5315
1728.83	83.7519
1731.29	86.0182
1733.74	83.7852
1736.2	80.698
1738.65	75.4549
1741.1	83.5519
1743.56	76.9542
1746.01	73.2065
1748.47	74.3655
1750.92	77.8221
1753.37	72.1709
1755.83	66.5876
1758.28	69.4742
1760.74	70.5136
1763.19	72.8032
1765.64	72.0964
1768.1	70.3833
1770.55	69.8429
1773.01	74.8175
1775.46	66.0835
1777.91	67.9257
1780.37	61.6396
1782.82	70.3092
1785.28	69.7939
1787.73	65.3218
1790.18	66.0749
1792.64	66.1423
1795.09	66.4239
1797.55	71.9007
1800	72.8221
1802.45	68.1295
1804.91	64.7959
1807.36	71.9886
1809.82	71.4014
1812.27	70.8317
1814.72	72.3108
1817.18	69.0842
1819.63	72.1893
1822.09	69.6667
1824.54	63.7931
1826.99	74.1022
1829.45	70.6004
1831.9	68.9318
1834.36	64.7028
1836.81	68.4021
1839.26	63.3049
1841.72	60.4969
1844.17	69.6607
1846.63	67.2757
1849.08	66.4299
1851.53	69.4724
1853.99	61.4786
1856.44	70.1578
1858.9	68.0911
1861.35	68.5138
1863.8	70.0284
1866.26	66.2986
1868.71	63.2055
1871.17	65.68
1873.62	63.1149
1876.07	65.3374
1878.53	70.5995
1880.98	71.2768
1883.44	67.8449
1885.89	66.2567
1888.34	71.5748
1890.8	64.9915
1893.25	70.79
1895.71	66.1515
1898.16	59.0902
1900.61	60.4722
1903.07	65.0968
1905.52	63.396
1907.98	63.0546
1910.43	63.9542
1912.88	73.767
1915.34	70.2212
1917.79	65.2624
1920.25	62.6293
1922.7	69.6434
1925.15	64.6667
1927.61	59.5996
1930.06	70.9756
1932.52	59.8016
1934.97	64.0875
1937.42	67.3622
1939.88	68.3528
1942.33	71.8411
1944.79	66.8894
1947.24	71.5448
1949.69	69.9396
1952.15	65.9467
1954.6	65.8743
1957.06	68.1133
1959.51	69.4492
1961.96	70.6486
1964.42	66.3917
1966.87	61.5768
1969.33	65.3047
1971.78	70.9533
1974.23	62.4496
1976.69	68.1554
1979.14	64.7593
1981.6	69.2304
1984.05	62.4773
1986.5	69.057
1988.96	65.2693
1991.41	66.0275
1993.86	77.5668
1996.32	69.3306
1998.77	62.4796
2001.23	69.247
2003.68	64.0394
2006.14	68.0042
2008.59	66.651
2011.04	71.7547
2013.5	65.9053
2015.95	59.4468
2018.4	70.3245
2020.86	68.0703
2023.31	60.8626
2025.77	72.2333
2028.22	72.0806
2030.67	65
2033.13	67.292
2035.58	67.3977
2038.04	72.8116
2040.49	67.1756
2042.94	72.9294
2045.4	72.8231
2047.85	65.5762
2050.31	70.1653
2052.76	71.9794
2055.21	62.1574
2057.67	74.1998
2060.12	67.9139
2062.58	66.0413
2065.03	71.1698
2067.48	71.0636
2069.94	73.4392
2072.39	74.1732
2074.85	69.4592
2077.3	68.2644
2079.75	67.419
2082.21	64.388
2084.66	70.0763
2087.12	66.0419
2089.57	71.5759
2092.02	69.4445
2094.48	71.1512
2096.93	68.3964
2099.39	69.3261
2101.84	63.0573
2104.29	57.0734
2106.75	65.5431
2109.2	70.2196
2111.66	64.7766
2114.11	67.0981
2116.56	61.6125
2119.02	66.5616
2121.47	67.5412
2123.93	66.3596
2126.38	58.9407
2128.83	70.0538
2131.29	61.4296
2133.74	65.6428
2136.2	72.4087
2138.65	65.0155
2141.1	70.2148
2143.56	77.5728
2146.01	69.765
2148.47	60.846
2150.92	68.5832
2153.37	73.9616
2155.83	73.3592
2158.28	65.6678
2160.74	74.6599
2163.19	65.1572
2165.64	66.0205
2168.1	76
2170.55	73.2511
2173.01	72.2343
2175.46	71.8605
2177.91	68.4303
2180.37	72.0659
2182.82	71.6551
2185.28	75.9469
2187.73	74.3343
2190.18	64.4923
2192.64	66.4656
2195.09	71.7082
2197.55	73.0377
2200	62.0243
2202.45	67.1369
2204.91	67.0231
2207.36	76.5603
2209.82	77.5641
2212.27	69.4419
2214.72	76.1372
2217.18	73.0726
2219.63	74.489
2222.09	68.1127
2224.54	76.4695
2226.99	71.3141
2229.45	70.9906
2231.9	70.3681
2234.36	78.8639
2236.81	70.531
2239.26	75.744
2241.72	73.9975
2244.17	73.5558
2246.63	75.787
2249.08	72.8071
2251.53	72.6333
2253.99	73.439
2256.44	72.658
2258.9	77.5192
2261.35	75.7252
2263.8	80.4067
2266.26	82.5654
2268.71	70.7423
2271.17	80.2264
2273.62	74.5937
2276.07	78.9645
2278.53	76.8944
2280.98	79.9527
2283.44	78.0123
2285.89	80.0065
2288.34	81.5948
2290.8	83.777
2293.25	80.2596
2295.71	77.3583
2298.16	76.9708
2300.61	75.4918
2303.07	81.4212
2305.52	73.2434
2307.98	71.2674
2310.43	81.7628
2312.88	79.5865
2315.34	85.5062
2317.79	82.2825
2320.25	87.1287
2322.7	87.6742
2325.15	85.4542
2327.61	83.6079
2330.06	105.238
2332.52	88.5559
2334.97	78.5738
2337.42	83.2887
2339.88	80.3835
2342.33	78.179
2344.79	82.0002
2347.24	82.6412
2349.69	88.9402
2352.15	83.1359
2354.6	79.2582
2357.06	79.6355
2359.51	81.22
2361.96	81.9554
2364.42	80.3162
2366.87	85.9172
2369.33	87.7651
2371.78	84.2333
2374.23	89.8219
2376.69	88.7179
2379.14	89.4082
2381.59	82.816
2384.05	89.8969
2386.5	91.8542
2388.96	89.8669
2391.41	91.0772
2393.86	89.5871
2396.32	82.9682
2398.77	95.9688
2401.23	90.3055
2403.68	95.0574
2406.14	101.732
2408.59	92.4081
2411.04	92.2459
2413.5	96.6215
2415.95	98.5191
2418.41	100.365
2420.86	102.781
2423.31	96.7608
2425.77	101.801
2428.22	102.437
2430.67	102.939
2433.13	106.521
2435.58	106.248
2438.04	107.105
2440.49	109.359
2442.94	105.127
2445.4	107.391
2447.85	105.973
2450.31	100.815
2452.76	111.382
2455.21	108.435
2457.67	103.601
2460.12	106.193
2462.58	107.609
2465.03	109.135
2467.48	114.7
2469.94	104.856
2472.39	109.806
2474.85	118.664
2477.3	113.871
2479.75	111.254
2482.21	109.441
2484.66	113.932
2487.12	118.463
2489.57	113.169
2492.02	111.923
2494.48	116.415
2496.93	116.817
2499.39	114.62
2501.84	121.328
2504.29	119.384
2506.75	119.997
2509.2	116.323
2511.66	117.869
2514.11	122.237
2516.56	118.792
2519.02	132.5
2521.47	121.011
2523.93	130.765
2526.38	127.927
2528.83	133.786
2531.29	116.571
2533.74	125.186
2536.2	124.694
2538.65	134.699
2541.1	128.257
2543.56	126.987
2546.01	136.108
2548.47	138.37
2550.92	142.546
2553.37	131.777
2555.83	136.917
2558.28	134.798
2560.74	134.052
2563.19	142.263
2565.64	133.475
2568.1	137.34
2570.55	144.687
2573.01	139.836
2575.46	147.545
2577.91	149.481
2580.37	152.289
2582.82	148.919
2585.28	152.087
2587.73	147.766
2590.18	157.582
2592.64	157.978
2595.09	148.998
2597.55	157.435
2600	157.137
2602.45	158.437
2604.91	149.921
2607.36	149.025
2609.82	169.528
2612.27	167.021
2614.72	162.777
2617.18	162.151
2619.63	166.15
2622.09	171.281
2624.54	168.697
2626.99	170.901
2629.45	166.806
2631.9	181.685
2634.36	185.828
2636.81	177.929
2639.26	181.568
2641.72	184.528
2644.17	176.744
2646.63	198.182
2649.08	189.191
2651.53	205.036
2653.99	192.242
2656.44	195.726
2658.9	203.248
2661.35	206.901
2663.8	206.39
2666.26	213.573
2668.71	202.72
2671.17	218.662
2673.62	218.236
2676.07	198.302
2678.53	212.754
2680.98	216.075
2683.44	237.194
2685.89	216.383
2688.34	216.291
2690.8	224.508
2693.25	217.322
2695.71	213.168
2698.16	227.207
2700.61	230.228
2703.07	230.608
2705.52	225.567
2707.98	210.91
2710.43	211.089
2712.88	213.064
2715.34	220.094
2717.79	226.697
2720.25	226.172
2722.7	211.921
2725.15	213.562
2727.61	212
2730.06	207.806
2732.52	198.746
2734.97	204.349
2737.42	200.661
2739.88	191.745
2742.33	196.328
2744.79	195.708
2747.24	204.341
2749.69	199.844
2752.15	189.732
2754.6	190.148
2757.06	191.768
2759.51	203.56
2761.96	204.252
2764.42	194.333
2766.87	185.172
2769.33	183.6
2771.78	189.087
2774.23	179.166
2776.69	188.855
2779.14	181.379
2781.59	179.494
2784.05	189.917
2786.5	185.398
2788.96	172.08
2791.41	179.607
2793.86	180.549
2796.32	179.746
2798.77	178.492
2801.23	186.517
2803.68	186.394
2806.14	170.678
2808.59	178.667
2811.04	184.186
2813.5	178.489
2815.95	172.864
2818.41	177.769
2820.86	177.967
2823.31	176.79
2825.77	183.615
2828.22	188.764
2830.67	181.956
2833.13	180.949
2835.58	175.442
2838.04	176.552
2840.49	177.04
2842.94	178.82
2845.4	184.217
2847.85	180.129
2850.31	196.16
2852.76	186.805
2855.21	166.118
2857.67	192.042
2860.12	187.505
2862.58	185.815
2865.03	189.821
2867.48	182.834
2869.94	186.891
2872.39	189.008
2874.85	189.624
2877.3	197.299
2879.75	194.931
2882.21	189.118
2884.66	208.11
2887.12	192.853
2889.57	192.005
2892.02	206.27
2894.48	184.182
2896.93	209.812
2899.39	208.101
2901.84	199.588
2904.29	211.819
2906.75	202.496
2909.2	199.242
2911.66	214.26
2914.11	206.276
2916.56	206.415
2919.02	203.472
2921.47	206.278
2923.93	207.671
2926.38	216.939
2928.83	208.023
2931.29	201.117
2933.74	214.826
2936.2	213.643
2938.65	217.883
2941.1	203.25
2943.56	206.259
2946.01	204.54
2948.47	206.703
2950.92	199.105
2953.37	193.066
2955.83	204.858
2958.28	195.588
2960.74	197.202
2963.19	195.229
2965.64	191.032
2968.1	190.641
2970.55	195.678
2973.01	186.087
2975.46	194.373
2977.91	181.277
2980.37	187.01
2982.82	173.36
2985.28	178.147
2987.73	174.877
2990.18	167.175
2992.64	172.541
2995.09	167.79
2997.55	172.735
3000	175.177