File: Example Data/Raman/Kara/12-20-10/C-Si-Graphene/1 bulk/CSGbulk1_2.txt
100	131.873
102.559	136.544
105.117	134.974
107.676	135.883
110.235	149.948
112.793	155.167
115.352	161.535
117.91	168.586
120.469	167.903
123.028	173.824
125.586	177.658
128.145	185.677
130.704	196.096
133.262	200.858
135.821	203.583
138.38	200.85
140.938	200.828
143.497	201.94
146.055	196.131
148.614	194.045
151.173	196.887
153.731	200.366
156.29	199.304
158.849	189.359
161.407	188.554
163.966	184.374
166.525	181.747
169.083	180.066
171.642	176.275
174.2	169.516
176.759	169.072
179.318	172.744
181.876	173.287
184.435	165.754
186.994	168.979
189.552	171.923
192.111	170.768
194.67	167.469
197.228	163.108
199.787	150.521
202.345	156.904
204.904	156.341
207.463	151.495
210.021	148.396
212.58	152.438
215.139	150.893
217.697	152.037
220.256	153.121
222.814	155.031
225.373	163.078
227.932	168.096
230.49	167.557
233.049	171.552
235.608	174.769
238.166	166.319
240.725	172.968
243.284	174.411
245.842	176.587
248.401	179.216
250.959	180.194
253.518	177.433
256.077	184.936
258.635	191.049
261.194	191.143
263.753	186.127
266.311	184.013
268.87	194.511
271.429	197.623
273.987	197.301
276.546	200.111
279.104	210.914
281.663	207.33
284.222	215.27
286.78	213.5
289.339	212.418
291.898	221.34
294.456	222.156
297.015	219.575
299.574	223.152
302.132	228.546
304.691	230.718
307.249	226.315
309.808	228.766
312.367	215.075
314.925	212.123
317.484	214.164
320.043	208.918
322.601	204.497
325.16	199.467
327.719	195.088
330.277	196.293
332.836	200.141
335.394	196.028
337.953	188.488
340.512	188.152
343.07	182.396
345.629	177.29
348.188	179.26
350.746	177.291
353.305	188.953
355.864	180.097
358.422	176.979
360.981	182.605
363.539	179.861
366.098	175.912
368.657	176.546
371.215	178.293
373.774	175.206
376.333	168.651
378.891	172.449
381.45	177.063
384.009	172.877
386.567	167.506
389.126	166.8
391.684	172.423
394.243	176.384
396.802	161.308
399.36	161.24
401.919	163.827
404.478	162.519
407.036	159.684
409.595	162.494
412.154	173.851
414.712	171.149
417.271	169.363
419.829	174.425
422.388	173.939
424.947	176.422
427.505	176.238
430.064	180.032
432.623	180.585
435.181	175.764
437.74	178.006
440.298	168.719
442.857	176.193
445.416	176.959
447.974	175.75
450.533	180.167
453.092	179.005
455.65	192.576
458.209	195.927
460.768	192.38
463.326	197.267
465.885	217.256
468.444	224.077
471.002	222.402
473.561	229.018
476.119	240.618
478.678	255.754
481.237	274.174
483.795	295.35
486.354	314.397
488.913	336.142
491.471	363.609
494.03	393.884
496.589	424.175
499.147	460.083
501.706	515.269
504.264	578.623
506.823	660.83
509.382	766.051
511.94	873.646
514.499	919.829
517.058	867.951
519.616	755.648
522.175	632.93
524.733	511.134
527.292	393.97
529.851	301.527
532.409	247.55
534.968	204.236
537.527	169.146
540.085	146.557
542.644	136.598
545.203	130.644
547.761	116.875
550.32	114.905
552.878	109.37
555.437	102.642
557.996	99.6269
560.554	101.147
563.113	93.9103
565.672	101.376
568.23	95.3715
570.789	94.4924
573.348	96.0693
575.906	89.7159
578.465	93.7619
581.023	88.4579
583.582	90.6523
586.141	91.9916
588.699	93.6232
591.258	95.2179
593.817	89.0856
596.375	87.2275
598.934	89.9637
601.493	94.0464
604.051	97.3202
606.61	98.8552
609.168	99.1217
611.727	99.9671
614.286	98.3732
616.844	98.7914
619.403	96.4677
621.962	94.1529
624.52	94.16
627.079	91.7407
629.638	94.2838
632.196	92.0754
634.755	87.3039
637.313	84.7754
639.872	86.7225
642.431	91.0272
644.989	91.197
647.548	86.8638
650.107	95.5673
652.665	94.8811
655.224	92.6231
657.783	95.4057
660.341	92.2447
662.9	86.6295
665.458	90.9159
668.017	89.396
670.576	86.7246
673.134	87.8476
675.693	90.2361
678.252	82.3044
680.81	88.1012
683.369	80.8502
685.927	81.4559
688.486	83.2351
691.045	82.057
693.603	81.6081
696.162	87.6454
698.721	79.9527
701.279	83.3038
703.838	81.1648
706.397	80.4055
708.955	83.6409
711.514	84.3466
714.073	79.4103
716.631	82.6627
719.19	82.6278
721.748	79.7701
724.307	78.057
726.866	77.3728
729.424	74.8857
731.983	75.4005
734.542	78.1465
737.1	80.4621
739.659	81.8896
742.217	86.2122
744.776	91.2584
747.335	88.9498
749.893	75.2713
752.452	80.9425
755.011	80.4859
757.569	81.417
760.128	84.1125
762.687	88.5021
765.245	92.2229
767.804	85.6668
770.362	87.3899
772.921	81.8525
775.48	84.2032
778.038	87.8569
780.597	85.2279
783.156	77.4653
785.714	76.0591
788.273	84.3462
790.832	83.2501
793.39	85.0412
795.949	84.6305
798.507	87.0739
801.066	92.2933
803.625	89.227
806.183	86.4591
808.742	88.0935
811.301	90.8216
813.859	89.257
816.418	89.3532
818.977	91.862
821.535	92.4237
824.094	94.4
826.652	94.4
829.211	87.3977
831.77	87.7237
834.328	91.7729
836.887	95.0871
839.446	94.9505
842.004	92.1708
844.563	99.2985
847.122	105.567
849.68	102.245
852.239	100.838
854.797	103.421
857.356	101.233
859.915	93.0909
862.473	99.554
865.032	99.0313
867.591	102.93
870.149	98.9667
872.708	99.7247
875.267	102.261
877.825	102.723
880.384	103.394
882.942	105.075
885.501	102.981
888.06	103.598
890.618	107.563
893.177	114.095
895.736	117.916
898.294	119.858
900.853	122.135
903.411	108.93
905.97	107.53
908.529	114.39
911.087	120.488
913.646	124.456
916.205	128.618
918.763	132.618
921.322	133.811
923.881	135.062
926.439	139.448
928.998	139.316
931.557	138.241
934.115	134.986
936.674	135.799
939.232	134.548
941.791	125.033
944.35	130.623
946.908	137.657
949.467	129.132
952.026	128.404
954.584	129.039
957.143	127.768
959.701	125.197
962.26	122.012
964.819	117.72
967.377	118.59
969.936	112.415
972.495	110.222
975.053	109.411
977.612	108.245
980.171	106.822
982.729	104.459
985.288	101.303
987.846	102.866
990.405	92.6167
992.964	97.3196
995.522	103.84
998.081	100.237
1000.64	93.4887
1003.2	91.0671
1005.76	92.3538
1008.32	93.283
1010.87	96.2497
1013.43	97.8453
1015.99	95.1173
1018.55	86.5605
1021.11	90.8181
1023.67	93.7337
1026.23	89.77
1028.78	92.1213
1031.34	101.811
1033.9	90.7884
1036.46	90.0774
1039.02	96.655
1041.58	92.6754
1044.14	90.4568
1046.7	88.0356
1049.25	87.2551
1051.81	93.3422
1054.37	97.6478
1056.93	94.0844
1059.49	97.4703
1062.05	92.9697
1064.61	92.9148
1067.16	101.757
1069.72	104.33
1072.28	98.0355
1074.84	96.1146
1077.4	103.632
1079.96	103.505
1082.52	98.5023
1085.07	93.4981
1087.63	94.8019
1090.19	98.867
1092.75	98.8126
1095.31	103.018
1097.87	109.772
1100.43	106.868
1102.99	108.646
1105.54	102.202
1108.1	108.299
1110.66	105.19
1113.22	111.655
1115.78	111.593
1118.34	115.407
1120.9	119.933
1123.45	116.319
1126.01	115.886
1128.57	117.138
1131.13	116.419
1133.69	123.05
1136.25	122.296
1138.81	124.766
1141.36	128.037
1143.92	131.865
1146.48	137.971
1149.04	140.187
1151.6	132.504
1154.16	138.77
1156.72	140.753
1159.28	150.838
1161.83	146.253
1164.39	144.874
1166.95	150.286
1169.51	151.94
1172.07	153.029
1174.63	155.92
1177.19	150.398
1179.74	149.777
1182.3	164.985
1184.86	163.538
1187.42	163.236
1189.98	164.502
1192.54	163.239
1195.1	165.729
1197.65	174.968
1200.21	177.391
1202.77	168.771
1205.33	175.223
1207.89	184.84
1210.45	185.384
1213.01	181.519
1215.57	190.001
1218.12	187.236
1220.68	192.035
1223.24	197.63
1225.8	200.38
1228.36	202.333
1230.92	201.303
1233.48	203.142
1236.03	215.417
1238.59	221.422
1241.15	215.59
1243.71	220.364
1246.27	218.411
1248.83	219.594
1251.39	225.86
1253.94	230.088
1256.5	232.89
1259.06	239.24
1261.62	243.954
1264.18	248.511
1266.74	259.375
1269.3	255.537
1271.85	260.535
1274.41	262.947
1276.97	272.683
1279.53	275.089
1282.09	280.793
1284.65	288.89
1287.21	290.184
1289.77	293.85
1292.32	299.38
1294.88	288.191
1297.44	298.091
1300	308.718
1302.56	319.694
1305.12	321.206
1307.68	327.074
1310.23	332.861
1312.79	332.017
1315.35	334.772
1317.91	344.943
1320.47	352.45
1323.03	361.915
1325.59	365.417
1328.15	348.564
1330.7	371.95
1333.26	378.904
1335.82	389.742
1338.38	391.622
1340.94	390.58
1343.5	381.417
1346.06	385.612
1348.61	392.423
1351.17	384.537
1353.73	390.107
1356.29	390.392
1358.85	394.412
1361.41	403.746
1363.97	389.697
1366.52	393.032
1369.08	387.423
1371.64	375.197
1374.2	365.648
1376.76	363.265
1379.32	368.501
1381.88	366.944
1384.43	355.338
1386.99	349.108
1389.55	340.731
1392.11	333.104
1394.67	317.279
1397.23	327.855
1399.79	330.714
1402.35	311.655
1404.9	318.025
1407.46	306.335
1410.02	302.348
1412.58	303.439
1415.14	295.122
1417.7	288.621
1420.26	291.667
1422.81	293.446
1425.37	295.519
1427.93	283.55
1430.49	271.263
1433.05	275.365
1435.61	275.4
1438.17	268.546
1440.72	260.292
1443.28	265.776
1445.84	268.337
1448.4	264.066
1450.96	258.891
1453.52	260.106
1456.08	263.449
1458.64	257.995
1461.19	249.974
1463.75	255.997
1466.31	264.149
1468.87	259.27
1471.43	249.841
1473.99	254.712
1476.55	251.121
1479.1	255.185
1481.66	253.175
1484.22	247.478
1486.78	250.461
1489.34	255.912
1491.9	250.56
1494.46	246.115
1497.01	251.452
1499.57	255.721
1502.13	254.359
1504.69	247.682
1507.25	250.073
1509.81	240.683
1512.37	245.835
1514.93	252.987
1517.48	244.975
1520.04	257.719
1522.6	260.479
1525.16	255.414
1527.72	259.752
1530.28	261.346
1532.84	256.607
1535.39	262.955
1537.95	270.701
1540.51	272.941
1543.07	277.853
1545.63	279.012
1548.19	282.497
1550.75	282.752
1553.3	296.18
1555.86	292.602
1558.42	300.645
1560.98	328.668
1563.54	318.43
1566.1	339.145
1568.66	348.273
1571.22	354.757
1573.77	359.367
1576.33	371.21
1578.89	378.852
1581.45	384.735
1584.01	393.024
1586.57	407.006
1589.13	419.205
1591.68	425.269
1594.24	431.046
1596.8	423.902
1599.36	424.94
1601.92	422.716
1604.48	396.294
1607.04	403.454
1609.59	401.113
1612.15	395.017
1614.71	379.907
1617.27	372.843
1619.83	353.165
1622.39	327.196
1624.95	319.972
1627.51	296.181
1630.06	278.646
1632.62	272.763
1635.18	258.206
1637.74	239.543
1640.3	228.537
1642.86	216.856
1645.42	201.146
1647.97	189.703
1650.53	182.741
1653.09	178.079
1655.65	163.471
1658.21	157.796
1660.77	150.825
1663.33	150.511
1665.88	144.706
1668.44	133.782
1671	127.064
1673.56	124.586
1676.12	124.577
1678.68	119.877
1681.24	120.769
1683.8	115.687
1686.35	114
1688.91	116.066
1691.47	108.276
1694.03	102.618
1696.59	99.1185
1699.15	94.1955
1701.71	94.414
1704.26	94.3884
1706.82	94.0676
1709.38	94.6014
1711.94	89.5692
1714.5	86.2074
1717.06	83.2301
1719.62	86.0946
1722.17	78.1466
1724.73	81.1167
1727.29	77.0436
1729.85	80.8391
1732.41	82.4613
1734.97	80.5778
1737.53	73.2262
1740.09	74.3878
1742.64	75.7414
1745.2	65.4203
1747.76	68.541
1750.32	65.1947
1752.88	67.4367
1755.44	69.1257
1758	70.0193
1760.55	72.2846
1763.11	74.7174
1765.67	72.5157
1768.23	68.9629
1770.79	64.9044
1773.35	69.0964
1775.91	69.3263
1778.46	68.13
1781.02	70.6467
1783.58	69.7304
1786.14	68.6259
1788.7	67.4227
1791.26	66.5546
1793.82	67.1889
1796.38	65.6542
1798.93	68.516
1801.49	66.4
1804.05	64.314
1806.61	59.6779
1809.17	61.2905
1811.73	60.8865
1814.29	57.1797
1816.84	61.442
1819.4	61.787
1821.96	58.4087
1824.52	65.9158
1827.08	60.5421
1829.64	63.968
1832.2	60.5651
1834.75	59.7815
1837.31	59.0018
1839.87	59.5898
1842.43	60.5634
1844.99	58.5229
1847.55	60.8053
1850.11	52.6612
1852.67	63.1659
1855.22	59.5549
1857.78	55.0487
1860.34	58.4087
1862.9	63.2895
1865.46	63.7191
1868.02	58.4189
1870.58	58.8447
1873.13	55.6345
1875.69	58.5301
1878.25	56.6763
1880.81	58.2303
1883.37	58.5682
1885.93	58.7431
1888.49	56.606
1891.04	56.182
1893.6	56.983
1896.16	57.8253
1898.72	56.4838
1901.28	57.9217
1903.84	57.482
1906.4	58.6533
1908.96	60.6
1911.51	57.05
1914.07	59.0966
1916.63	57.7557
1919.19	51.3251
1921.75	53.3936
1924.31	57.7071
1926.87	57.3126
1929.42	56
1931.98	59.0602
1934.54	61.3661
1937.1	58.4442
1939.66	58.3086
1942.22	58.5433
1944.78	55.0311
1947.33	55.8837
1949.89	58.2578
1952.45	58.9813
1955.01	59.6838
1957.57	56.674
1960.13	51.6015
1962.69	50.0485
1965.25	56.1008
1967.8	60.4696
1970.36	59.3124
1972.92	53.8251
1975.48	50.615
1978.04	52.3303
1980.6	53.7998
1983.16	57.3947
1985.71	59.8825
1988.27	53.8813
1990.83	52.1081
1993.39	58.9347
1995.95	56.972
1998.51	55.0563
2001.07	55.2908
2003.62	54.127
2006.18	54.4048
2008.74	58.8336
2011.3	59.0203
2013.86	57.1881
2016.42	55.0328
2018.98	57.6012
2021.54	55.1735
2024.09	57.8926
2026.65	61.6439
2029.21	53.7078
2031.77	51.9169
2034.33	56.8353
2036.89	57.1587
2039.45	60.3178
2042	57.5959
2044.56	53.9691
2047.12	58.6724
2049.68	60.5662
2052.24	54.5731
2054.8	53.8621
2057.36	60.5522
2059.91	58.3527
2062.47	51.1794
2065.03	50.6944
2067.59	54.3219
2070.15	57.3879
2072.71	58.7076
2075.27	54.9992
2077.83	50.5748
2080.38	48.875
2082.94	52.1195
2085.5	55.4847
2088.06	57.2706
2090.62	56.3176
2093.18	51.9637
2095.74	53.7007
2098.29	55.2062
2100.85	55.9579
2103.41	57.0537
2105.97	62.2395
2108.53	59.7707
2111.09	55.8493
2113.65	59.1126
2116.2	60.7687
2118.76	56.0521
2121.32	55.3341
2123.88	57.3015
2126.44	57.0762
2129	66.793
2131.56	58.7308
2134.12	58.8246
2136.67	57.7592
2139.23	59.4138
2141.79	55.847
2144.35	51.7154
2146.91	57.0254
2149.47	54.4788
2152.03	65.1774
2154.58	60.7534
2157.14	58.4669
2159.7	57.4317
2162.26	58.8502
2164.82	59.449
2167.38	56.1031
2169.94	57.9775
2172.49	60.8813
2175.05	62.8024
2177.61	60.0463
2180.17	58.8948
2182.73	56.4972
2185.29	59.1414
2187.85	60.3264
2190.41	59.06
2192.96	60.0569
2195.52	61.5312
2198.08	61.5699
2200.64	62.566
2203.2	57.3003
2205.76	59.0398
2208.32	67.0673
2210.87	67.4181
2213.43	61.5228
2215.99	63.3942
2218.55	62.184
2221.11	64.1433
2223.67	61.914
2226.23	62.153
2228.78	62.7191
2231.34	61.5598
2233.9	59.9689
2236.46	63.3324
2239.02	62.3073
2241.58	60.9132
2244.14	59.2881
2246.7	57.1377
2249.25	66.9125
2251.81	61.6501
2254.37	65.9258
2256.93	67.0987
2259.49	66.7556
2262.05	61.9473
2264.61	67.441
2267.16	64.4752
2269.72	63.9029
2272.28	60.31
2274.84	66.9887
2277.4	66.6792
2279.96	65.4986
2282.52	67.0578
2285.07	68.3044
2287.63	70.9745
2290.19	72.4716
2292.75	68.2863
2295.31	69.2678
2297.87	66.4349
2300.43	68.2895
2302.99	72.4153
2305.54	65.8778
2308.1	66.8691
2310.66	67.6952
2313.22	67.792
2315.78	69.5653
2318.34	73.8966
2320.9	71.5737
2323.45	69.92
2326.01	75.5748
2328.57	74.3294
2331.13	74.7555
2333.69	77.0968
2336.25	79.1874
2338.81	80.2091
2341.36	72.6413
2343.92	71.8121
2346.48	76.8043
2349.04	76.6385
2351.6	74.5201
2354.16	70.5454
2356.72	69.499
2359.28	71.0196
2361.83	70.9279
2364.39	71.2137
2366.95	72.1971
2369.51	74.0107
2372.07	78.8623
2374.63	75.3755
2377.19	73.1685
2379.74	82.2247
2382.3	76.4906
2384.86	78.926
2387.42	76.9241
2389.98	79.1304
2392.54	77.6091
2395.1	76.3126
2397.65	77.588
2400.21	77.2904
2402.77	80.5128
2405.33	80.7602
2407.89	78.752
2410.45	79.7792
2413.01	82.1151
2415.56	85.1774
2418.12	86.0217
2420.68	87.7334
2423.24	83.0514
2425.8	87.8041
2428.36	86.2256
2430.92	89.3132
2433.48	92.1517
2436.03	95.4302
2438.59	100.23
2441.15	103.935
2443.71	103.498
2446.27	102.487
2448.83	104.211
2451.39	102.665
2453.94	98.6975
2456.5	98.6796
2459.06	94.5031
2461.62	93.3262
2464.18	93.3802
2466.74	94.62
2469.3	88.1746
2471.85	92.4764
2474.41	92.3657
2476.97	90.9792
2479.53	89.9657
2482.09	91.4734
2484.65	91.691
2487.21	93.1407
2489.77	94.2901
2492.32	97.0141
2494.88	98.4612
2497.44	97.9614
2500	99.36
2502.56	99.3047
2505.12	95.9451
2507.68	96.9572
2510.23	94.8743
2512.79	99.8493
2515.35	99.3926
2517.91	96.9483
2520.47	99.9362
2523.03	93.5417
2525.59	101.184
2528.15	101.177
2530.7	101.918
2533.26	99.9566
2535.82	106.71
2538.38	103.908
2540.94	104.626
2543.5	104.189
2546.06	102.406
2548.61	101.513
2551.17	101.2
2553.73	106.171
2556.29	106.262
2558.85	105.611
2561.41	105.512
2563.97	104.471
2566.52	104.536
2569.08	109.976
2571.64	107.297
2574.2	107.684
2576.76	107.054
2579.32	106.221
2581.88	111.628
2584.44	111.13
2586.99	109.008
2589.55	112.352
2592.11	109.523
2594.67	106.924
2597.23	109.755
2599.79	115.611
2602.35	110.167
2604.9	104.799
2607.46	111.631
2610.02	107.559
2612.58	111.03
2615.14	116.002
2617.7	117.095
2620.26	110.164
2622.81	109.992
2625.37	109.398
2627.93	113.69
2630.49	109.565
2633.05	117.226
2635.61	118.16
2638.17	116.087
2640.72	114.286
2643.28	119.492
2645.84	124.216
2648.4	120.8
2650.96	123.33
2653.52	122.778
2656.08	120.929
2658.64	126.808
2661.19	117.505
2663.75	122.767
2666.31	130.93
2668.87	126.35
2671.43	121.465
2673.99	121.932
2676.55	119.087
2679.1	120.492
2681.66	120.643
2684.22	124.266
2686.78	133.284
2689.34	126.823
2691.9	121.307
2694.46	131.256
2697.01	122.533
2699.57	124.023
2702.13	132.494
2704.69	134.288
2707.25	130.11
2709.81	128.043
2712.37	134.014
2714.93	129.576
2717.48	137.528
2720.04	129.486
2722.6	128.053
2725.16	130.941
2727.72	132.319
2730.28	128.84
2732.84	130.596
2735.39	130.229
2737.95	131.608
2740.51	134.224
2743.07	133.259
2745.63	133.586
2748.19	133.65
2750.75	133.308
2753.3	127.197
2755.86	127.359
2758.42	133.448
2760.98	137.188
2763.54	130.938
2766.1	128.864
2768.66	134.181
2771.22	137.026
2773.77	135.405
2776.33	137.341
2778.89	136.97
2781.45	132.211
2784.01	140.203
2786.57	137.214
2789.13	136.472
2791.68	134.112
2794.24	139.366
2796.8	136.617
2799.36	138.142
2801.92	123.757
2804.48	138.299
2807.04	131.197
2809.59	136.908
2812.15	131.183
2814.71	141.327
2817.27	144.078
2819.83	140.172
2822.39	138.256
2824.95	140.831
2827.51	138.018
2830.06	145.387
2832.62	138.269
2835.18	132.453
2837.74	133.973
2840.3	140.639
2842.86	142.662
2845.42	137.329
2847.97	133.668
2850.53	130.206
2853.09	142.552
2855.65	138.64
2858.21	137.562
2860.77	133.549
2863.33	140.274
2865.88	137.444
2868.44	143.63
2871	146.42
2873.56	146.995
2876.12	143.961
2878.68	140.139
2881.24	141.07
2883.8	145.614
2886.35	152.972
2888.91	152.534
2891.47	143.841
2894.03	140.002
2896.59	148.181
2899.15	156.834
2901.71	149.25
2904.26	148.549
2906.82	147.931
2909.38	138.747
2911.94	147.708
2914.5	155.475
2917.06	158.958
2919.62	147.967
2922.17	148.354
2924.73	149.388
2927.29	152.746
2929.85	150.461
2932.41	154.709
2934.97	143.539
2937.53	153.656
2940.09	149.133
2942.64	136.458
2945.2	147.645
2947.76	141.722
2950.32	147.964
2952.88	157.752
2955.44	145.174
2958	146.775
2960.55	145.082
2963.11	154.257
2965.67	159.597
2968.23	154.662
2970.79	150.225
2973.35	147.921
2975.91	150.699
2978.46	147.098
2981.02	149.681
2983.58	138.229
2986.14	142.271
2988.7	141.502
2991.26	147.261
2993.82	149.374
2996.38	152.186
2998.93	140.497
3001.49	143.848
3004.05	142.69
3006.61	144.132
3009.17	138.958
3011.73	149.564
3014.29	141.678
3016.84	128.639
3019.4	132.306
3021.96	138.905
3024.52	134.849
3027.08	135.051
3029.64	137.368
3032.2	136.087
3034.75	132.919
3037.31	138.392
3039.87	138.486
3042.43	128.24
3044.99	134.751
3047.55	130.746
3050.11	133.602
3052.67	136.445
3055.22	126.313
3057.78	134.995
3060.34	134.79
3062.9	137.948
3065.46	138.305
3068.02	138.063
3070.58	145.026
3073.13	137.146
3075.69	137.436
3078.25	140.91
3080.81	128.045
3083.37	131.227
3085.93	131.141
3088.49	131.497
3091.04	129.333
3093.6	138.556
3096.16	134.276
3098.72	141.526
3101.28	135.825
3103.84	137.116
3106.4	137.266
3108.96	142.714
3111.51	125.14
3114.07	132.572
3116.63	135.484
3119.19	138.711
3121.75	134.661
3124.31	123.344
3126.87	135.839
3129.42	136.222
3131.98	128.804
3134.54	129.301
3137.1	134.146
3139.66	125.8
3142.22	140.505
3144.78	137.251
3147.33	133.007
3149.89	135.122
3152.45	130.469
3155.01	130.671
3157.57	134.375
3160.13	126.004
3162.69	138.232
3165.25	138.599
3167.8	134.922
3170.36	137.166
3172.92	133.826
3175.48	134.01
3178.04	136.651
3180.6	138.234
3183.16	138.621
3185.71	136.886
3188.27	134.694
3190.83	148.368
3193.39	132.973
3195.95	136.83
3198.51	133.215
3201.07	136.537
3203.62	141.503
3206.18	134.623
3208.74	136.678
3211.3	128.922
3213.86	133.507
3216.42	139.825
3218.98	131.112
3221.54	127.645
3224.09	130.918
3226.65	136.641
3229.21	131.977
3231.77	134.678
3234.33	142.554
3236.89	136.551
3239.45	135.844
3242	134.801
3244.56	134.024
3247.12	138.652
3249.68	130.141
3252.24	118.206
3254.8	127.535
3257.36	141.282
3259.91	130.584
3262.47	127.729
3265.03	123.093
3267.59	127.348
3270.15	129.522
3272.71	134.257
3275.27	131.044
3277.83	129.998
3280.38	122.45
3282.94	132.384
3285.5	126.064
3288.06	127.895
3290.62	130.315
3293.18	123.578
3295.74	122.793
3298.29	128.584
3300.85	121.815
3303.41	130.534
3305.97	132.598
3308.53	128.866
3311.09	130.479
3313.65	133.619
3316.2	131.179
3318.76	119.248
3321.32	124.377
3323.88	127.794
3326.44	130.957
3329	131.106
3331.56	130.57
3334.12	134.472
3336.67	120.075
3339.23	122.833
3341.79	130.09
3344.35	129.988
3346.91	120.668
3349.47	126.324
3352.03	128.699
3354.58	124.567
3357.14	121.114
3359.7	121.618
3362.26	134.74
3364.82	116.651
3367.38	128.823
3369.94	121.308
3372.49	128.24
3375.05	132.364
3377.61	132.402
3380.17	124.929
3382.73	127.292
3385.29	130.119
3387.85	135.476
3390.41	129.839
3392.96	129.387
3395.52	130.121
3398.08	130.579
3400.64	131.309
3403.2	129.254
3405.76	133.585
3408.32	131.598
3410.87	128.874
3413.43	128.484
3415.99	139.415
3418.55	133.745
3421.11	132.019
3423.67	137.275
3426.23	137.186
3428.78	137.578
3431.34	132.928
3433.9	132.15
3436.46	134.454
3439.02	136.369
3441.58	126.823
3444.14	137.16
3446.7	129.952
3449.25	133.979
3451.81	138.827
3454.37	124.409
3456.93	135.371
3459.49	144.622
3462.05	139.152
3464.61	135.15
3467.16	137.372
3469.72	139.086
3472.28	133.189
3474.84	136.609
3477.4	142.436
3479.96	141.808
3482.52	137.339
3485.07	138.804
3487.63	138.682
3490.19	139.49
3492.75	137.263
3495.31	139.942
3497.87	144.245
3500.43	134.817
3502.99	132.795
3505.54	140.043
3508.1	137.737
3510.66	137.875
3513.22	134.812
3515.78	138.86
3518.34	137.792
3520.9	138.047
3523.45	145.308
3526.01	145.812
3528.57	150.931
3531.13	142.448
3533.69	138.046
3536.25	139.731
3538.81	143.223
3541.36	149.15
3543.92	139.838
3546.48	137.272
3549.04	143.488
3551.6	139.073
3554.16	141.469
3556.72	148.622
3559.28	155.598
3561.83	149.37
3564.39	155.009
3566.95	154.863
3569.51	145.294
3572.07	134.393
3574.63	142.684
3577.19	152.871
3579.74	149.825
3582.3	143.913
3584.86	144.326
3587.42	150.516
3589.98	149.395
3592.54	148.433
3595.1	149.393
3597.65	155.399
3600.21	144.528
3602.77	147.799
3605.33	143.81
3607.89	150.617
3610.45	146.384
3613.01	157.495
3615.56	157.065
3618.12	154.757
3620.68	142.978
3623.24	148.446
3625.8	143.763
3628.36	150.801
3630.92	153.506
3633.48	147.587
3636.03	154.892
3638.59	161.016
3641.15	154.804
3643.71	154.147
3646.27	157.808
3648.83	157.797
3651.39	161.894
3653.94	158.266
3656.5	152.435
3659.06	154.393
3661.62	153.443
3664.18	157.664
3666.74	158.314
3669.3	163.46
3671.85	158.134
3674.41	153.652
3676.97	157.582
3679.53	167.207
3682.09	154.756
3684.65	162.87
3687.21	160.396
3689.77	151.461
3692.32	166.232
3694.88	163.649
3697.44	156.503
3700	157.421