File: Example Data/Raman/Kara/12-20-10/C-Si-Graphene/1 bulk/CSGbulk1_3.txt
100	148.561
102.559	151.884
105.117	149.085
107.676	156.764
110.235	164.915
112.793	178.6
115.352	186.166
117.91	188.197
120.469	195.105
123.028	212.71
125.586	221.716
128.145	220.814
130.704	218.311
133.262	229.634
135.821	231.237
138.38	233.461
140.938	236.797
143.497	236.659
146.055	225.869
148.614	227.955
151.173	224.481
153.731	226.812
156.29	234.991
158.849	241.071
161.407	223.06
163.966	209.08
166.525	211.016
169.083	215.613
171.642	202.225
174.2	199.972
176.759	204.576
179.318	204.038
181.876	197.574
184.435	189.754
186.994	192.979
189.552	178.402
192.111	174.74
194.67	178.657
197.228	181.788
199.787	184.37
202.345	180.039
204.904	174.272
207.463	175.081
210.021	181.823
212.58	175.84
215.139	181.961
217.697	175.967
220.256	172.054
222.814	175.859
225.373	180.956
227.932	190.992
230.49	189.156
233.049	190.337
235.608	198.235
238.166	208.476
240.725	209.449
243.284	202.746
245.842	212.217
248.401	221.857
250.959	214.896
253.518	215.545
256.077	217.236
258.635	215.018
261.194	218.557
263.753	231.057
266.311	242.928
268.87	228.447
271.429	234.463
273.987	244.13
276.546	251.707
279.104	259.564
281.663	264.125
284.222	256.469
286.78	258.3
289.339	267.104
291.898	275.659
294.456	283.005
297.015	291.12
299.574	293.87
302.132	285.06
304.691	271.91
307.249	272.885
309.808	270.434
312.367	267.04
314.925	260.304
317.484	255.355
320.043	255.21
322.601	246.204
325.16	245.295
327.719	241.938
330.277	239.038
332.836	237.891
335.394	236.452
337.953	229.404
340.512	232.553
343.07	228.596
345.629	224.332
348.188	226.811
350.746	219.918
353.305	223.674
355.864	218.264
358.422	215.622
360.981	215.018
363.539	206.741
366.098	208.387
368.657	207.454
371.215	205.815
373.774	209.428
376.333	213.53
378.891	195.702
381.45	205.425
384.009	202.015
386.567	198.719
389.126	194.839
391.684	189.745
394.243	205.916
396.802	200.87
399.36	199.2
401.919	202.048
404.478	206.057
407.036	206.181
409.595	200.066
412.154	202.789
414.712	204.564
417.271	202.497
419.829	203.107
422.388	219.191
424.947	219.025
427.505	210.995
430.064	211.738
432.623	214.826
435.181	214.364
437.74	216.724
440.298	213.075
442.857	216.726
445.416	216.879
447.974	214.53
450.533	216.361
453.092	230.144
455.65	233.18
458.209	238.675
460.768	244.531
463.326	253.719
465.885	265.953
468.444	266.785
471.002	278.245
473.561	307.313
476.119	322.083
478.678	335.098
481.237	363.835
483.795	373.005
486.354	425.729
488.913	444.487
491.471	482.959
494.03	528.345
496.589	559.717
499.147	633.538
501.706	690.257
504.264	795.701
506.823	926.307
509.382	1072.12
511.94	1208.87
514.499	1265.99
517.058	1140.98
519.616	990.04
522.175	820.542
524.733	648.152
527.292	496.211
529.851	391.698
532.409	304.531
534.968	256.679
537.527	211.34
540.085	174.817
542.644	157.587
545.203	153.896
547.761	132.235
550.32	108.36
552.878	108.36
555.437	120.194
557.996	119.312
560.554	108.36
563.113	109.749
565.672	112.71
568.23	110.434
570.789	106.726
573.348	105.291
575.906	106.609
578.465	107.789
581.023	108.36
583.582	108.36
586.141	108.36
588.699	105.106
591.258	102.367
593.817	99.5431
596.375	105.117
598.934	106.096
601.493	106.551
604.051	106.024
606.61	108.147
609.168	115.792
611.727	111.564
614.286	117.419
616.844	113.788
619.403	108.974
621.962	107.365
624.52	106.88
627.079	101.1
629.638	106.525
632.196	112.101
634.755	108.487
637.313	104.186
639.872	105.295
642.431	108.831
644.989	101.528
647.548	101.734
650.107	103.303
652.665	101.867
655.224	103.833
657.783	110.514
660.341	111.762
662.9	107.338
665.458	105.742
668.017	106.037
670.576	100.828
673.134	95.4087
675.693	94.3516
678.252	86.7164
680.81	88.9328
683.369	98.1998
685.927	93.7234
688.486	92.9054
691.045	95.2614
693.603	90.1224
696.162	92.6832
698.721	86.8709
701.279	87.7434
703.838	87.354
706.397	89.3903
708.955	88.9801
711.514	79.406
714.073	80.6327
716.631	90.9032
719.19	87.5937
721.748	89.1447
724.307	89.3158
726.866	84.6875
729.424	81.9714
731.983	85.4012
734.542	91.923
737.1	90.2785
739.659	90.2343
742.217	87.5344
744.776	83.6422
747.335	86.4705
749.893	93.7297
752.452	104.041
755.011	96.6931
757.569	99.1859
760.128	103.02
762.687	99.7512
765.245	94.1016
767.804	99.1261
770.362	92.0613
772.921	88.4775
775.48	91.9268
778.038	96.3294
780.597	99.0916
783.156	101.047
785.714	101.835
788.273	99.7634
790.832	93.7139
793.39	92.991
795.949	94.2371
798.507	92.7531
801.066	90.1571
803.625	94.0725
806.183	102.03
808.742	103.047
811.301	102.203
813.859	105.037
816.418	111.661
818.977	114.085
821.535	105.058
824.094	93.4335
826.652	98.1181
829.211	104.513
831.77	105.684
834.328	108.584
836.887	108.164
839.446	103.65
842.004	106.658
844.563	105.615
847.122	108.17
849.68	108.745
852.239	112.016
854.797	113.921
857.356	113.264
859.915	112.023
862.473	110.061
865.032	113.023
867.591	113.2
870.149	114.719
872.708	115.4
875.267	112.62
877.825	112.8
880.384	121.221
882.942	120.473
885.501	121.695
888.06	122.917
890.618	123.872
893.177	126.82
895.736	129.336
898.294	131.152
900.853	134.366
903.411	134.749
905.97	145.777
908.529	136.633
911.087	145.257
913.646	151.564
916.205	152.707
918.763	158
921.322	166.941
923.881	157.969
926.439	154.11
928.998	154.123
931.557	160.227
934.115	162.325
936.674	162.153
939.232	161.705
941.791	158.766
944.35	154.678
946.908	155.557
949.467	151.919
952.026	161.953
954.584	153.9
957.143	148.273
959.701	150.985
962.26	148.973
964.819	144.064
967.377	145.996
969.936	143.703
972.495	139.42
975.053	131.073
977.612	129.215
980.171	128.108
982.729	123.407
985.288	120.492
987.846	113.841
990.405	117.198
992.964	111.415
995.522	108.339
998.081	102.197
1000.64	97.3384
1003.2	98.5202
1005.76	102.8
1008.32	101.834
1010.87	96.0718
1013.43	98.3765
1015.99	95.5572
1018.55	95.7627
1021.11	95.9701
1023.67	94.8754
1026.23	94.29
1028.78	94.7717
1031.34	94.3333
1033.9	100.657
1036.46	91.9479
1039.02	99.398
1041.58	90.9687
1044.14	91.0246
1046.7	94.0628
1049.25	93.4104
1051.81	93.9928
1054.37	94.4948
1056.93	93.8355
1059.49	95.2612
1062.05	93.3069
1064.61	98.0953
1067.16	99.9292
1069.72	99.5038
1072.28	97.1585
1074.84	93.8258
1077.4	94.2366
1079.96	91.0428
1082.52	105.336
1085.07	105.36
1087.63	99.0347
1090.19	98.6848
1092.75	95.5113
1095.31	96.1975
1097.87	101.41
1100.43	99.2175
1102.99	100.402
1105.54	97.0016
1108.1	101.484
1110.66	103.905
1113.22	110.75
1115.78	110.311
1118.34	103.733
1120.9	102.185
1123.45	108.515
1126.01	112.65
1128.57	114.047
1131.13	116.923
1133.69	113.675
1136.25	115.368
1138.81	118.696
1141.36	120.574
1143.92	127.069
1146.48	131.028
1149.04	125.464
1151.6	122.789
1154.16	122.45
1156.72	130.022
1159.28	126.854
1161.83	137.512
1164.39	133.889
1166.95	132.797
1169.51	137.829
1172.07	139.946
1174.63	140.431
1177.19	147.199
1179.74	147.021
1182.3	159.128
1184.86	152.074
1187.42	148.127
1189.98	147.111
1192.54	154.924
1195.1	157.782
1197.65	161.752
1200.21	165.263
1202.77	161.59
1205.33	168.801
1207.89	160.36
1210.45	159.816
1213.01	172.148
1215.57	176.011
1218.12	181.485
1220.68	177.292
1223.24	181.956
1225.8	184.944
1228.36	179.867
1230.92	186.43
1233.48	195.53
1236.03	204.114
1238.59	205.751
1241.15	199.967
1243.71	199.041
1246.27	203.378
1248.83	204.953
1251.39	210.625
1253.94	216.153
1256.5	216.034
1259.06	220.278
1261.62	232.718
1264.18	224.626
1266.74	238.581
1269.3	235.657
1271.85	241.069
1274.41	248.786
1276.97	254.05
1279.53	250.977
1282.09	255.288
1284.65	261.893
1287.21	262.854
1289.77	268.272
1292.32	266.6
1294.88	267.347
1297.44	276.697
1300	283.147
1302.56	296.332
1305.12	301.968
1307.68	302.076
1310.23	305.417
1312.79	304.423
1315.35	306.504
1317.91	315.737
1320.47	319.534
1323.03	326.524
1325.59	333.213
1328.15	337.246
1330.7	340.192
1333.26	332.358
1335.82	346.845
1338.38	348.188
1340.94	349.652
1343.5	353.785
1346.06	357.658
1348.61	361.812
1351.17	362.587
1353.73	358.874
1356.29	364.213
1358.85	362.754
1361.41	357.629
1363.97	365.208
1366.52	357.788
1369.08	356.867
1371.64	355.172
1374.2	355.405
1376.76	351.348
1379.32	348.847
1381.88	337.05
1384.43	322.455
1386.99	333.098
1389.55	333.74
1392.11	318.532
1394.67	304.185
1397.23	308.267
1399.79	297.267
1402.35	297.157
1404.9	305.71
1407.46	294.705
1410.02	283.978
1412.58	283.158
1415.14	284.99
1417.7	281.078
1420.26	270.38
1422.81	259.288
1425.37	255.772
1427.93	260.482
1430.49	243.759
1433.05	249.352
1435.61	265.488
1438.17	247.436
1440.72	252.73
1443.28	245.166
1445.84	241.531
1448.4	234.631
1450.96	234.208
1453.52	238.292
1456.08	234.855
1458.64	227.558
1461.19	224.751
1463.75	229.078
1466.31	234.228
1468.87	225.317
1471.43	239.795
1473.99	239.233
1476.55	227.035
1479.1	234.57
1481.66	234.936
1484.22	229.122
1486.78	233.38
1489.34	236.172
1491.9	228.976
1494.46	226.662
1497.01	238.233
1499.57	243.426
1502.13	231.946
1504.69	231.051
1507.25	227.783
1509.81	225.239
1512.37	223.674
1514.93	225.933
1517.48	226.914
1520.04	228.369
1522.6	233.069
1525.16	227.236
1527.72	228.218
1530.28	239.954
1532.84	241.208
1535.39	246.955
1537.95	252.228
1540.51	249.851
1543.07	253.086
1545.63	254.175
1548.19	255.313
1550.75	259.616
1553.3	270.149
1555.86	280.886
1558.42	284.365
1560.98	282.85
1563.54	296.533
1566.1	302.287
1568.66	303.648
1571.22	315.478
1573.77	319.765
1576.33	343.054
1578.89	346.628
1581.45	347.968
1584.01	361.341
1586.57	369.271
1589.13	367.991
1591.68	368.776
1594.24	377.754
1596.8	380.681
1599.36	375.647
1601.92	402.878
1604.48	388.656
1607.04	374.778
1609.59	380.567
1612.15	378.282
1614.71	374.155
1617.27	345.014
1619.83	332.869
1622.39	326.674
1624.95	311.596
1627.51	286.074
1630.06	260.575
1632.62	254.596
1635.18	245.18
1637.74	229.881
1640.3	219.059
1642.86	204.357
1645.42	186.159
1647.97	177.004
1650.53	177.448
1653.09	171.025
1655.65	155.236
1658.21	156.728
1660.77	147.898
1663.33	144.198
1665.88	141.437
1668.44	129.029
1671	139.584
1673.56	131.88
1676.12	118.309
1678.68	121.323
1681.24	116.571
1683.8	115.353
1686.35	109.874
1688.91	105.045
1691.47	103.93
1694.03	98.4789
1696.59	97.0747
1699.15	96.1191
1701.71	92.3914
1704.26	88.8413
1706.82	90.3003
1709.38	91.4124
1711.94	88.7589
1714.5	92.7148
1717.06	88.6214
1719.62	86.2327
1722.17	85.1641
1724.73	89.7564
1727.29	82.079
1729.85	79.1522
1732.41	78.4359
1734.97	74.8381
1737.53	78.9913
1740.09	78.6041
1742.64	73.2343
1745.2	73.5561
1747.76	75.5705
1750.32	71.1298
1752.88	77.2414
1755.44	80.5298
1758	69.0782
1760.55	70.8114
1763.11	75.8918
1765.67	78.8482
1768.23	72.6256
1770.79	71.0144
1773.35	75.6897
1775.91	76.1631
1778.46	72.1772
1781.02	70.935
1783.58	72.5884
1786.14	72.6539
1788.7	68.8064
1791.26	65.663
1793.82	71.4222
1796.38	74.4188
1798.93	65.9935
1801.49	66.0791
1804.05	67.6523
1806.61	67.7027
1809.17	69.8127
1811.73	68.2497
1814.29	66.0987
1816.84	62.7111
1819.4	63.4773
1821.96	59.9658
1824.52	63.8855
1827.08	64.7881
1829.64	67.032
1832.2	69.9983
1834.75	61.2324
1837.31	62.5906
1839.87	59.4542
1842.43	65.1805
1844.99	62.9452
1847.55	69.646
1850.11	68.9311
1852.67	61.1635
1855.22	62.8096
1857.78	60.9833
1860.34	58.7627
1862.9	64.4525
1865.46	66.2809
1868.02	62.789
1870.58	60.4165
1873.13	60.3012
1875.69	62.17
1878.25	64.9676
1880.81	60.1394
1883.37	65.0092
1885.93	66.2993
1888.49	65.932
1891.04	63.8539
1893.6	64.5148
1896.16	64.3494
1898.72	61.3935
1901.28	59.7598
1903.84	57.482
1906.4	57.1536
1908.96	61.7329
1911.51	65.7094
1914.07	64.4237
1916.63	66.016
1919.19	63.3474
1921.75	59.5347
1924.31	58.1796
1926.87	61.9379
1929.42	64.5066
1931.98	63.747
1934.54	67.776
1937.1	65.7049
1939.66	61.5276
1942.22	59.6423
1944.78	64.6611
1947.33	67.9535
1949.89	67.1348
1952.45	68.1812
1955.01	62.4833
1957.57	63.9973
1960.13	66.4872
1962.69	63.1045
1965.25	59.2242
1967.8	63.135
1970.36	62.4983
1972.92	60.0145
1975.48	59.8491
1978.04	62.7135
1980.6	69.1836
1983.16	68.3845
1985.71	64.6778
1988.27	62.5637
1990.83	61.4266
1993.39	60.3631
1995.95	61.4586
1998.51	64.3957
2001.07	68.3977
2003.62	64.4404
2006.18	64.0131
2008.74	62.2157
2011.3	60.4909
2013.86	63.1124
2016.42	64.5336
2018.98	67.757
2021.54	67.9969
2024.09	67.7326
2026.65	65.5074
2029.21	64.1149
2031.77	62.5011
2034.33	64.4196
2036.89	63.7899
2039.45	65.1573
2042	65.6852
2044.56	62.9579
2047.12	64.9019
2049.68	66.3713
2052.24	67.3414
2054.8	69.4165
2057.36	66.2374
2059.91	62.2296
2062.47	65.9585
2065.03	63.8824
2067.59	63.5008
2070.15	63.3389
2072.71	62.9622
2075.27	62.4979
2077.83	63.7258
2080.38	65.7343
2082.94	63.2579
2085.5	63.0917
2088.06	65.4746
2090.62	63.1599
2093.18	61.476
2095.74	60.1325
2098.29	60.7963
2100.85	65.6895
2103.41	62.5414
2105.97	63.3859
2108.53	61.1305
2111.09	64.1918
2113.65	69.4338
2116.2	62.9497
2118.76	62.02
2121.32	66.6037
2123.88	66.4823
2126.44	67.6556
2129	68.96
2131.56	68.0564
2134.12	67.1507
2136.67	65.5838
2139.23	65.8988
2141.79	66.6385
2144.35	67.86
2146.91	63.417
2149.47	73.5463
2152.03	73.4576
2154.58	66.2737
2157.14	63.9828
2159.7	69.2088
2162.26	58.1713
2164.82	65.905
2167.38	66.1798
2169.94	64.6255
2172.49	63.2073
2175.05	70.3353
2177.61	72.7401
2180.17	69.5276
2182.73	68.7142
2185.29	66.3762
2187.85	71.1473
2190.41	68.2213
2192.96	68.9062
2195.52	69.1578
2198.08	70.5649
2200.64	69.2209
2203.2	66.768
2205.76	68.1048
2208.32	68.8624
2210.87	70.7766
2213.43	67.9936
2215.99	71.2087
2218.55	72.3927
2221.11	75.8366
2223.67	75.8517
2226.23	70.3355
2228.78	73.0365
2231.34	71.4175
2233.9	69.6464
2236.46	66.8963
2239.02	68.8731
2241.58	75.0603
2244.14	72.0917
2246.7	81.9768
2249.25	69.3968
2251.81	70.3432
2254.37	75.7301
2256.93	75.6588
2259.49	71.7355
2262.05	71.5618
2264.61	74.9061
2267.16	72.8685
2269.72	71.5483
2272.28	74.3491
2274.84	76.9108
2277.4	77.643
2279.96	75.2407
2282.52	74.6213
2285.07	73.41
2287.63	73.0493
2290.19	75.3086
2292.75	77.3021
2295.31	78.9236
2297.87	79.5308
2300.43	81.9188
2302.99	79.0218
2305.54	83.3655
2308.1	78.1422
2310.66	84.9203
2313.22	79.0315
2315.78	78.5609
2318.34	81.5277
2320.9	85.3118
2323.45	85.7802
2326.01	82.4405
2328.57	86.0268
2331.13	86.0661
2333.69	87.4258
2336.25	89.2746
2338.81	88.1634
2341.36	80.9443
2343.92	80.7735
2346.48	82.0705
2349.04	82.7786
2351.6	83.1155
2354.16	80.4585
2356.72	81.4768
2359.28	81.7636
2361.83	87.8216
2364.39	83.3006
2366.95	84.202
2369.51	84.2128
2372.07	81.7873
2374.63	82.1032
2377.19	82.799
2379.74	86.8217
2382.3	86.2072
2384.86	88.2968
2387.42	88.3305
2389.98	86.4442
2392.54	84.0613
2395.1	88.8898
2397.65	90.9966
2400.21	91.798
2402.77	95.7321
2405.33	91.3327
2407.89	91.1999
2410.45	91.7926
2413.01	93.6415
2415.56	94.3211
2418.12	94.2206
2420.68	92.6644
2423.24	97.4098
2425.8	99.2111
2428.36	99.3458
2430.92	99.6793
2433.48	108.43
2436.03	106.731
2438.59	109.851
2441.15	116.301
2443.71	114.741
2446.27	118.812
2448.83	110.811
2451.39	110.239
2453.94	111.863
2456.5	107.437
2459.06	103.94
2461.62	100.038
2464.18	108.706
2466.74	105.369
2469.3	112.763
2471.85	103.241
2474.41	105.174
2476.97	104.416
2479.53	107.24
2482.09	96.0033
2484.65	103.607
2487.21	104.483
2489.77	101.616
2492.32	97.1247
2494.88	105.877
2497.44	105.341
2500	105.25
2502.56	103.181
2505.12	100.323
2507.68	112.113
2510.23	107.88
2512.79	106.418
2515.35	111.876
2517.91	110.863
2520.47	113.659
2523.03	107.682
2525.59	111.673
2528.15	106.665
2530.7	110.406
2533.26	106.15
2535.82	110.809
2538.38	117.522
2540.94	115.234
2543.5	114.09
2546.06	116
2548.61	113.596
2551.17	113.174
2553.73	115.804
2556.29	109.046
2558.85	112.392
2561.41	111.243
2563.97	119.45
2566.52	116.558
2569.08	115.262
2571.64	115.325
2574.2	115.872
2576.76	110.811
2579.32	117.914
2581.88	121.373
2584.44	122.044
2586.99	117.491
2589.55	121.349
2592.11	119.243
2594.67	120.888
2597.23	120.083
2599.79	114.626
2602.35	128.706
2604.9	126.306
2607.46	121.489
2610.02	121.318
2612.58	122.253
2615.14	125.138
2617.7	126.9
2620.26	128.658
2622.81	125.074
2625.37	128.333
2627.93	128.239
2630.49	125.945
2633.05	127.725
2635.61	131.99
2638.17	126.017
2640.72	132.236
2643.28	133.836
2645.84	134.819
2648.4	132.997
2650.96	129.943
2653.52	128.926
2656.08	125.531
2658.64	127.193
2661.19	133.537
2663.75	133.823
2666.31	133.104
2668.87	131.66
2671.43	136.452
2673.99	142.248
2676.55	142.328
2679.1	137.908
2681.66	137.262
2684.22	139.494
2686.78	132.113
2689.34	136.341
2691.9	138.922
2694.46	147.819
2697.01	135.481
2699.57	144.397
2702.13	137.068
2704.69	136.333
2707.25	137.746
2709.81	141.747
2712.37	142.7
2714.93	140.093
2717.48	138.813
2720.04	139.454
2722.6	140.217
2725.16	150.716
2727.72	144.777
2730.28	145.621
2732.84	141.955
2735.39	140.356
2737.95	139.082
2740.51	137.368
2743.07	146.609
2745.63	150.074
2748.19	146.287
2750.75	141.182
2753.3	140.402
2755.86	144.076
2758.42	140.89
2760.98	142.49
2763.54	145.403
2766.1	145.397
2768.66	138.893
2771.22	142
2773.77	142.098
2776.33	147.407
2778.89	142.619
2781.45	147.375
2784.01	143.694
2786.57	149.492
2789.13	149.173
2791.68	145.644
2794.24	148.163
2796.8	147.515
2799.36	145.684
2801.92	151.476
2804.48	150.232
2807.04	143.574
2809.59	146.185
2812.15	143.666
2814.71	144.009
2817.27	142.036
2819.83	147.759
2822.39	146.614
2824.95	140.964
2827.51	149.539
2830.06	152.172
2832.62	152.023
2835.18	154.127
2837.74	146
2840.3	146.73
2842.86	156.659
2845.42	151.221
2847.97	149.343
2850.53	155.502
2853.09	150.465
2855.65	150.533
2858.21	148.725
2860.77	156.51
2863.33	154.198
2865.88	153.998
2868.44	151.189
2871	153.521
2873.56	146.252
2876.12	160.299
2878.68	154.498
2881.24	158.019
2883.8	165.36
2886.35	161.363
2888.91	162.081
2891.47	149.951
2894.03	161.379
2896.59	155.496
2899.15	163.621
2901.71	169.67
2904.26	161.975
2906.82	158.395
2909.38	163.769
2911.94	163.307
2914.5	155.919
2917.06	153.458
2919.62	168.318
2922.17	164.41
2924.73	160.722
2927.29	162.104
2929.85	167.834
2932.41	169.582
2934.97	172.844
2937.53	163.669
2940.09	168.194
2942.64	170.798
2945.2	162.536
2947.76	162.662
2950.32	164.113
2952.88	162.205
2955.44	169.338
2958	160.507
2960.55	157.745
2963.11	163.028
2965.67	167.017
2968.23	161.991
2970.79	160.508
2973.35	156.158
2975.91	161.481
2978.46	158.726
2981.02	161.484
2983.58	162.726
2986.14	156.617
2988.7	158.941
2991.26	160.35
2993.82	151.653
2996.38	159.67
2998.93	156.488
3001.49	157.542
3004.05	150.536
3006.61	152.487
3009.17	158.279
3011.73	148.164
3014.29	149.448
3016.84	157.355
3019.4	154.773
3021.96	160.63
3024.52	152.032
3027.08	152.117
3029.64	157.269
3032.2	152.097
3034.75	159.14
3037.31	155.976
3039.87	157.55
3042.43	154.63
3044.99	154.918
3047.55	157.098
3050.11	154.031
3052.67	150.632
3055.22	160.845
3057.78	149.112
3060.34	151.757
3062.9	153.083
3065.46	159.743
3068.02	154.307
3070.58	149.019
3073.13	156.161
3075.69	153.601
3078.25	156.484
3080.81	152.958
3083.37	153.382
3085.93	154.456
3088.49	169.5
3091.04	161.045
3093.6	154.261
3096.16	156.908
3098.72	152.968
3101.28	150.427
3103.84	156.996
3106.4	153.483
3108.96	146.126
3111.51	151.867
3114.07	156.22
3116.63	158.952
3119.19	158.555
3121.75	150.964
3124.31	158.106
3126.87	149.413
3129.42	156.934
3131.98	152.908
3134.54	151.951
3137.1	149.287
3139.66	156.911
3142.22	150.665
3144.78	144.375
3147.33	154.205
3149.89	149.188
3152.45	152.221
3155.01	153.864
3157.57	152.245
3160.13	156.044
3162.69	155.438
3165.25	152.971
3167.8	148.41
3170.36	151.873
3172.92	158.093
3175.48	148.169
3178.04	159.14
3180.6	163.76
3183.16	159.757
3185.71	152.005
3188.27	159.185
3190.83	157.807
3193.39	150.318
3195.95	157.505
3198.51	158.559
3201.07	155.97
3203.62	169.757
3206.18	167.217
3208.74	153.895
3211.3	158.192
3213.86	157.302
3216.42	157.266
3218.98	153.418
3221.54	155.321
3224.09	155.961
3226.65	154.41
3229.21	155.478
3231.77	150.355
3234.33	149.769
3236.89	156.542
3239.45	160.658
3242	157.317
3244.56	153.386
3247.12	159.39
3249.68	150.736
3252.24	151.594
3254.8	147.247
3257.36	150.156
3259.91	157.865
3262.47	158.793
3265.03	155.373
3267.59	146.431
3270.15	142.44
3272.71	153.335
3275.27	152.815
3277.83	143.779
3280.38	158.968
3282.94	144.361
3285.5	149.143
3288.06	154.304
3290.62	154.148
3293.18	148.232
3295.74	155.282
3298.29	155.916
3300.85	149.299
3303.41	151.293
3305.97	148.98
3308.53	157.585
3311.09	153.967
3313.65	152.922
3316.2	157.396
3318.76	160.523
3321.32	144.39
3323.88	152.445
3326.44	156.965
3329	158.351
3331.56	146.149
3334.12	151.344
3336.67	148.86
3339.23	157.418
3341.79	154.745
3344.35	147.73
3346.91	149.78
3349.47	160.566
3352.03	146.237
3354.58	156.389
3357.14	154.842
3359.7	156.306
3362.26	151.301
3364.82	147.596
3367.38	143.681
3369.94	154.916
3372.49	155.701
3375.05	159.435
3377.61	157.295
3380.17	152.184
3382.73	156.811
3385.29	160.183
3387.85	154.277
3390.41	158.404
3392.96	157.983
3395.52	160.342
3398.08	158.798
3400.64	157.614
3403.2	155.476
3405.76	154.285
3408.32	155.368
3410.87	152.375
3413.43	157.809
3415.99	157.05
3418.55	153.369
3421.11	164.381
3423.67	160.572
3426.23	161.414
3428.78	156.259
3431.34	162.922
3433.9	153.579
3436.46	162.042
3439.02	160.519
3441.58	159.818
3444.14	163.145
3446.7	161.935
3449.25	164.434
3451.81	157.688
3454.37	166.428
3456.93	161.111
3459.49	169.121
3462.05	173.147
3464.61	169.421
3467.16	167.301
3469.72	159.105
3472.28	166.588
3474.84	169.126
3477.4	167.139
3479.96	170.376
3482.52	167.121
3485.07	176.339
3487.63	183.567
3490.19	161.203
3492.75	170.83
3495.31	171.021
3497.87	161.658
3500.43	158.552
3502.99	169.488
3505.54	170.393
3508.1	167.803
3510.66	176.227
3513.22	168.295
3515.78	180.609
3518.34	165.244
3520.9	170.955
3523.45	169.69
3526.01	169.477
3528.57	177.56
3531.13	168.353
3533.69	172.918
3536.25	170.419
3538.81	171.48
3541.36	173.874
3543.92	170.425
3546.48	169.188
3549.04	171.435
3551.6	174.475
3554.16	173.538
3556.72	178.152
3559.28	179.556
3561.83	188.83
3564.39	182.271
3566.95	182.636
3569.51	169.155
3572.07	184.129
3574.63	174.348
3577.19	174.788
3579.74	181.48
3582.3	175.774
3584.86	176.105
3587.42	186.619
3589.98	185.682
3592.54	176.197
3595.1	180.507
3597.65	185.982
3600.21	178.87
3602.77	189.761
3605.33	193.097
3607.89	189.177
3610.45	188.834
3613.01	184.426
3615.56	184.163
3618.12	175.191
3620.68	186.835
3623.24	182.704
3625.8	182.4
3628.36	194.235
3630.92	192.231
3633.48	182.544
3636.03	183.148
3638.59	182.092
3641.15	180.054
3643.71	183.999
3646.27	186.929
3648.83	182.954
3651.39	191.663
3653.94	189.936
3656.5	184.85
3659.06	183.463
3661.62	194.251
3664.18	180.21
3666.74	187.105
3669.3	187.767
3671.85	198.056
3674.41	192.911
3676.97	192.797
3679.53	191.249
3682.09	187.362
3684.65	193.812
3687.21	193.911
3689.77	191.274
3692.32	191.991
3694.88	196.661
3697.44	188.345
3700	188.518