File: Example Data/Raman/Kara/12-20-10/C-Si-Graphene/1 bulk/CSGbulk1_1.txt
100	100.773
102.559	104.8
105.117	102.498
107.676	94.3897
110.235	103.82
112.793	113.744
115.352	120.836
117.91	121.348
120.469	111.805
123.028	123.649
125.586	126.892
128.145	131.269
130.704	139.333
133.262	147.755
135.821	145.672
138.38	147.185
140.938	144.936
143.497	141.367
146.055	145.294
148.614	142.084
151.173	137.734
153.731	133.25
156.29	129.39
158.849	126.759
161.407	125.954
163.966	129.047
166.525	129.893
169.083	126.223
171.642	118.975
174.2	121.228
176.759	124.962
179.318	120.389
181.876	113.43
184.435	112.451
186.994	107.452
189.552	116.612
192.111	116.132
194.67	112.417
197.228	113.496
199.787	108.817
202.345	106.634
204.904	106.435
207.463	105.467
210.021	103.636
212.58	106.87
215.139	107.776
217.697	108
220.256	106.346
222.814	103.8
225.373	103.833
227.932	105.937
230.49	109.686
233.049	109.832
235.608	109.823
238.166	116.324
240.725	115.351
243.284	116.297
245.842	117.595
248.401	117.845
250.959	116.624
253.518	116.786
256.077	123.792
258.635	124.309
261.194	121.25
263.753	120.383
266.311	128.352
268.87	125.651
271.429	128.113
273.987	129.039
276.546	127.549
279.104	127.645
281.663	138.234
284.222	135.496
286.78	133.193
289.339	134.163
291.898	137.84
294.456	142.737
297.015	134.817
299.574	138.869
302.132	137.253
304.691	133.197
307.249	150.47
309.808	143.444
312.367	132.245
314.925	128.381
317.484	127.364
320.043	123.002
322.601	124.312
325.16	128.981
327.719	130.051
330.277	124.66
332.836	117.75
335.394	120.424
337.953	120.916
340.512	123.585
343.07	117.295
345.629	115.444
348.188	125.815
350.746	116.624
353.305	111.499
355.864	111.289
358.422	117.889
360.981	124.061
363.539	118.56
366.098	115.763
368.657	112.393
371.215	106.137
373.774	104.476
376.333	108.608
378.891	105.912
381.45	97.5074
384.009	106.571
386.567	104.887
389.126	101.888
391.684	113.26
394.243	114.91
396.802	107.354
399.36	102.535
401.919	102.353
404.478	104.657
407.036	105.3
409.595	104.308
412.154	108.768
414.712	106.342
417.271	104.999
419.829	108.544
422.388	111.385
424.947	114.697
427.505	119.694
430.064	114.067
432.623	107.759
435.181	109.602
437.74	114.71
440.298	110.398
442.857	107.842
445.416	107.303
447.974	108.674
450.533	109.968
453.092	105.817
455.65	107.456
458.209	113.597
460.768	116.6
463.326	120.712
465.885	127.929
468.444	119.944
471.002	129.119
473.561	138.608
476.119	137.292
478.678	137.092
481.237	150.961
483.795	161.966
486.354	177.208
488.913	188.397
491.471	197.247
494.03	205.322
496.589	216.037
499.147	238.083
501.706	254.702
504.264	285.592
506.823	326.675
509.382	376.775
511.94	427.09
514.499	449.567
517.058	439.526
519.616	424.485
522.175	381.365
524.733	319.275
527.292	256.623
529.851	202.025
532.409	164.142
534.968	133.131
537.527	108.747
540.085	94.9482
542.644	89.2346
545.203	80.6251
547.761	78.1065
550.32	69.2433
552.878	68.0485
555.437	69.9015
557.996	67.2926
560.554	58.7917
563.113	67.2067
565.672	64.6723
568.23	62.5533
570.789	62.8231
573.348	65.0436
575.906	66.2367
578.465	59.6618
581.023	59.2661
583.582	59.0645
586.141	58.8958
588.699	60.4773
591.258	63.9829
593.817	66.4807
596.375	71.0415
598.934	63.3016
601.493	58.4081
604.051	59.1543
606.61	63.0489
609.168	66.2138
611.727	69.0883
614.286	65.2957
616.844	69.5438
619.403	63.396
621.962	59.1059
624.52	65.8
627.079	61.0563
629.638	62.0735
632.196	63.9821
634.755	60.9401
637.313	60.6799
639.872	63.1407
642.431	62.2175
644.989	63.5761
647.548	62.4326
650.107	65.7536
652.665	65.907
655.224	65.8266
657.783	67.0992
660.341	64.4298
662.9	60.6863
665.458	62.758
668.017	63.9098
670.576	64.0045
673.134	63.6638
675.693	62.6298
678.252	59.4985
680.81	61.3739
683.369	59.2001
685.927	58.4
688.486	56.3929
691.045	57.7151
693.603	65.249
696.162	61.3313
698.721	57.9123
701.279	58.5623
703.838	58.8838
706.397	62.1135
708.955	62.8461
711.514	54.0823
714.073	53.4044
716.631	54.7738
719.19	50.8519
721.748	53.4308
724.307	54.1158
726.866	53.5392
729.424	60.0286
731.983	57.7989
734.542	51.4487
737.1	60.7132
739.659	60.088
742.217	54.2607
744.776	53.4769
747.335	59.6352
749.893	63.0962
752.452	54.8473
755.011	58.2725
757.569	59.6458
760.128	59.8507
762.687	60.7733
765.245	60.3262
767.804	54.4205
770.362	60.1068
772.921	65.035
775.48	63.9275
778.038	61.0549
780.597	60.6288
783.156	62.1887
785.714	60.6687
788.273	61.5319
790.832	64.9408
793.39	61.5813
795.949	61.4926
798.507	61.3856
801.066	62.7336
803.625	75.3373
806.183	68.9368
808.742	68.6306
811.301	60.9078
813.859	64.9666
816.418	68.1581
818.977	66.9644
821.535	69.1879
824.094	65.4519
826.652	66.4929
829.211	62.0874
831.77	68.2874
834.328	68.7029
836.887	64.6656
839.446	65.3494
842.004	70.2131
844.563	71.7777
847.122	71.1147
849.68	74.9191
852.239	71.159
854.797	66.3897
857.356	65.0671
859.915	64.7463
862.473	63.7972
865.032	72.858
867.591	73.0725
870.149	72.1714
872.708	74.9497
875.267	76.2706
877.825	76.2098
880.384	77.4288
882.942	68.6189
885.501	72.284
888.06	78.9855
890.618	74.9558
893.177	70.2347
895.736	70.1115
898.294	73.1406
900.853	76.4456
903.411	81.5738
905.97	81.0487
908.529	79.888
911.087	80.002
913.646	81.838
916.205	81.5955
918.763	79.3403
921.322	80.7086
923.881	87.3599
926.439	79.9912
928.998	78.1086
931.557	90.5382
934.115	92.235
936.674	87.9414
939.232	89.0301
941.791	93.5634
944.35	90.4546
946.908	84.3
949.467	86.5099
952.026	82.2686
954.584	84.4601
957.143	90.6367
959.701	89.244
962.26	80.4306
964.819	81.7038
967.377	81.0064
969.936	84.8877
972.495	81.1136
975.053	78.1155
977.612	75.6088
980.171	73.9521
982.729	73.3629
985.288	74.236
987.846	80.3949
990.405	74.7403
992.964	71.7402
995.522	74.7792
998.081	66.7147
1000.64	65.8344
1003.2	66.0408
1005.76	58.3425
1008.32	64.1387
1010.87	68.4563
1013.43	63.8469
1015.99	66.9233
1018.55	62.1611
1021.11	64.6588
1023.67	68.5849
1026.23	67.54
1028.78	67.4365
1031.34	74.3225
1033.9	72.3855
1036.46	71.4967
1039.02	75.6782
1041.58	74.8918
1044.14	76.2839
1046.7	76.5257
1049.25	74.8
1051.81	75.3783
1054.37	76.7793
1056.93	74.262
1059.49	84.7762
1062.05	86.122
1064.61	79.3718
1067.16	78.7542
1069.72	79.8229
1072.28	78.677
1074.84	79.8759
1077.4	84.9638
1079.96	81.7159
1082.52	83.6813
1085.07	81.9528
1087.63	82.9211
1090.19	84.2796
1092.75	86.1598
1095.31	85.8954
1097.87	85.1147
1100.43	87.6242
1102.99	86.4722
1105.54	88.8029
1108.1	96.6927
1110.66	93.1554
1113.22	98.6264
1115.78	96.4314
1118.34	97.2612
1120.9	100.239
1123.45	100.936
1126.01	110.107
1128.57	110.615
1131.13	110.795
1133.69	105.375
1136.25	105.839
1138.81	112.536
1141.36	117.551
1143.92	120.233
1146.48	121.6
1149.04	124.352
1151.6	131.107
1154.16	129.341
1156.72	135.652
1159.28	135.976
1161.83	137.096
1164.39	138.496
1166.95	145.108
1169.51	146.359
1172.07	146.35
1174.63	149.358
1177.19	148.291
1179.74	160.773
1182.3	155.433
1184.86	158.689
1187.42	160.964
1189.98	166.61
1192.54	165.33
1195.1	166.287
1197.65	168.271
1200.21	176.477
1202.77	187.879
1205.33	172.36
1207.89	173.939
1210.45	183.916
1213.01	184.2
1215.57	190.517
1218.12	189.548
1220.68	194.465
1223.24	202.417
1225.8	203.826
1228.36	204.267
1230.92	210.919
1233.48	209.228
1236.03	212.345
1238.59	223.082
1241.15	217.037
1243.71	225.579
1246.27	220.939
1248.83	225.042
1251.39	235.543
1253.94	237.202
1256.5	235.019
1259.06	240.76
1261.62	244.62
1264.18	251.534
1266.74	264.652
1269.3	272.51
1271.85	257.527
1274.41	262.034
1276.97	274.546
1279.53	277.173
1282.09	281.905
1284.65	281.494
1287.21	273.73
1289.77	283.467
1292.32	296.193
1294.88	289.025
1297.44	294.341
1300	288.778
1302.56	302.876
1305.12	315.498
1307.68	322.629
1310.23	318.932
1312.79	321.161
1315.35	330.344
1317.91	338.217
1320.47	345.538
1323.03	344.402
1325.59	348.575
1328.15	352.085
1330.7	344.72
1333.26	348.649
1335.82	364.623
1338.38	356.432
1340.94	348.768
1343.5	358.351
1346.06	367.321
1348.61	370.946
1351.17	374.045
1353.73	365.419
1356.29	360.948
1358.85	364.538
1361.41	359.247
1363.97	371.447
1366.52	370.013
1369.08	360.579
1371.64	347.597
1374.2	340.813
1376.76	340.618
1379.32	337.091
1381.88	334.392
1384.43	335.272
1386.99	328.783
1389.55	324.346
1392.11	325.641
1394.67	310.182
1397.23	305.357
1399.79	305.559
1402.35	306.592
1404.9	298.49
1407.46	287.446
1410.02	284.951
1412.58	281.122
1415.14	276.536
1417.7	277.659
1420.26	277.722
1422.81	274.471
1425.37	277.286
1427.93	265.015
1430.49	262.232
1433.05	259.622
1435.61	261.449
1438.17	263.142
1440.72	257.398
1443.28	250.738
1445.84	252.478
1448.4	249.557
1450.96	247.669
1453.52	243.949
1456.08	241.939
1458.64	246.882
1461.19	245.023
1463.75	244.003
1466.31	235.552
1468.87	238.33
1471.43	245.09
1473.99	232.164
1476.55	244.976
1479.1	246.473
1481.66	235.057
1484.22	233.206
1486.78	227.167
1489.34	232.45
1491.9	236.443
1494.46	231.624
1497.01	234.946
1499.57	241.639
1502.13	235.996
1504.69	234.924
1507.25	240.063
1509.81	244.732
1512.37	241.87
1514.93	237.918
1517.48	240.542
1520.04	235.153
1522.6	244.575
1525.16	244.977
1527.72	246.251
1530.28	249.331
1532.84	250.486
1535.39	257.288
1537.95	263.525
1540.51	262.234
1543.07	261.286
1545.63	265.006
1548.19	275.459
1550.75	287.053
1553.3	286.839
1555.86	290.342
1558.42	297.153
1560.98	303.78
1563.54	325.973
1566.1	327.137
1568.66	329.756
1571.22	345.112
1573.77	367.745
1576.33	360.66
1578.89	367.971
1581.45	388.418
1584.01	398.809
1586.57	400.148
1589.13	400.807
1591.68	407.61
1594.24	413.95
1596.8	409.738
1599.36	414.216
1601.92	405.282
1604.48	405.841
1607.04	397.671
1609.59	392.293
1612.15	370.768
1614.71	345.546
1617.27	339.387
1619.83	309.556
1622.39	306.833
1624.95	293.555
1627.51	281.236
1630.06	265.509
1632.62	247.096
1635.18	227.537
1637.74	209.433
1640.3	201.48
1642.86	196.729
1645.42	185.249
1647.97	171.546
1650.53	155.736
1653.09	149.258
1655.65	151.539
1658.21	137.796
1660.77	130.197
1663.33	125.511
1665.88	119.923
1668.44	113.802
1671	114.57
1673.56	102.236
1676.12	108.44
1678.68	96.7494
1681.24	92.7918
1683.8	93.3188
1686.35	82.6932
1688.91	89.0685
1691.47	85.3362
1694.03	80.9227
1696.59	79.8474
1699.15	75.3325
1701.71	74.0097
1704.26	74.1211
1706.82	72.7163
1709.38	70.5593
1711.94	66.9179
1714.5	67.2926
1717.06	65.805
1719.62	67.0036
1722.17	66.1005
1724.73	60.2397
1727.29	58.1678
1729.85	60.2
1732.41	60.2
1734.97	60.1242
1737.53	58.7694
1740.09	57.4142
1742.64	45.1356
1745.2	45.3414
1747.76	55.0733
1750.32	55.5081
1752.88	50.2272
1755.44	49.6825
1758	53.0514
1760.55	48.9375
1763.11	47.9156
1765.67	49.9855
1768.23	52.7739
1770.79	48.2605
1773.35	46.6847
1775.91	49.2925
1778.46	51.3836
1781.02	51.5767
1783.58	49.9159
1786.14	48.3337
1788.7	47.2717
1791.26	46.7657
1793.82	47.3111
1796.38	46.4184
1798.93	44.542
1801.49	44.7837
1804.05	43.5794
1806.61	42.7697
1809.17	38.9238
1811.73	45.4557
1814.29	43.6621
1816.84	46.7852
1819.4	44.0472
1821.96	41.0344
1824.52	48.4378
1827.08	40.896
1829.64	45.6974
1832.2	38.7144
1834.75	45.5351
1837.31	42.7848
1839.87	37.688
1842.43	43.7659
1844.99	41.1676
1847.55	37.4845
1850.11	43.5447
1852.67	42.9569
1855.22	43.4959
1857.78	38.314
1860.34	37.7341
1862.9	47.942
1865.46	43.9483
1868.02	38.004
1870.58	38.3373
1873.13	42.4148
1875.69	41.0925
1878.25	37.4543
1880.81	42.0606
1883.37	44.6773
1885.93	43.7139
1888.49	36.2841
1891.04	37.7529
1893.6	39.7617
1896.16	41.401
1898.72	39.0451
1901.28	37.2803
1903.84	35.9527
1906.4	35.6075
1908.96	39.2542
1911.51	41.6
1914.07	40.8383
1916.63	35.7165
1919.19	34.2076
1921.75	40.0962
1924.31	42.2898
1926.87	43.1787
1929.42	41.9933
1931.98	43.3727
1934.54	44.6645
1937.1	42.2178
1939.66	43.3458
1942.22	42.4942
1944.78	40.6052
1947.33	36.8868
1949.89	36.4012
1952.45	34.925
1955.01	35.9991
1957.57	39.4575
1960.13	39.5068
1962.69	40.6091
1965.25	43.2468
1967.8	42.1863
1970.36	40.6663
1972.92	36.2883
1975.48	35.0452
1978.04	35.1848
1980.6	37.5725
1983.16	39.8522
1985.71	38.4451
1988.27	42.5011
1990.83	44.5665
1993.39	40.749
1995.95	41.2915
1998.51	41.8819
2001.07	38.2221
2003.62	36.5141
2006.18	38.4993
2008.74	36.8224
2011.3	39.3879
2013.86	40.9712
2016.42	37.9151
2018.98	40.9425
2021.54	42.3423
2024.09	43.1359
2026.65	42.3507
2029.21	41.4194
2031.77	40.9605
2034.33	41.1685
2036.89	36.7166
2039.45	35.3551
2042	39.2087
2044.56	38.6826
2047.12	42.84
2049.68	46.5506
2052.24	43.8389
2054.8	41.9094
2057.36	39.0872
2059.91	37.6352
2062.47	38.0829
2065.03	40.1054
2067.59	42.7486
2070.15	40.1843
2072.71	38.1096
2075.27	38.0456
2077.83	38.4418
2080.38	41.1376
2082.94	42.822
2085.5	42.9542
2088.06	41.1634
2090.62	42.3967
2093.18	41.631
2095.74	39.7848
2098.29	39.269
2100.85	41.7596
2103.41	39.7265
2105.97	37.7412
2108.53	41.0163
2111.09	37.5523
2113.65	40.9416
2116.2	40.145
2118.76	40.5737
2121.32	38.4179
2123.88	36.8215
2126.44	42.0414
2129	45.0919
2131.56	40.6547
2134.12	44.5035
2136.67	46.3565
2139.23	43.7015
2141.79	37.4313
2144.35	47.2837
2146.91	43.1221
2149.47	42.5046
2152.03	44.2234
2154.58	43.4466
2157.14	42.318
2159.7	40.4694
2162.26	45.1855
2164.82	42.6601
2167.38	43.9676
2169.94	43.3179
2172.49	45.2972
2175.05	43.2196
2177.61	40.2119
2180.17	41.1545
2182.73	43.553
2185.29	46.5119
2187.85	41.6553
2190.41	41.7037
2192.96	43.7344
2195.52	44.6287
2198.08	45.4566
2200.64	45.3619
2203.2	44.0845
2205.76	42.5701
2208.32	42.392
2210.87	42.3593
2213.43	44.2743
2215.99	42.5851
2218.55	44.1105
2221.11	46.1759
2223.67	47.2269
2226.23	47.1493
2228.78	45.4148
2231.34	45.9267
2233.9	44.6548
2236.46	46.6017
2239.02	48.6833
2241.58	52.2996
2244.14	47.6985
2246.7	46.9504
2249.25	46.6582
2251.81	44.5212
2254.37	44.9517
2256.93	48.9151
2259.49	45.2718
2262.05	48.004
2264.61	49.15
2267.16	50.0957
2269.72	47.4932
2272.28	50.6727
2274.84	52.5424
2277.4	52.0862
2279.96	50.7154
2282.52	52.8524
2285.07	51.0616
2287.63	51.403
2290.19	53.9469
2292.75	53.5949
2295.31	52.8655
2297.87	50.0634
2300.43	54.9615
2302.99	55.368
2305.54	51.7803
2308.1	52.5958
2310.66	51.6483
2313.22	52.1865
2315.78	54.7393
2318.34	54.5901
2320.9	49.5861
2323.45	54.3533
2326.01	57.4752
2328.57	48.34
2331.13	56.6431
2333.69	59.2151
2336.25	60.2544
2338.81	58.3348
2341.36	55.5186
2343.92	56.3277
2346.48	56.2075
2349.04	54.5598
2351.6	52.2784
2354.16	55.7944
2356.72	56.6686
2359.28	54.5048
2361.83	57.5692
2364.39	57.9723
2366.95	54.3988
2369.51	56.7027
2372.07	60.4437
2374.63	57.306
2377.19	58.7843
2379.74	57.5131
2382.3	60.869
2384.86	55.8298
2387.42	63.6952
2389.98	65.2601
2392.54	63.7618
2395.1	61.0498
2397.65	63.7994
2400.21	63.6062
2402.77	63.6777
2405.33	63.4796
2407.89	62.3997
2410.45	67.4488
2413.01	64.3489
2415.56	67.1887
2418.12	69.1866
2420.68	69.3452
2423.24	73.1564
2425.8	72.6194
2428.36	73.3717
2430.92	78.5423
2433.48	79.1018
2436.03	77.2977
2438.59	81.8828
2441.15	85.6712
2443.71	88.5665
2446.27	90.2288
2448.83	87.3224
2451.39	85.1195
2453.94	79.3931
2456.5	79.9554
2459.06	79.7912
2461.62	76.9411
2464.18	76.7157
2466.74	74.7579
2469.3	72.1514
2471.85	75.1379
2474.41	74.4886
2476.97	78.7694
2479.53	75.869
2482.09	78.4499
2484.65	70.6828
2487.21	76.6851
2489.77	75.3226
2492.32	73.9131
2494.88	77.5284
2497.44	79.7547
2500	79.6937
2502.56	77.4334
2505.12	80.3526
2507.68	80.7145
2510.23	79.6096
2512.79	78.6218
2515.35	83.4639
2517.91	75.3065
2520.47	80.2506
2523.03	82.6103
2525.59	83.5351
2528.15	85.0728
2530.7	85.3785
2533.26	83.6356
2535.82	81.9232
2538.38	83.9776
2540.94	84.9543
2543.5	82.6107
2546.06	85.9128
2548.61	83.5154
2551.17	86.8467
2553.73	84.0852
2556.29	84.6607
2558.85	89.5588
2561.41	85.6664
2563.97	92.9386
2566.52	82.0121
2569.08	91.3078
2571.64	87.2259
2574.2	86.5885
2576.76	88.4312
2579.32	89.424
2581.88	86.0944
2584.44	89.5225
2586.99	91.9432
2589.55	88.9349
2592.11	91.0832
2594.67	93.896
2597.23	97.0453
2599.79	90.6443
2602.35	87.6494
2604.9	90.942
2607.46	93.039
2610.02	93.0273
2612.58	93.6947
2615.14	97.8427
2617.7	99.2128
2620.26	97.9985
2622.81	94.1418
2625.37	95.9362
2627.93	94.3527
2630.49	100.575
2633.05	96.9491
2635.61	96.0299
2638.17	98.6272
2640.72	96.797
2643.28	102.731
2645.84	103.901
2648.4	101.641
2650.96	98.3593
2653.52	105.36
2656.08	104.215
2658.64	103.882
2661.19	101.786
2663.75	105.866
2666.31	101.083
2668.87	106.311
2671.43	105.712
2673.99	105.577
2676.55	108.113
2679.1	106.568
2681.66	103.755
2684.22	107.78
2686.78	109.712
2689.34	107.21
2691.9	109.143
2694.46	109.671
2697.01	102.35
2699.57	107.044
2702.13	107.327
2704.69	101.101
2707.25	102.428
2709.81	110.353
2712.37	114.969
2714.93	112.723
2717.48	114.202
2720.04	116.695
2722.6	112.535
2725.16	109.698
2727.72	112.381
2730.28	114.229
2732.84	117.301
2735.39	112.945
2737.95	113.805
2740.51	112.442
2743.07	113.269
2745.63	120.293
2748.19	108.736
2750.75	117.467
2753.3	114.773
2755.86	114.146
2758.42	112.642
2760.98	108.16
2763.54	111.562
2766.1	115.959
2768.66	116.393
2771.22	117.205
2773.77	114.114
2776.33	113.561
2778.89	120.078
2781.45	115.077
2784.01	115.16
2786.57	110.362
2789.13	118.03
2791.68	120.378
2794.24	118.341
2796.8	122.716
2799.36	125.131
2801.92	118.157
2804.48	120.476
2807.04	121.71
2809.59	118.105
2812.15	123.414
2814.71	119.667
2817.27	122.534
2819.83	120.299
2822.39	122.568
2824.95	129.978
2827.51	124.563
2830.06	117.748
2832.62	117.581
2835.18	123.175
2837.74	122.16
2840.3	121.455
2842.86	118.368
2845.42	120.427
2847.97	120.248
2850.53	113.373
2853.09	124.888
2855.65	123.022
2858.21	125.492
2860.77	121.852
2863.33	121.061
2865.88	123.46
2868.44	124.176
2871	125.854
2873.56	127.749
2876.12	112.917
2878.68	123.83
2881.24	127.813
2883.8	123.175
2886.35	124.481
2888.91	126.083
2891.47	126.445
2894.03	123.418
2896.59	123.935
2899.15	126.457
2901.71	122.025
2904.26	133.638
2906.82	128.715
2909.38	128.603
2911.94	134.498
2914.5	124.188
2917.06	133.999
2919.62	129.668
2922.17	125.038
2924.73	127.697
2927.29	128.693
2929.85	125.332
2932.41	127.038
2934.97	124.789
2937.53	132.775
2940.09	132.009
2942.64	127.926
2945.2	127.108
2947.76	128.671
2950.32	129.737
2952.88	125.575
2955.44	128.381
2958	127.256
2960.55	126.927
2963.11	124.385
2965.67	132.224
2968.23	125.957
2970.79	119.285
2973.35	132.097
2975.91	125.554
2978.46	121.998
2981.02	120.891
2983.58	116.975
2986.14	125.545
2988.7	126.143
2991.26	119.778
2993.82	124.717
2996.38	126.762
2998.93	113.37
3001.49	121.548
3004.05	118.747
3006.61	114.513
3009.17	116.392
3011.73	112.502
3014.29	117.89
3016.84	122.638
3019.4	102.964
3021.96	113.161
3024.52	108.239
3027.08	116.765
3029.64	118.746
3032.2	114.208
3034.75	108.905
3037.31	115.466
3039.87	104.168
3042.43	111.346
3044.99	117.084
3047.55	115.79
3050.11	116.218
3052.67	106.948
3055.22	108.299
3057.78	111.468
3060.34	109.306
3062.9	111.957
3065.46	116.756
3068.02	117.56
3070.58	118.999
3073.13	118.127
3075.69	115.35
3078.25	110.662
3080.81	110.082
3083.37	112.548
3085.93	112.393
3088.49	112.905
3091.04	105.676
3093.6	108.198
3096.16	111.883
3098.72	114.634
3101.28	111.586
3103.84	117.322
3106.4	107.594
3108.96	120.721
3111.51	108.226
3114.07	109.046
3116.63	116.812
3119.19	117.329
3121.75	109.562
3124.31	105.407
3126.87	111.959
3129.42	111.834
3131.98	109.186
3134.54	112.589
3137.1	107.62
3139.66	104.463
3142.22	122.685
3144.78	120.642
3147.33	115.169
3149.89	112.357
3152.45	112.126
3155.01	114.848
3157.57	109.408
3160.13	110.248
3162.69	115.987
3165.25	117.542
3167.8	107.193
3170.36	109.583
3172.92	108.138
3175.48	107.264
3178.04	107.682
3180.6	109.079
3183.16	110.175
3185.71	117.939
3188.27	102.686
3190.83	112.809
3193.39	113.506
3195.95	110.251
3198.51	110.602
3201.07	111.174
3203.62	110.453
3206.18	113.664
3208.74	111.464
3211.3	110.367
3213.86	113.433
3216.42	112.255
3218.98	112.176
3221.54	116.445
3224.09	104.932
3226.65	114.311
3229.21	107.334
3231.77	104.287
3234.33	105.989
3236.89	101.038
3239.45	109.207
3242	111.047
3244.56	108.059
3247.12	106.167
3249.68	102.698
3252.24	103.737
3254.8	106.081
3257.36	109.717
3259.91	105.931
3262.47	102.188
3265.03	101.986
3267.59	106.112
3270.15	100.57
3272.71	103.245
3275.27	97.6581
3277.83	102.354
3280.38	101.157
3282.94	99.0755
3285.5	103.73
3288.06	112.562
3290.62	108.905
3293.18	103.035
3295.74	100.637
3298.29	110.155
3300.85	103.379
3303.41	101.379
3305.97	100.498
3308.53	98.4136
3311.09	102.731
3313.65	98.6144
3316.2	103.582
3318.76	104.098
3321.32	106.231
3323.88	106.933
3326.44	101.98
3329	102.173
3331.56	107.602
3334.12	105.285
3336.67	98.3932
3339.23	106.894
3341.79	108.698
3344.35	109.482
3346.91	114.442
3349.47	108.036
3352.03	97.0432
3354.58	108.629
3357.14	101.976
3359.7	104.959
3362.26	96.4513
3364.82	102.833
3367.38	100.246
3369.94	100.141
3372.49	102.183
3375.05	103.299
3377.61	105.266
3380.17	100.102
3382.73	102.072
3385.29	104.951
3387.85	104.925
3390.41	103.978
3392.96	108.411
3395.52	108.395
3398.08	103.967
3400.64	113.762
3403.2	113.059
3405.76	108.914
3408.32	99.3758
3410.87	104.978
3413.43	103.154
3415.99	109.912
3418.55	107.578
3421.11	110.47
3423.67	112.223
3426.23	111.104
3428.78	100.644
3431.34	106.073
3433.9	105.728
3436.46	100.803
3439.02	109.838
3441.58	111.367
3444.14	115.039
3446.7	110.397
3449.25	106.903
3451.81	108.922
3454.37	115.358
3456.93	106.932
3459.49	107.679
3462.05	117.715
3464.61	113.311
3467.16	108.092
3469.72	111.81
3472.28	113.65
3474.84	116.816
3477.4	121.247
3479.96	117.004
3482.52	116.291
3485.07	111.47
3487.63	114.17
3490.19	115.428
3492.75	113.118
3495.31	112.65
3497.87	111.946
3500.43	112.619
3502.99	113.777
3505.54	113.541
3508.1	115.673
3510.66	110.479
3513.22	111.413
3515.78	115.042
3518.34	121.721
3520.9	116.802
3523.45	109.832
3526.01	121.034
3528.57	110.47
3531.13	109.942
3533.69	111.615
3536.25	116.2
3538.81	129.677
3541.36	118.416
3543.92	121.738
3546.48	121.652
3549.04	125.421
3551.6	124.649
3554.16	121.82
3556.72	121.654
3559.28	118.127
3561.83	117.186
3564.39	119.009
3566.95	122.639
3569.51	125.68
3572.07	116.604
3574.63	140.621
3577.19	122.93
3579.74	119.256
3582.3	113.722
3584.86	120.297
3587.42	117.63
3589.98	124.242
3592.54	131.93
3595.1	134.546
3597.65	122.781
3600.21	124.863
3602.77	130.903
3605.33	130.464
3607.89	131.579
3610.45	129.762
3613.01	133.664
3615.56	127.916
3618.12	128.944
3620.68	133.763
3623.24	126.282
3625.8	125.284
3628.36	127.765
3630.92	125.709
3633.48	123.803
3636.03	125.423
3638.59	131.71
3641.15	129.597
3643.71	134.003
3646.27	125.121
3648.83	129.168
3651.39	127.894
3653.94	126.426
3656.5	130.022
3659.06	136.974
3661.62	133.448
3664.18	134.373
3666.74	134.415
3669.3	129.855
3671.85	131.399
3674.41	131.332
3676.97	134.732
3679.53	138.062
3682.09	135.248
3684.65	135.444
3687.21	133.903
3689.77	136.382
3692.32	137.364
3694.88	132.75
3697.44	140.318
3700	142.501