File: Example Data/Raman/Kara/12-20-10/C-Si-Graphene/1 bulk/CSGbulk1_4.txt
100	331.83
102.559	342.833
105.117	343.382
107.676	346.689
110.235	370.983
112.793	392.087
115.352	410.414
117.91	422.386
120.469	422.188
123.028	456.118
125.586	475.922
128.145	489.213
130.704	499.085
133.262	505.344
135.821	512.075
138.38	514.841
140.938	514.502
143.497	514.84
146.055	520.892
148.614	511.584
151.173	518.196
153.731	509.711
156.29	495.963
158.849	507.154
161.407	490.751
163.966	480.457
166.525	476.237
169.083	476.367
171.642	476.286
174.2	454.24
176.759	441.32
179.318	438.138
181.876	434.336
184.435	419.371
186.994	404.535
189.552	417.037
192.111	414.372
194.67	406.114
197.228	407.237
199.787	410.141
202.345	392.743
204.904	386.617
207.463	387.572
210.021	390.877
212.58	400.417
215.139	387.922
217.697	380.576
220.256	386.583
222.814	404.836
225.373	424.479
227.932	416.71
230.49	431.807
233.049	449.735
235.608	458.687
238.166	455.964
240.725	470.885
243.284	473.337
245.842	478.566
248.401	486.08
250.959	490.77
253.518	487.847
256.077	484.03
258.635	501.715
261.194	517.907
263.753	521.547
266.311	529.353
268.87	542.175
271.429	550.181
273.987	546.563
276.546	545.17
279.104	567.003
281.663	572.053
284.222	581.687
286.78	595.887
289.339	610.926
291.898	622.384
294.456	626.954
297.015	631.832
299.574	640.493
302.132	640.261
304.691	633.771
307.249	638.492
309.808	636.205
312.367	610.778
314.925	592.225
317.484	581.837
320.043	573.046
322.601	570.754
325.16	555.178
327.719	566.475
330.277	567.078
332.836	546.21
335.394	529.806
337.953	525.872
340.512	534.586
343.07	527.193
345.629	519.697
348.188	527.215
350.746	518.024
353.305	489.55
355.864	501.891
358.422	510.733
360.981	504.155
363.539	500.03
366.098	481.77
368.657	479.686
371.215	481.631
373.774	481.971
376.333	480.503
378.891	483.44
381.45	468.28
384.009	465.857
386.567	458.213
389.126	457.116
391.684	472.304
394.243	460.258
396.802	455.855
399.36	458.313
401.919	462.067
404.478	469.2
407.036	482.31
409.595	463.633
412.154	465.726
414.712	476.218
417.271	476.005
419.829	468.738
422.388	482.874
424.947	484.199
427.505	484.821
430.064	492.533
432.623	490.728
435.181	481.348
437.74	506.217
440.298	507.047
442.857	503.955
445.416	508.468
447.974	513.729
450.533	515.56
453.092	531.336
455.65	551.101
458.209	557.835
460.768	574.971
463.326	609.391
465.885	651.445
468.444	673.403
471.002	694.564
473.561	705.828
476.119	735.653
478.678	791.447
481.237	856.452
483.795	884.797
486.354	968.599
488.913	1049.77
491.471	1132.39
494.03	1220.15
496.589	1320.51
499.147	1453.29
501.706	1676.18
504.264	1929.43
506.823	2224.82
509.382	2552.2
511.94	2842.23
514.499	2929.87
517.058	2707.46
519.616	2272.56
522.175	1830.14
524.733	1456.34
527.292	1145.93
529.851	858.598
532.409	677.894
534.968	569.076
537.527	486.05
540.085	427.482
542.644	392.009
545.203	359.675
547.761	314.675
550.32	293.857
552.878	282.623
555.437	273.552
557.996	266.18
560.554	263.012
563.113	251.231
565.672	257.594
568.23	250.623
570.789	243.805
573.348	240.911
575.906	239.76
578.465	249.706
581.023	244.959
583.582	238.58
586.141	237.563
588.699	241.188
591.258	245.167
593.817	246.081
596.375	250.642
598.934	254.016
601.493	253.828
604.051	253.862
606.61	253.233
609.168	250.985
611.727	267.556
614.286	260.229
616.844	246.662
619.403	244.547
621.962	250.094
624.52	253.24
627.079	253.203
629.638	249.643
632.196	246.675
634.755	244.383
637.313	236.823
639.872	229.893
642.431	234.035
644.989	236.752
647.548	231.463
650.107	233.544
652.665	235.64
655.224	233.67
657.783	229.647
660.341	230.473
662.9	237.279
665.458	231.669
668.017	226.941
670.576	223.147
673.134	216.981
675.693	211.665
678.252	221.23
680.81	206.568
683.369	216.35
685.927	216.582
688.486	213.105
691.045	213.286
693.603	214.478
696.162	203.59
698.721	203.077
701.279	210.555
703.838	209.1
706.397	202.076
708.955	198.864
711.514	201.311
714.073	189.237
716.631	200.877
719.19	205.947
721.748	203.312
724.307	203.827
726.866	204.52
729.424	196.429
731.983	206.199
734.542	198.475
737.1	204.076
739.659	201.169
742.217	202.112
744.776	208.683
747.335	208.581
749.893	209.615
752.452	210.818
755.011	213.628
757.569	215.545
760.128	219.084
762.687	220.173
765.245	215.626
767.804	219.527
770.362	217.631
772.921	222.391
775.48	224.865
778.038	223.478
780.597	221.4
783.156	224.279
785.714	235.455
788.273	236.146
790.832	225.86
793.39	222.145
795.949	224.007
798.507	229.454
801.066	234.147
803.625	233.616
806.183	239.671
808.742	232.349
811.301	239.547
813.859	235.024
816.418	237.457
818.977	244.327
821.535	236.671
824.094	237.086
826.652	238.822
829.211	241.023
831.77	242.891
834.328	236.514
836.887	233.846
839.446	240.1
842.004	239.768
844.563	243.941
847.122	248.968
849.68	243.268
852.239	238.775
854.797	237.493
857.356	244.044
859.915	255.068
862.473	248.001
865.032	243.471
867.591	256.138
870.149	259.276
872.708	258.613
875.267	264.776
877.825	271.209
880.384	267.699
882.942	276.264
885.501	273.996
888.06	282.421
890.618	283.122
893.177	290.152
895.736	296.096
898.294	302.631
900.853	318.921
903.411	314.062
905.97	323.339
908.529	327.854
911.087	334.16
913.646	333.961
916.205	342.832
918.763	358.738
921.322	361.158
923.881	366.265
926.439	360.65
928.998	378.925
931.557	383.537
934.115	381.911
936.674	372.573
939.232	369.307
941.791	383.005
944.35	378.065
946.908	367.514
949.467	362.984
952.026	346.715
954.584	351.944
957.143	352.154
959.701	346.793
962.26	348.594
964.819	335.731
967.377	316.191
969.936	310.545
972.495	297.859
975.053	282.538
977.612	276.518
980.171	270.767
982.729	258.407
985.288	249.472
987.846	249.711
990.405	248.474
992.964	246.738
995.522	235.806
998.081	233.521
1000.64	230.627
1003.2	222.271
1005.76	214.575
1008.32	212.282
1010.87	216.4
1013.43	216.4
1015.99	212.236
1018.55	203.773
1021.11	203.734
1023.67	201.392
1026.23	194.47
1028.78	192.286
1031.34	193.099
1033.9	192.479
1036.46	197.278
1039.02	200.494
1041.58	199.973
1044.14	194.718
1046.7	191.2
1049.25	191.27
1051.81	195.834
1054.37	208.406
1056.93	199.16
1059.49	197.556
1062.05	204.323
1064.61	200.008
1067.16	196.576
1069.72	196.577
1072.28	194.734
1074.84	191.877
1077.4	194.509
1079.96	190.221
1082.52	197.368
1085.07	194.441
1087.63	201.433
1090.19	213.373
1092.75	215.557
1095.31	209.507
1097.87	204.386
1100.43	203.811
1102.99	208.442
1105.54	208.801
1108.1	211.491
1110.66	211.324
1113.22	217.412
1115.78	219.848
1118.34	215.721
1120.9	215.58
1123.45	224.47
1126.01	231.335
1128.57	233.846
1131.13	234.386
1133.69	237.375
1136.25	237.955
1138.81	231.124
1141.36	237.098
1143.92	243.81
1146.48	244.574
1149.04	246.64
1151.6	250.302
1154.16	262.526
1156.72	268.656
1159.28	252.598
1161.83	261.982
1164.39	267.939
1166.95	271.902
1169.51	271.446
1172.07	270.969
1174.63	277.446
1177.19	282.791
1179.74	272.206
1182.3	277.59
1184.86	296.219
1187.42	292.436
1189.98	290.476
1192.54	296.74
1195.1	306.695
1197.65	308.211
1200.21	306.451
1202.77	313.67
1205.33	316.944
1207.89	312.206
1210.45	323.09
1213.01	334.866
1215.57	333.242
1218.12	336.029
1220.68	343.422
1223.24	348.23
1225.8	346.063
1228.36	344.8
1230.92	353.814
1233.48	365.372
1236.03	377.046
1238.59	371.951
1241.15	376.396
1243.71	378.59
1246.27	384.367
1248.83	390.183
1251.39	390.917
1253.94	399.404
1256.5	405.429
1259.06	402.97
1261.62	429.492
1264.18	434.585
1266.74	426.677
1269.3	438.372
1271.85	438.733
1274.41	439.797
1276.97	450.013
1279.53	466.441
1282.09	469.28
1284.65	469.644
1287.21	477.622
1289.77	477.297
1292.32	487.841
1294.88	521.882
1297.44	512.899
1300	525.857
1302.56	508.896
1305.12	529.636
1307.68	533.975
1310.23	549.846
1312.79	555.546
1315.35	558.894
1317.91	582.168
1320.47	598.967
1323.03	604.518
1325.59	616.03
1328.15	603.227
1330.7	630.665
1333.26	637.904
1335.82	641.907
1338.38	654.112
1340.94	639.283
1343.5	637.175
1346.06	651.453
1348.61	657.349
1351.17	656.186
1353.73	656.274
1356.29	655.512
1358.85	657.407
1361.41	659.787
1363.97	656.46
1366.52	660.291
1369.08	650.579
1371.64	647.319
1374.2	638.028
1376.76	629.499
1379.32	626.232
1381.88	620.936
1384.43	616.329
1386.99	611.009
1389.55	583.233
1392.11	575.238
1394.67	565.923
1397.23	559.799
1399.79	563.91
1402.35	545.551
1404.9	545.226
1407.46	547.085
1410.02	551.085
1412.58	536.103
1415.14	515.723
1417.7	502.006
1420.26	494.48
1422.81	503.839
1425.37	508.665
1427.93	490.489
1430.49	481.217
1433.05	475.251
1435.61	462.626
1438.17	476.68
1440.72	471.46
1443.28	454.215
1445.84	458.251
1448.4	458.321
1450.96	443.885
1453.52	439.786
1456.08	449.357
1458.64	441.891
1461.19	423.548
1463.75	437.482
1466.31	431.21
1468.87	430.644
1471.43	438.906
1473.99	427.854
1476.55	446.065
1479.1	439.921
1481.66	428.321
1484.22	418.672
1486.78	416.306
1489.34	431.217
1491.9	435.368
1494.46	427.363
1497.01	433.598
1499.57	435.84
1502.13	417.226
1504.69	425.191
1507.25	428.14
1509.81	426.494
1512.37	413.225
1514.93	413.978
1517.48	425.698
1520.04	438.436
1522.6	433.377
1525.16	432.934
1527.72	436.955
1530.28	442.611
1532.84	442.262
1535.39	438.864
1537.95	452.071
1540.51	464.612
1543.07	456.411
1545.63	458.301
1548.19	470.008
1550.75	476.741
1553.3	494.038
1555.86	488.339
1558.42	514.861
1560.98	526.222
1563.54	552.235
1566.1	549.25
1568.66	570.445
1571.22	590.312
1573.77	610.26
1576.33	627.341
1578.89	629.257
1581.45	651.908
1584.01	669.285
1586.57	672.459
1589.13	684.467
1591.68	695.775
1594.24	709.501
1596.8	720.466
1599.36	716.42
1601.92	726.067
1604.48	728.267
1607.04	698.194
1609.59	679.614
1612.15	680.566
1614.71	673.062
1617.27	645.184
1619.83	602.042
1622.39	586.465
1624.95	568.834
1627.51	530.275
1630.06	496.729
1632.62	472.38
1635.18	445.704
1637.74	424.967
1640.3	404.044
1642.86	379.065
1645.42	362.621
1647.97	350.832
1650.53	342.883
1653.09	336.07
1655.65	314.802
1658.21	307.432
1660.77	303.168
1663.33	291.952
1665.88	277.533
1668.44	258.42
1671	265.713
1673.56	256.219
1676.12	250.809
1678.68	236.2
1681.24	233.922
1683.8	230.325
1686.35	230.363
1688.91	222.398
1691.47	214.173
1694.03	206.402
1696.59	203
1699.15	201.49
1701.71	197.687
1704.26	193.801
1706.82	192.2
1709.38	188.412
1711.94	180.59
1714.5	177.13
1717.06	178.268
1719.62	180.96
1722.17	182.953
1724.73	183.64
1727.29	180.127
1729.85	175.061
1732.41	180.724
1734.97	174.141
1737.53	183.233
1740.09	166.97
1742.64	169.866
1745.2	159.435
1747.76	164.153
1750.32	160.13
1752.88	170.747
1755.44	162.868
1758	169.07
1760.55	165.495
1763.11	160.108
1765.67	167.316
1768.23	158.83
1770.79	155.044
1773.35	164.422
1775.91	165.697
1778.46	157.554
1781.02	154.343
1783.58	157.075
1786.14	156.935
1788.7	157.001
1791.26	158.06
1793.82	159.567
1796.38	159.401
1798.93	151.113
1801.49	156.926
1804.05	154.303
1806.61	150.545
1809.17	158.154
1811.73	152.168
1814.29	150.062
1816.84	153.254
1819.4	151.329
1821.96	149.157
1824.52	145.356
1827.08	150
1829.64	149.742
1832.2	145.956
1834.75	145.195
1837.31	153.419
1839.87	159.888
1842.43	153.256
1844.99	150.356
1847.55	148.35
1850.11	147.294
1852.67	151.107
1855.22	151.6
1857.78	158.591
1860.34	154.622
1862.9	150.656
1865.46	146.473
1868.02	147.17
1870.58	157.285
1873.13	152.518
1875.69	154.13
1878.25	151.409
1880.81	152.347
1883.37	150.627
1885.93	144.512
1888.49	149.515
1891.04	153.852
1893.6	153.434
1896.16	147.122
1898.72	143.723
1901.28	144.04
1903.84	141.376
1906.4	146.322
1908.96	145.97
1911.51	143.686
1914.07	147.267
1916.63	146.545
1919.19	146.075
1921.75	151.091
1924.31	152.283
1926.87	148.616
1929.42	146.319
1931.98	149.234
1934.54	148.313
1937.1	147.051
1939.66	150.273
1942.22	149.184
1944.78	145.467
1947.33	144.236
1949.89	153.024
1952.45	155.325
1955.01	154.9
1957.57	152.312
1960.13	148.818
1962.69	147.629
1965.25	146.219
1967.8	148.711
1970.36	146.818
1972.92	147.265
1975.48	143.914
1978.04	145.797
1980.6	149.414
1983.16	144.763
1985.71	145.593
1988.27	144.532
1990.83	151.213
1993.39	151.672
1995.95	153.416
1998.51	150.673
2001.07	150.487
2003.62	152.791
2006.18	151.889
2008.74	151.967
2011.3	147.848
2013.86	147.16
2016.42	155.459
2018.98	153.691
2021.54	155.634
2024.09	151.72
2026.65	151.304
2029.21	153.507
2031.77	156.238
2034.33	153.736
2036.89	147.942
2039.45	151.401
2042	148.728
2044.56	147.602
2047.12	145.823
2049.68	144.98
2052.24	151.997
2054.8	151.617
2057.36	150.533
2059.91	151.948
2062.47	152.914
2065.03	150.68
2067.59	147.869
2070.15	151.522
2072.71	156.634
2075.27	153.846
2077.83	152.06
2080.38	150.622
2082.94	154.982
2085.5	159.534
2088.06	159.7
2090.62	157.81
2093.18	148.987
2095.74	147.421
2098.29	153.264
2100.85	156.863
2103.41	156.643
2105.97	150.481
2108.53	148.899
2111.09	143.96
2113.65	153.034
2116.2	152.464
2118.76	158.837
2121.32	154.228
2123.88	154.85
2126.44	159.962
2129	155.21
2131.56	157.173
2134.12	155.358
2136.67	162.035
2139.23	162.304
2141.79	153.854
2144.35	153.06
2146.91	154.216
2149.47	151.972
2152.03	156.826
2154.58	150.566
2157.14	160.463
2159.7	161.237
2162.26	153.858
2164.82	157.669
2167.38	166.673
2169.94	153.82
2172.49	164.163
2175.05	161.581
2177.61	158.144
2180.17	159.896
2182.73	158.573
2185.29	156.745
2187.85	161.212
2190.41	162.777
2192.96	161.763
2195.52	161.109
2198.08	166.495
2200.64	168.175
2203.2	163.463
2205.76	161.02
2208.32	162.685
2210.87	163.33
2213.43	167.866
2215.99	160.505
2218.55	164.562
2221.11	170.549
2223.67	160.483
2226.23	167.167
2228.78	166.741
2231.34	162.613
2233.9	162.579
2236.46	163.944
2239.02	168.651
2241.58	163.405
2244.14	169.871
2246.7	169.578
2249.25	166.943
2251.81	170.716
2254.37	172.443
2256.93	167.058
2259.49	175.453
2262.05	181.821
2264.61	176.21
2267.16	177.378
2269.72	178.975
2272.28	170.227
2274.84	170.406
2277.4	174.712
2279.96	176.361
2282.52	176.236
2285.07	174.658
2287.63	179.624
2290.19	175.971
2292.75	176.096
2295.31	179.215
2297.87	176.07
2300.43	172.374
2302.99	174.26
2305.54	178.71
2308.1	180.389
2310.66	184.486
2313.22	186.032
2315.78	179.613
2318.34	178.833
2320.9	178.187
2323.45	180.335
2326.01	185.866
2328.57	179.906
2331.13	182.974
2333.69	195.153
2336.25	205.377
2338.81	200.6
2341.36	188.544
2343.92	183.89
2346.48	182.568
2349.04	185.749
2351.6	189.496
2354.16	184.979
2356.72	186.724
2359.28	186.673
2361.83	183.04
2364.39	188.216
2366.95	194.011
2369.51	190.929
2372.07	189.77
2374.63	187.603
2377.19	193.005
2379.74	194.799
2382.3	197.375
2384.86	198.496
2387.42	191.532
2389.98	189.738
2392.54	199.198
2395.1	194.589
2397.65	198.938
2400.21	198.168
2402.77	193.252
2405.33	200.577
2407.89	200.22
2410.45	204.521
2413.01	211.021
2415.56	213.873
2418.12	208.847
2420.68	211.341
2423.24	219.758
2425.8	215.488
2428.36	221.866
2430.92	215.596
2433.48	227.591
2436.03	236.594
2438.59	244.689
2441.15	244.404
2443.71	253.034
2446.27	251.589
2448.83	247.745
2451.39	241.056
2453.94	236.934
2456.5	235.12
2459.06	234.648
2461.62	235.803
2464.18	230.178
2466.74	225.938
2469.3	226.593
2471.85	225.545
2474.41	224.637
2476.97	220.926
2479.53	228.377
2482.09	225.906
2484.65	225.731
2487.21	216.316
2489.77	220.762
2492.32	225.905
2494.88	225.428
2497.44	232.099
2500	229.246
2502.56	227.729
2505.12	229.047
2507.68	227.699
2510.23	229.563
2512.79	239.941
2515.35	234.986
2517.91	232.618
2520.47	237.941
2523.03	240.139
2525.59	240.053
2528.15	240.336
2530.7	237.466
2533.26	233.974
2535.82	239.11
2538.38	243.159
2540.94	245.59
2543.5	243.711
2546.06	249.159
2548.61	245.661
2551.17	239.992
2553.73	242.228
2556.29	247.657
2558.85	251.396
2561.41	253.586
2563.97	250.032
2566.52	244.838
2569.08	250.059
2571.64	251.343
2574.2	255.159
2576.76	251.121
2579.32	254.233
2581.88	255.304
2584.44	256.358
2586.99	254.508
2589.55	254.559
2592.11	255.065
2594.67	261.259
2597.23	264.463
2599.79	271.788
2602.35	257.071
2604.9	265.593
2607.46	259.783
2610.02	258.989
2612.58	261.884
2615.14	264.184
2617.7	268.182
2620.26	269.702
2622.81	270.33
2625.37	266.935
2627.93	270.966
2630.49	262.703
2633.05	276.848
2635.61	273.017
2638.17	271.914
2640.72	275.04
2643.28	267.639
2645.84	268.626
2648.4	267.104
2650.96	272.72
2653.52	275.71
2656.08	275.192
2658.64	268.871
2661.19	282.944
2663.75	279.947
2666.31	282.493
2668.87	282.907
2671.43	284.183
2673.99	289.327
2676.55	290.595
2679.1	283.074
2681.66	293.303
2684.22	292.426
2686.78	291.349
2689.34	293.409
2691.9	302.905
2694.46	292.221
2697.01	292.221
2699.57	295.411
2702.13	287.068
2704.69	289.299
2707.25	296.448
2709.81	295.021
2712.37	288.781
2714.93	293.226
2717.48	298.813
2720.04	286.431
2722.6	293.093
2725.16	306.743
2727.72	297.649
2730.28	298.075
2732.84	297.868
2735.39	297.741
2737.95	289.614
2740.51	296.526
2743.07	294.428
2745.63	296.42
2748.19	289.715
2750.75	299.132
2753.3	293.478
2755.86	308.802
2758.42	304.493
2760.98	301.114
2763.54	300.432
2766.1	301.101
2768.66	302.542
2771.22	296.782
2773.77	296.613
2776.33	304.528
2778.89	301.068
2781.45	297.172
2784.01	303.533
2786.57	298.002
2789.13	296.794
2791.68	302.677
2794.24	305.297
2796.8	303.499
2799.36	310.514
2801.92	313.185
2804.48	321.089
2807.04	321.343
2809.59	318.794
2812.15	310.755
2814.71	306.6875
2817.27	319.054
2819.83	304.512
2822.39	313.022
2824.95	308.04
2827.51	301.353
2830.06	320.62
2832.62	319.288
2835.18	319.13
2837.74	321.134
2840.3	322.809
2842.86	311.671
2845.42	311.796
2847.97	312.072
2850.53	319.977
2853.09	322.825
2855.65	318.292
2858.21	326.369
2860.77	316.514
2863.33	316.34
2865.88	324.514
2868.44	327.346
2871	337.117
2873.56	316.75
2876.12	321.771
2878.68	336.475
2881.24	336.637
2883.8	337.687
2886.35	340.898
2888.91	332.525
2891.47	333.152
2894.03	331.998
2896.59	329.661
2899.15	334.256
2901.71	340.326
2904.26	330.652
2906.82	340.25
2909.38	348.133
2911.94	328.125
2914.5	347.582
2917.06	339.52
2919.62	337.827
2922.17	345.448
2924.73	344.659
2927.29	350.402
2929.85	346.565
2932.41	338.332
2934.97	354.555
2937.53	340.905
2940.09	353.747
2942.64	341.519
2945.2	353.832
2947.76	356.01
2950.32	351.585
2952.88	347.124
2955.44	340.752
2958	346.791
2960.55	353.423
2963.11	353.795
2965.67	342.877
2968.23	346.297
2970.79	348.983
2973.35	337.42
2975.91	350.678
2978.46	335.96
2981.02	328.834
2983.58	329.612
2986.14	343.818
2988.7	331.389
2991.26	325.564
2993.82	335.705
2996.38	331.748
2998.93	348.488
3001.49	322.346
3004.05	328.151
3006.61	326.525
3009.17	325.617
3011.73	333.135
3014.29	333.236
3016.84	338.314
3019.4	334.155
3021.96	336.138
3024.52	343.822
3027.08	334.238
3029.64	334.428
3032.2	330.477
3034.75	346.725
3037.31	322.438
3039.87	328.548
3042.43	330.892
3044.99	331.476
3047.55	334.759
3050.11	331.044
3052.67	333.887
3055.22	328.565
3057.78	352.018
3060.34	341.167
3062.9	330.34
3065.46	331.336
3068.02	335.998
3070.58	340.372
3073.13	313.702
3075.69	337.343
3078.25	334.605
3080.81	339.916
3083.37	338.178
3085.93	328.931
3088.49	326.824
3091.04	339.31
3093.6	341.013
3096.16	332.932
3098.72	331.346
3101.28	344.431
3103.84	337.057
3106.4	313.557
3108.96	350.639
3111.51	338.076
3114.07	344.003
3116.63	341.296
3119.19	339.728
3121.75	337.512
3124.31	332.81
3126.87	340.491
3129.42	339.857
3131.98	331.179
3134.54	328.655
3137.1	337.045
3139.66	341.942
3142.22	335.977
3144.78	340.561
3147.33	334.324
3149.89	336.547
3152.45	341.756
3155.01	341.298
3157.57	345.315
3160.13	337.148
3162.69	344.307
3165.25	347.055
3167.8	341.921
3170.36	338.514
3172.92	345.079
3175.48	358.936
3178.04	339.262
3180.6	344.895
3183.16	347.78
3185.71	340.788
3188.27	328.182
3190.83	346.272
3193.39	348.364
3195.95	348.798
3198.51	351.594
3201.07	352.2
3203.62	352.742
3206.18	340.032
3208.74	349.805
3211.3	347.392
3213.86	357.351
3216.42	364.112
3218.98	364.424
3221.54	360.585
3224.09	357.561
3226.65	356.891
3229.21	355.208
3231.77	350.418
3234.33	352.969
3236.89	332.796
3239.45	352.746
3242	350.672
3244.56	349.826
3247.12	349.323
3249.68	347.999
3252.24	347.446
3254.8	340.884
3257.36	346.678
3259.91	347.414
3262.47	349.192
3265.03	338.857
3267.59	347.851
3270.15	349.219
3272.71	346.116
3275.27	347.269
3277.83	339.636
3280.38	351.502
3282.94	340.657
3285.5	335.393
3288.06	336.162
3290.62	343.149
3293.18	337.913
3295.74	352.04
3298.29	356.885
3300.85	351.25
3303.41	348.934
3305.97	344.423
3308.53	344.126
3311.09	344.122
3313.65	344.529
3316.2	348.617
3318.76	343.156
3321.32	350.126
3323.88	338.86
3326.44	349.77
3329	349.56
3331.56	353.929
3334.12	359.785
3336.67	358.354
3339.23	343.472
3341.79	347.041
3344.35	351.319
3346.91	341.43
3349.47	352.017
3352.03	348.487
3354.58	358.115
3357.14	360.448
3359.7	351.499
3362.26	355.082
3364.82	349.493
3367.38	352.461
3369.94	353.033
3372.49	367.402
3375.05	343.431
3377.61	364.236
3380.17	362.475
3382.73	362.571
3385.29	351.078
3387.85	358.024
3390.41	351.793
3392.96	367.229
3395.52	365.527
3398.08	366.051
3400.64	369.57
3403.2	360.762
3405.76	362.212
3408.32	367.125
3410.87	360.39
3413.43	365.354
3415.99	366.803
3418.55	373.662
3421.11	380.948
3423.67	369.863
3426.23	364.349
3428.78	376.575
3431.34	373.489
3433.9	384.62
3436.46	376.927
3439.02	365.041
3441.58	372.374
3444.14	374.056
3446.7	376.578
3449.25	378.719
3451.81	386.951
3454.37	370.942
3456.93	369.367
3459.49	375.933
3462.05	371.626
3464.61	380.768
3467.16	380.56
3469.72	379.099
3472.28	378.402
3474.84	385.339
3477.4	389.227
3479.96	372.713
3482.52	382.44
3485.07	385.152
3487.63	371.052
3490.19	382.132
3492.75	373.984
3495.31	381.432
3497.87	388.82
3500.43	389.226
3502.99	379.071
3505.54	390.908
3508.1	396.541
3510.66	396.858
3513.22	388.038
3515.78	376.672
3518.34	389.115
3520.9	395.794
3523.45	388.836
3526.01	391.31
3528.57	382.748
3531.13	393.021
3533.69	387.884
3536.25	399.985
3538.81	406.947
3541.36	396.698
3543.92	406.523
3546.48	391.243
3549.04	394.655
3551.6	406.121
3554.16	398.6
3556.72	408.353
3559.28	409.706
3561.83	426.227
3564.39	411.658
3566.95	407.43
3569.51	410.26
3572.07	397.488
3574.63	412.687
3577.19	411.293
3579.74	416.064
3582.3	414.865
3584.86	419.193
3587.42	417.307
3589.98	413.944
3592.54	415.755
3595.1	400.538
3597.65	415.237
3600.21	420.929
3602.77	423.673
3605.33	412.614
3607.89	424.785
3610.45	419.164
3613.01	423.773
3615.56	417.501
3618.12	427.739
3620.68	427.38
3623.24	422.071
3625.8	413.64
3628.36	428.755
3630.92	434.183
3633.48	414.143
3636.03	410.613
3638.59	431.44
3641.15	423.414
3643.71	429.637
3646.27	434.0625
3648.83	426.445
3651.39	438.354
3653.94	433.046
3656.5	439.741
3659.06	416.27
3661.62	440.999
3664.18	440.426
3666.74	438.578
3669.3	426.152
3671.85	440.364
3674.41	443.21
3676.97	435.509
3679.53	439.965
3682.09	436.836
3684.65	437.249
3687.21	437.391
3689.77	436.841
3692.32	436.695
3694.88	444.664
3697.44	453.406
3700	443.731