File: Example Data/Raman/Kara/12-20-10/C-Si-Graphene/1 bulk/CSGbulk1_5.txt
100	335.476
102.559	342.599
105.117	357.074
107.676	373.377
110.235	382.167
112.793	410.627
115.352	427.614
117.91	432.734
120.469	449.827
123.028	474.474
125.586	495.686
128.145	500.916
130.704	502.94
133.262	533.101
135.821	528.453
138.38	542.786
140.938	550.595
143.497	550.195
146.055	555.546
148.614	529.707
151.173	519.27
153.731	522.666
156.29	525.131
158.849	506.104
161.407	488.736
163.966	490.465
166.525	478.421
169.083	468.433
171.642	490.174
174.2	479.553
176.759	469.596
179.318	456.427
181.876	443.74
184.435	437.638
186.994	443.443
189.552	433.968
192.111	428.179
194.67	430.383
197.228	432.863
199.787	397.363
202.345	407.442
204.904	403.51
207.463	401.744
210.021	411.841
212.58	411.032
215.139	402.622
217.697	408.968
220.256	413.231
222.814	412.637
225.373	422.561
227.932	445.706
230.49	441.828
233.049	448.625
235.608	467.235
238.166	478.792
240.725	496.632
243.284	500.908
245.842	502.892
248.401	507.281
250.959	512.527
253.518	501.159
256.077	517.01
258.635	535.261
261.194	545.938
263.753	548.765
266.311	555.758
268.87	561.945
271.429	570.248
273.987	590.906
276.546	607.687
279.104	595.279
281.663	608.8
284.222	617.604
286.78	625.183
289.339	635.764
291.898	653.133
294.456	679.578
297.015	687.176
299.574	684.648
302.132	682.328
304.691	684.55
307.249	687.226
309.808	657.977
312.367	652.262
314.925	639.642
317.484	626.8
320.043	623.388
322.601	601.284
325.16	603.465
327.719	590.388
330.277	577.47
332.836	574.812
335.394	578.684
337.953	556.065
340.512	545.399
343.07	550.505
345.629	552.771
348.188	540.113
350.746	540.77
353.305	539.703
355.864	521.125
358.422	521.49
360.981	530.647
363.539	509.263
366.098	519.298
368.657	510.003
371.215	503.969
373.774	502.545
376.333	503.355
378.891	505.745
381.45	500.471
384.009	487.316
386.567	481.289
389.126	486.977
391.684	497.746
394.243	488.505
396.802	480.978
399.36	472.095
401.919	474.676
404.478	480.808
407.036	472.687
409.595	483.431
412.154	495.356
414.712	490.069
417.271	492.384
419.829	504.462
422.388	495.826
424.947	503.442
427.505	501.089
430.064	505.329
432.623	515.641
435.181	526.39
437.74	532.442
440.298	534.432
442.857	517.495
445.416	519.009
447.974	536.994
450.533	556.394
453.092	570.343
455.65	569.076
458.209	589.484
460.768	620.673
463.326	650.867
465.885	674.963
468.444	704.073
471.002	740.406
473.561	761.786
476.119	804.712
478.678	856.066
481.237	896.733
483.795	965.928
486.354	1050.44
488.913	1138.07
491.471	1247.14
494.03	1355.27
496.589	1452.6
499.147	1616.44
501.706	1806.52
504.264	2076.34
506.823	2422.45
509.382	2806.82
511.94	3131.3
514.499	3212.01
517.058	2913.13
519.616	2478.7
522.175	1994.5
524.733	1558.37
527.292	1218.01
529.851	927.161
532.409	732.377
534.968	593.597
537.527	507.832
540.085	444.495
542.644	388.59
545.203	356.723
547.761	329.689
550.32	313.86
552.878	302.583
555.437	284.394
557.996	267.344
560.554	270.268
563.113	262.358
565.672	261.018
568.23	258.556
570.789	253.573
573.348	247.988
575.906	243.995
578.465	239.443
581.023	252.922
583.582	250.722
586.141	253.818
588.699	257.633
591.258	253.602
593.817	247.081
596.375	264.649
598.934	265.615
601.493	271.058
604.051	273.39
606.61	269.233
609.168	264.843
611.727	266.534
614.286	266.275
616.844	258.682
619.403	259.253
621.962	261.059
624.52	256.4
627.079	256.231
629.638	253.179
632.196	247.602
634.755	246.744
637.313	247.137
639.872	245.307
642.431	243.558
644.989	255.785
647.548	249.663
650.107	244.573
652.665	240.88
655.224	235.29
657.783	230.542
660.341	234.826
662.9	226.999
665.458	227.658
668.017	235.52
670.576	237.552
673.134	231.113
675.693	224.278
678.252	228.164
680.81	216.059
683.369	215.05
685.927	216.165
688.486	212.421
691.045	205.466
693.603	201.567
696.162	201.263
698.721	194.425
701.279	211.561
703.838	207.243
706.397	199.113
708.955	199.699
711.514	201.577
714.073	202.599
716.631	202.428
719.19	200.254
721.748	195.512
724.307	196.626
726.866	201.087
729.424	199.114
731.983	201.001
734.542	207.695
737.1	217.681
739.659	211.431
742.217	203.507
744.776	202.425
747.335	203.754
749.893	213.673
752.452	219.517
755.011	218.502
757.569	209.416
760.128	211.892
762.687	225.049
765.245	229.7
767.804	219.694
770.362	222.106
772.921	218.619
775.48	228.155
778.038	228.17
780.597	221.892
783.156	224.628
785.714	228.449
788.273	226.55
790.832	241.831
793.39	229.98
795.949	223.788
798.507	226.452
801.066	228.052
803.625	229.686
806.183	236.26
808.742	240.126
811.301	236.527
813.859	237.227
816.418	234.117
818.977	228.992
821.535	232.083
824.094	236.226
826.652	236.746
829.211	245.358
831.77	248.187
834.328	251.378
836.887	256.872
839.446	257.401
842.004	245.313
844.563	240.272
847.122	245.339
849.68	241.265
852.239	238.924
854.797	248.003
857.356	256.451
859.915	251.305
862.473	250.213
865.032	259.448
867.591	255.906
870.149	259.971
872.708	264.112
875.267	266.295
877.825	265.116
880.384	264.306
882.942	281.71
885.501	273.507
888.06	281.74
890.618	293.004
893.177	292.268
895.736	295.977
898.294	308.235
900.853	311.605
903.411	314.341
905.97	329.22
908.529	343.944
911.087	346.06
913.646	350.642
916.205	360.405
918.763	369.055
921.322	373.228
923.881	378.948
926.439	378.07
928.998	387.685
931.557	386.576
934.115	390.516
936.674	399.387
939.232	400.724
941.791	389.29
944.35	381.335
946.908	378.346
949.467	393.26
952.026	362.65
954.584	364.685
957.143	365.453
959.701	348.698
962.26	334.769
964.819	327.073
967.377	331.975
969.936	316.979
972.495	316.225
975.053	300.532
977.612	282.253
980.171	274.048
982.729	268.354
985.288	255.795
987.846	263.304
990.405	253.585
992.964	242.693
995.522	235.589
998.081	229.398
1000.64	219.807
1003.2	216.825
1005.76	221.848
1008.32	215.174
1010.87	212.208
1013.43	199.62
1015.99	200.642
1018.55	199.137
1021.11	196.59
1023.67	195.492
1026.23	196.09
1028.78	195.906
1031.34	193.132
1033.9	198.072
1036.46	190.251
1039.02	189.242
1041.58	190.972
1044.14	191.8
1046.7	190.51
1049.25	191.245
1051.81	194.34
1054.37	189.422
1056.93	179.258
1059.49	189.594
1062.05	189.473
1064.61	187.946
1067.16	184.222
1069.72	183.924
1072.28	190.408
1074.84	193.542
1077.4	183.072
1079.96	189.526
1082.52	184.881
1085.07	181.242
1087.63	185.004
1090.19	185.846
1092.75	185.818
1095.31	189.544
1097.87	192.76
1100.43	189.642
1102.99	190.889
1105.54	200.199
1108.1	198.047
1110.66	199.07
1113.22	201.747
1115.78	203.035
1118.34	212.025
1120.9	212.75
1123.45	199.473
1126.01	201.414
1128.57	203.001
1131.13	210.012
1133.69	214.925
1136.25	212.193
1138.81	217.132
1141.36	219.77
1143.92	218.747
1146.48	222.819
1149.04	231.585
1151.6	232.353
1154.16	231.123
1156.72	230.221
1159.28	240.766
1161.83	243.765
1164.39	250.774
1166.95	255.092
1169.51	256.785
1172.07	251.457
1174.63	246.338
1177.19	256.199
1179.74	256.523
1182.3	272.947
1184.86	267.701
1187.42	267.2
1189.98	266.476
1192.54	272.237
1195.1	283.499
1197.65	286.411
1200.21	282.294
1202.77	286.488
1205.33	293.081
1207.89	282.946
1210.45	282.221
1213.01	299.487
1215.57	304.958
1218.12	303.427
1220.68	303.37
1223.24	312.241
1225.8	326.189
1228.36	334.333
1230.92	329.911
1233.48	318.565
1236.03	324
1238.59	341.288
1241.15	328.013
1243.71	349.568
1246.27	344.584
1248.83	346.671
1251.39	360.65
1253.94	364.454
1256.5	362.023
1259.06	371.399
1261.62	379.902
1264.18	388.656
1266.74	389.252
1269.3	397.11
1271.85	395.632
1274.41	390.71
1276.97	398.615
1279.53	411.721
1282.09	421.841
1284.65	422.488
1287.21	422.525
1289.77	436.418
1292.32	445.037
1294.88	437.772
1297.44	452.438
1300	455.32
1302.56	464.01
1305.12	470.104
1307.68	479.258
1310.23	499.626
1312.79	504.146
1315.35	508.076
1317.91	523.932
1320.47	528.285
1323.03	542.914
1325.59	543.461
1328.15	534.879
1330.7	565.631
1333.26	572.762
1335.82	586.493
1338.38	587.128
1340.94	587.04
1343.5	589.752
1346.06	587.591
1348.61	588.926
1351.17	603.878
1353.73	611.56
1356.29	591.698
1358.85	583.788
1361.41	611.333
1363.97	594.142
1366.52	587.174
1369.08	584.178
1371.64	569.542
1374.2	567.118
1376.76	567.317
1379.32	553.808
1381.88	547.375
1384.43	544.631
1386.99	523.383
1389.55	529.831
1392.11	510.552
1394.67	489.349
1397.23	510.317
1399.79	515.31
1402.35	496.289
1404.9	482.984
1407.46	486.574
1410.02	484.073
1412.58	474.073
1415.14	461.681
1417.7	453.192
1420.26	444.835
1422.81	437.237
1425.37	448.67
1427.93	422.944
1430.49	439.47
1433.05	428.097
1435.61	422.083
1438.17	404.978
1440.72	405.675
1443.28	407.757
1445.84	406.492
1448.4	401.584
1450.96	394.182
1453.52	389.541
1456.08	393.254
1458.64	392.959
1461.19	380.11
1463.75	385.197
1466.31	396.019
1468.87	411.938
1471.43	385.192
1473.99	384.255
1476.55	389.489
1479.1	387.58
1481.66	382.614
1484.22	379.811
1486.78	386.033
1489.34	386.46
1491.9	385.84
1494.46	387.89
1497.01	387.456
1499.57	384.239
1502.13	378.864
1504.69	376.11
1507.25	372.331
1509.81	379.319
1512.37	384.452
1514.93	379.935
1517.48	380.531
1520.04	380.771
1522.6	393.09
1525.16	379.159
1527.72	389.196
1530.28	400.862
1532.84	400.206
1535.39	394.921
1537.95	397.695
1540.51	409.995
1543.07	414.156
1545.63	404.339
1548.19	405.552
1550.75	422.889
1553.3	431.761
1555.86	430.562
1558.42	452.636
1560.98	471.57
1563.54	476.961
1566.1	500.353
1568.66	490.222
1571.22	518.244
1573.77	533.993
1576.33	549.368
1578.89	557.77
1581.45	569.197
1584.01	593.986
1586.57	609.386
1589.13	612.423
1591.68	623.763
1594.24	639.301
1596.8	651.485
1599.36	647.32
1601.92	639.497
1604.48	628.505
1607.04	631.304
1609.59	635.717
1612.15	615.907
1614.71	615.2
1617.27	588.856
1619.83	561.538
1622.39	543.647
1624.95	514.741
1627.51	491.824
1630.06	470.277
1632.62	441.788
1635.18	424.63
1637.74	400.081
1640.3	371.849
1642.86	351.876
1645.42	331.242
1647.97	323.809
1650.53	322.512
1653.09	307.116
1655.65	285.134
1658.21	282.588
1660.77	264.429
1663.33	268.041
1665.88	244.747
1668.44	247.998
1671	247.23
1673.56	236.681
1676.12	229.443
1678.68	225.058
1681.24	223.918
1683.8	210.324
1686.35	211.872
1688.91	209.868
1691.47	203.833
1694.03	199.023
1696.59	197.515
1699.15	189.941
1701.71	188.025
1704.26	192.227
1706.82	189.735
1709.38	185.737
1711.94	185.882
1714.5	182.924
1717.06	173.224
1719.62	182.989
1722.17	181.112
1724.73	180.389
1727.29	176.087
1729.85	162.726
1732.41	166.427
1734.97	165.141
1737.53	174.534
1740.09	171.63
1742.64	155.695
1745.2	160.746
1747.76	162.633
1750.32	160.897
1752.88	163.437
1755.44	156.281
1758	156.568
1760.55	155.264
1763.11	152.596
1765.67	161.14
1768.23	165.532
1770.79	164.341
1773.35	158.787
1775.91	154.452
1778.46	154.365
1781.02	158.948
1783.58	159.249
1786.14	155.24
1788.7	156.625
1791.26	154.476
1793.82	149.2
1796.38	154.745
1798.93	159.448
1801.49	155.567
1804.05	150.146
1806.61	149.689
1809.17	158.773
1811.73	151.8
1814.29	152.113
1816.84	151.706
1819.4	144.654
1821.96	150.703
1824.52	151.143
1827.08	148.709
1829.64	145.922
1832.2	150.504
1834.75	148.59
1837.31	156.589
1839.87	152.864
1842.43	150.68
1844.99	148.145
1847.55	148.925
1850.11	162.233
1852.67	149.748
1855.22	149.218
1857.78	156.732
1860.34	152.655
1862.9	149.964
1865.46	149.44
1868.02	150.656
1870.58	155.919
1873.13	159.207
1875.69	152.425
1878.25	148.788
1880.81	153.636
1883.37	151.918
1885.93	151.829
1888.49	147.413
1891.04	150.796
1893.6	152.213
1896.16	150.45
1898.72	148.161
1901.28	149.882
1903.84	153.683
1906.4	152.923
1908.96	148.346
1911.51	146.887
1914.07	149.776
1916.63	151.493
1919.19	150.877
1921.75	151.735
1924.31	152.597
1926.87	151.012
1929.42	149.995
1931.98	152.113
1934.54	151.85
1937.1	149.385
1939.66	149.236
1942.22	150.231
1944.78	154.819
1947.33	156.837
1949.89	153.517
1952.45	154.838
1955.01	154.585
1957.57	146.838
1960.13	151.502
1962.69	153.409
1965.25	145.092
1967.8	149.494
1970.36	142.716
1972.92	139.324
1975.48	145.208
1978.04	144.237
1980.6	145.399
1983.16	144.756
1985.71	144.349
1988.27	150.762
1990.83	154.867
1993.39	153.68
1995.95	152.321
1998.51	154.253
2001.07	149.979
2003.62	157.423
2006.18	154.184
2008.74	151.943
2011.3	153.851
2013.86	151.56
2016.42	153.717
2018.98	158.683
2021.54	155.812
2024.09	149.718
2026.65	154.035
2029.21	159.429
2031.77	161.113
2034.33	158.264
2036.89	156.533
2039.45	155.01
2042	157.007
2044.56	155.559
2047.12	159.841
2049.68	166.881
2052.24	158.283
2054.8	157.696
2057.36	163.14
2059.91	159.267
2062.47	158.924
2065.03	160.214
2067.59	163.489
2070.15	156.384
2072.71	157.561
2075.27	158.716
2077.83	157.731
2080.38	161.267
2082.94	158.335
2085.5	160.935
2088.06	158.378
2090.62	157.742
2093.18	155.615
2095.74	156.129
2098.29	160.928
2100.85	161.148
2103.41	157.054
2105.97	154.54
2108.53	157.23
2111.09	155.851
2113.65	159.708
2116.2	160.9
2118.76	164.853
2121.32	163.538
2123.88	161.991
2126.44	165.205
2129	159.087
2131.56	157.237
2134.12	157.359
2136.67	163.093
2139.23	164.182
2141.79	160.965
2144.35	164.611
2146.91	168.927
2149.47	170.204
2152.03	160.991
2154.58	168.881
2157.14	173.816
2159.7	158.128
2162.26	160.89
2164.82	168.146
2167.38	166.364
2169.94	170.035
2172.49	171.185
2175.05	163.255
2177.61	161.285
2180.17	166.745
2182.73	165.51
2185.29	165.925
2187.85	165.53
2190.41	168.05
2192.96	172.09
2195.52	172.826
2198.08	165.856
2200.64	161.358
2203.2	164.693
2205.76	163.816
2208.32	164.396
2210.87	170.526
2213.43	167.907
2215.99	171.501
2218.55	170.084
2221.11	169.011
2223.67	172.684
2226.23	171.976
2228.78	167.196
2231.34	167.347
2233.9	169.989
2236.46	167.176
2239.02	167.594
2241.58	168.214
2244.14	173.119
2246.7	177.892
2249.25	179.458
2251.81	175.162
2254.37	183.475
2256.93	177.175
2259.49	174.145
2262.05	178.491
2264.61	183.299
2267.16	174.839
2269.72	178.439
2272.28	176.217
2274.84	175.78
2277.4	181.224
2279.96	183.353
2282.52	179.806
2285.07	177.74
2287.63	177.483
2290.19	181.838
2292.75	182.517
2295.31	185.094
2297.87	186.836
2300.43	182.886
2302.99	188.145
2305.54	192.138
2308.1	182.569
2310.66	183.885
2313.22	178.383
2315.78	185.814
2318.34	193.273
2320.9	183.823
2323.45	192.309
2326.01	184.517
2328.57	190.608
2331.13	193.639
2333.69	201.347
2336.25	210.196
2338.81	200.899
2341.36	191.033
2343.92	188.632
2346.48	190.535
2349.04	191.733
2351.6	192.245
2354.16	194.888
2356.72	187.3
2359.28	185.599
2361.83	192.684
2364.39	198.162
2366.95	201.821
2369.51	193.836
2372.07	195.741
2374.63	195.762
2377.19	200.429
2379.74	199.285
2382.3	204.459
2384.86	194.229
2387.42	193.824
2389.98	203.666
2392.54	197.865
2395.1	203.678
2397.65	208.697
2400.21	204.387
2402.77	201.869
2405.33	208.117
2407.89	212.844
2410.45	213.461
2413.01	214.835
2415.56	203.779
2418.12	206.602
2420.68	212.346
2423.24	213.659
2425.8	215.041
2428.36	226.719
2430.92	224.727
2433.48	228.855
2436.03	242.926
2438.59	255.856
2441.15	252.474
2443.71	253.764
2446.27	251.14
2448.83	246.18
2451.39	243.114
2453.94	237.258
2456.5	238.003
2459.06	234.379
2461.62	238.951
2464.18	229.549
2466.74	235.031
2469.3	229.954
2471.85	229.533
2474.41	234.01
2476.97	231.35
2479.53	221.883
2482.09	228.711
2484.65	225.756
2487.21	230.652
2489.77	233.519
2492.32	237.125
2494.88	233.59
2497.44	236.355
2500	233.176
2502.56	230.921
2505.12	227.603
2507.68	235.181
2510.23	234.925
2512.79	232.055
2515.35	235.645
2517.91	237.022
2520.47	237.477
2523.03	234.41
2525.59	237.976
2528.15	235.132
2530.7	246.675
2533.26	245.22
2535.82	247.861
2538.38	247.135
2540.94	247.544
2543.5	242.359
2546.06	245.58
2548.61	252.793
2551.17	251.48
2553.73	248.327
2556.29	241.431
2558.85	244.15
2561.41	254.235
2563.97	246.347
2566.52	255.332
2569.08	252.147
2571.64	252.7
2574.2	251.305
2576.76	245.381
2579.32	252.666
2581.88	247.863
2584.44	248.557
2586.99	257.567
2589.55	257.076
2592.11	255.36
2594.67	258.043
2597.23	261.818
2599.79	264.279
2602.35	252.291
2604.9	255.596
2607.46	260.164
2610.02	261.596
2612.58	262.549
2615.14	261.035
2617.7	265.296
2620.26	259.359
2622.81	261.226
2625.37	268.619
2627.93	274.495
2630.49	267.464
2633.05	261.467
2635.61	272.986
2638.17	265.944
2640.72	270.365
2643.28	275.18
2645.84	276.569
2648.4	270.591
2650.96	270.69
2653.52	268.827
2656.08	267.036
2658.64	277.649
2661.19	271.682
2663.75	277.792
2666.31	283.48
2668.87	281.823
2671.43	272.591
2673.99	272.591
2676.55	272.591
2679.1	293.425
2681.66	287.396
2684.22	285.858
2686.78	287.372
2689.34	286.174
2691.9	291.588
2694.46	290.015
2697.01	299.559
2699.57	298.958
2702.13	286.374
2704.69	299.115
2707.25	291.98
2709.81	291.44
2712.37	292.972
2714.93	293.536
2717.48	292.696
2720.04	287.345
2722.6	282.723
2725.16	291.913
2727.72	285.247
2730.28	296.267
2732.84	295.411
2735.39	300.965
2737.95	295.893
2740.51	292.913
2743.07	298.854
2745.63	292.872
2748.19	287.172
2750.75	300.581
2753.3	288.342
2755.86	307.388
2758.42	294.056
2760.98	295.359
2763.54	296.257
2766.1	296.061
2768.66	296.398
2771.22	302.54
2773.77	306.17
2776.33	300.087
2778.89	292.71
2781.45	294.468
2784.01	292.15
2786.57	298.498
2789.13	303.871
2791.68	302.175
2794.24	303.9
2796.8	308.648
2799.36	299.347
2801.92	313.26
2804.48	312.471
2807.04	301.889
2809.59	306.671
2812.15	315.831
2814.71	305.207
2817.27	313.151
2819.83	308.996
2822.39	301.77
2824.95	304.997
2827.51	322.241
2830.06	311.392
2832.62	315.174
2835.18	313.81
2837.74	312.285
2840.3	312.655
2842.86	308.356
2845.42	311.309
2847.97	328.603
2850.53	301.707
2853.09	317.003
2855.65	329.504
2858.21	319.96
2860.77	314.67
2863.33	321.375
2865.88	317.296
2868.44	314.479
2871	317.667
2873.56	316.171
2876.12	325.685
2878.68	320.151
2881.24	324.297
2883.8	324.192
2886.35	326.054
2888.91	331.894
2891.47	337.945
2894.03	334.536
2896.59	338.16
2899.15	334.372
2901.71	340.959
2904.26	335.956
2906.82	329.687
2909.38	334.926
2911.94	350.004
2914.5	339.982
2917.06	343.477
2919.62	339.378
2922.17	336.568
2924.73	333.716
2927.29	328.854
2929.85	338.149
2932.41	342.587
2934.97	345.599
2937.53	348.076
2940.09	348.345
2942.64	339.036
2945.2	337.769
2947.76	340.152
2950.32	348.546
2952.88	343.983
2955.44	349.086
2958	342.733
2960.55	341.204
2963.11	344.96
2965.67	344.666
2968.23	343.501
2970.79	347.778
2973.35	339.98
2975.91	341.521
2978.46	333.559
2981.02	336.301
2983.58	336.413
2986.14	328
2988.7	329.655
2991.26	332.193
2993.82	328.6
2996.38	326.624
2998.93	319.905
3001.49	334.222
3004.05	331.031
3006.61	327.433
3009.17	331.132
3011.73	333.533
3014.29	329.652
3016.84	336.807
3019.4	341.185
3021.96	333.863
3024.52	331.602
3027.08	341.583
3029.64	335.716
3032.2	327.024
3034.75	319.917
3037.31	330.317
3039.87	326.372
3042.43	335.274
3044.99	324.536
3047.55	332.344
3050.11	330.256
3052.67	323.415
3055.22	335.677
3057.78	333.125
3060.34	331.072
3062.9	333.261
3065.46	341.598
3068.02	333.257
3070.58	330.336
3073.13	318.651
3075.69	330.217
3078.25	336.444
3080.81	326.565
3083.37	330.777
3085.93	331.38
3088.49	342.287
3091.04	326.96
3093.6	321.063
3096.16	332.238
3098.72	336.092
3101.28	333.424
3103.84	338.823
3106.4	326.99
3108.96	321.208
3111.51	323.287
3114.07	332.249
3116.63	333.136
3119.19	331.225
3121.75	338.563
3124.31	333.254
3126.87	337.201
3129.42	333.684
3131.98	330.382
3134.54	342.555
3137.1	342.564
3139.66	329.457
3142.22	329.097
3144.78	334.73
3147.33	334.181
3149.89	330.693
3152.45	330.856
3155.01	326.204
3157.57	335.888
3160.13	340.424
3162.69	334.965
3165.25	339.827
3167.8	345.031
3170.36	341.607
3172.92	335.399
3175.48	350.091
3178.04	346.918
3180.6	347.186
3183.16	352.63
3185.71	352.766
3188.27	344.191
3190.83	352.191
3193.39	344.188
3195.95	355.354
3198.51	353.223
3201.07	345.08
3203.62	343.295
3206.18	343.969
3208.74	345.154
3211.3	353.034
3213.86	358.316
3216.42	351.534
3218.98	361.334
3221.54	347.369
3224.09	347.989
3226.65	344.351
3229.21	344.012
3231.77	342.639
3234.33	347.383
3236.89	340.255
3239.45	353.692
3242	355.973
3244.56	342.658
3247.12	348.448
3249.68	348.291
3252.24	351.553
3254.8	344.268
3257.36	350.181
3259.91	343.881
3262.47	351.757
3265.03	348.375
3267.59	343.613
3270.15	348.958
3272.71	345.562
3275.27	346.877
3277.83	349.587
3280.38	341.025
3282.94	355.197
3285.5	346.233
3288.06	345.912
3290.62	352.158
3293.18	330.809
3295.74	349.493
3298.29	349.376
3300.85	341.802
3303.41	352.022
3305.97	348.725
3308.53	345.411
3311.09	341.715
3313.65	340.668
3316.2	346.636
3318.76	357.668
3321.32	357.141
3323.88	360.042
3326.44	353.973
3329	357.938
3331.56	352.722
3334.12	355.479
3336.67	354.373
3339.23	352.469
3341.79	353.438
3344.35	354.696
3346.91	354.192
3349.47	354.759
3352.03	349.983
3354.58	351.882
3357.14	351.487
3359.7	345.512
3362.26	349.491
3364.82	345.652
3367.38	356.543
3369.94	357.357
3372.49	350.574
3375.05	365.379
3377.61	354.295
3380.17	360.213
3382.73	364.865
3385.29	363.559
3387.85	369.836
3390.41	379.118
3392.96	355.434
3395.52	346.827
3398.08	360.414
3400.64	365.713
3403.2	352.918
3405.76	369.741
3408.32	352.467
3410.87	360.575
3413.43	376.923
3415.99	364.862
3418.55	378.733
3421.11	374.666
3423.67	377.568
3426.23	368.128
3428.78	392.552
3431.34	368.795
3433.9	371.107
3436.46	379.371
3439.02	369.699
3441.58	384.14
3444.14	385.432
3446.7	384.268
3449.25	373.061
3451.81	364.482
3454.37	375.954
3456.93	374.249
3459.49	382.988
3462.05	387.333
3464.61	390.697
3467.16	381.899
3469.72	383.912
3472.28	383.305
3474.84	389.559
3477.4	382.425
3479.96	384.63
3482.52	375.927
3485.07	385.868
3487.63	394.082
3490.19	395.929
3492.75	372.456
3495.31	384.866
3497.87	384.818
3500.43	387.076
3502.99	385.97
3505.54	385.067
3508.1	393.335
3510.66	376.668
3513.22	396.67
3515.78	380.785
3518.34	388.441
3520.9	398.298
3523.45	399.401
3526.01	404.975
3528.57	412.817
3531.13	406.409
3533.69	402.969
3536.25	395.826
3538.81	403.254
3541.36	399.798
3543.92	406.703
3546.48	400.116
3549.04	404.922
3551.6	400.756
3554.16	395.415
3556.72	408.76
3559.28	414.119
3561.83	400.093
3564.39	412.271
3566.95	404.45
3569.51	415.701
3572.07	408.67
3574.63	413.848
3577.19	416.254
3579.74	414.363
3582.3	419.576
3584.86	430.75
3587.42	411.417
3589.98	413.416
3592.54	420.97
3595.1	413.996
3597.65	433.441
3600.21	426.889
3602.77	415.561
3605.33	432.301
3607.89	413.431
3610.45	428.856
3613.01	425.717
3615.56	415.635
3618.12	418.179
3620.68	425.16
3623.24	431.641
3625.8	445.816
3628.36	440.36
3630.92	440.628
3633.48	433.13
3636.03	427.094
3638.59	428.127
3641.15	421.171
3643.71	434.092
3646.27	426.937
3648.83	438.743
3651.39	432.803
3653.94	433.175
3656.5	441.359
3659.06	433.435
3661.62	426.771
3664.18	434.751
3666.74	427.884
3669.3	433.437
3671.85	424.901
3674.41	438.034
3676.97	436.216
3679.53	441.647
3682.09	447.674
3684.65	441.131
3687.21	451.112
3689.77	456.163
3692.32	443.45
3694.88	446.858
3697.44	441.768
3700	449.914