File: Example Data/Raman/Kara/12-20-10/C-Si-Graphene/1 bulk/CSGbulk1_6.txt
100	336.53
102.559	351.157
105.117	361.38
107.676	371.609
110.235	381.998
112.793	410.089
115.352	438.955
117.91	455.588
120.469	450.744
123.028	470.59
125.586	488.843
128.145	502.798
130.704	517.746
133.262	544.616
135.821	554.712
138.38	557.745
140.938	551.695
143.497	542.127
146.055	540.203
148.614	552.4
151.173	540.463
153.731	528.519
156.29	528.526
158.849	542.652
161.407	535.897
163.966	529.015
166.525	512.037
169.083	489.995
171.642	475.888
174.2	487.314
176.759	477.499
179.318	469.698
181.876	457.721
184.435	433.271
186.994	433.916
189.552	434
192.111	432.376
194.67	424.515
197.228	409.635
199.787	401.89
202.345	407.821
204.904	410.852
207.463	409.014
210.021	403.932
212.58	400.536
215.139	393.263
217.697	389.797
220.256	393.839
222.814	405.336
225.373	420.275
227.932	437.918
230.49	464.167
233.049	474.105
235.608	471.816
238.166	478.042
240.725	496.532
243.284	514.478
245.842	519.016
248.401	520.421
250.959	530.051
253.518	537.197
256.077	531.552
258.635	543.53
261.194	554.431
263.753	555.074
266.311	560.766
268.87	575.03
271.429	581.264
273.987	599.244
276.546	616.189
279.104	605.058
281.663	615.81
284.222	641.422
286.78	658.722
289.339	668.379
291.898	675.588
294.456	679.016
297.015	694.64
299.574	692.613
302.132	701.751
304.691	717.268
307.249	700.001
309.808	687.256
312.367	678.812
314.925	657.36
317.484	636.041
320.043	630.77
322.601	627.987
325.16	613.141
327.719	601.028
330.277	591.745
332.836	582.469
335.394	570.348
337.953	577.396
340.512	561.733
343.07	555.701
345.629	552.469
348.188	546.298
350.746	573.542
353.305	541.266
355.864	537.809
358.422	533.578
360.981	524.638
363.539	530.568
366.098	534.845
368.657	529.385
371.215	519.028
373.774	511.26
376.333	509.97
378.891	511.489
381.45	500.943
384.009	493.94
386.567	490.149
389.126	486.05
391.684	481.826
394.243	494.697
396.802	482.448
399.36	480.617
401.919	483.612
404.478	483.065
407.036	475.319
409.595	482.427
412.154	501.618
414.712	505.269
417.271	507.536
419.829	513.987
422.388	512.986
424.947	534.178
427.505	527.007
430.064	529.921
432.623	532.164
435.181	527.342
437.74	538.909
440.298	524.978
442.857	528.619
445.416	543.634
447.974	556.743
450.533	565.387
453.092	595.279
455.65	627.684
458.209	624.914
460.768	632.441
463.326	661.207
465.885	695.519
468.444	700.51
471.002	748.178
473.561	796.36
476.119	839.571
478.678	887.302
481.237	952.556
483.795	1037.59
486.354	1097.97
488.913	1194.75
491.471	1286.66
494.03	1389.35
496.589	1528.87
499.147	1674.5
501.706	1909.6
504.264	2200.73
506.823	2553.45
509.382	2940.34
511.94	3268.63
514.499	3349.13
517.058	3085.22
519.616	2579.08
522.175	2071.56
524.733	1624.37
527.292	1238.52
529.851	948.031
532.409	749.057
534.968	603.555
537.527	501.271
540.085	437.342
542.644	397.074
545.203	356.281
547.761	340.161
550.32	314.3
552.878	298.059
555.437	284.794
557.996	266.81
560.554	246.493
563.113	254.066
565.672	252.88
568.23	257.886
570.789	255.62
573.348	246.683
575.906	239.807
578.465	233.063
581.023	252.198
583.582	245.43
586.141	244.464
588.699	244.627
591.258	240.94
593.817	251.39
596.375	264.228
598.934	257.502
601.493	262.802
604.051	266.101
606.61	261.42
609.168	258.968
611.727	267.085
614.286	258.941
616.844	260.561
619.403	258.049
621.962	251.188
624.52	246.16
627.079	245.191
629.638	245.021
632.196	245.891
634.755	244.193
637.313	244.028
639.872	239.916
642.431	227.214
644.989	236.045
647.548	242.704
650.107	246.734
652.665	244.267
655.224	240.387
657.783	240.942
660.341	244.721
662.9	231.789
665.458	226.398
668.017	226.22
670.576	226.898
673.134	226.523
675.693	222.943
678.252	211.809
680.81	211.979
683.369	208.4
685.927	204.788
688.486	204.386
691.045	202.766
693.603	196.947
696.162	201.752
698.721	199.359
701.279	193.479
703.838	190.703
706.397	195.519
708.955	198.963
711.514	192.895
714.073	206.127
716.631	183.018
719.19	198.939
721.748	195.48
724.307	188.628
726.866	192.341
729.424	196.457
731.983	197.998
734.542	188.387
737.1	190.811
739.659	197.112
742.217	199.214
744.776	201.136
747.335	209.323
749.893	204.359
752.452	201.094
755.011	210.237
757.569	202.819
760.128	203.402
762.687	213.649
765.245	215.577
767.804	221.826
770.362	212.176
772.921	211
775.48	214.091
778.038	222.822
780.597	225.399
783.156	215.748
785.714	214.645
788.273	222.76
790.832	229.922
793.39	234.632
795.949	232.224
798.507	229.607
801.066	229.689
803.625	226.412
806.183	235.408
808.742	224.423
811.301	226.246
813.859	230.343
816.418	234.242
818.977	233.451
821.535	227.095
824.094	232.252
826.652	233.293
829.211	243.981
831.77	239.125
834.328	235.005
836.887	238.712
839.446	244.2
842.004	242.7
844.563	236.094
847.122	236.857
849.68	248.757
852.239	245.219
854.797	242.221
857.356	247.618
859.915	251.769
862.473	247.631
865.032	245.715
867.591	251.496
870.149	256.114
872.708	254.563
875.267	254.719
877.825	264.068
880.384	275.65
882.942	266.071
885.501	270.609
888.06	274.193
890.618	281.585
893.177	287.093
895.736	293.115
898.294	304.502
900.853	320.865
903.411	333.904
905.97	331.979
908.529	346.574
911.087	354.956
913.646	360.148
916.205	369.187
918.763	381.844
921.322	388.821
923.881	381.274
926.439	379.169
928.998	391.591
931.557	391.313
934.115	388.787
936.674	390.47
939.232	387.333
941.791	375.154
944.35	380.766
946.908	391.669
949.467	383.833
952.026	373.454
954.584	367.851
957.143	359.717
959.701	346.385
962.26	335.169
964.819	333.728
967.377	333.151
969.936	303.335
972.495	297.716
975.053	285.927
977.612	279.27
980.171	268.14
982.729	253.593
985.288	253.241
987.846	244.567
990.405	235.732
992.964	226.888
995.522	224.055
998.081	224.801
1000.64	220.457
1003.2	211.071
1005.76	202.401
1008.32	197.822
1010.87	204.658
1013.43	187.285
1015.99	187.522
1018.55	188.825
1021.11	185.176
1023.67	182.385
1026.23	180.64
1028.78	176.81
1031.34	176.73
1033.9	180.333
1036.46	176.245
1039.02	181.029
1041.58	175.858
1044.14	171.087
1046.7	170.814
1049.25	173.052
1051.81	174.133
1054.37	172.373
1056.93	178.702
1059.49	174.782
1062.05	173.434
1064.61	170.692
1067.16	172.307
1069.72	176.412
1072.28	173.047
1074.84	163.666
1077.4	165.481
1079.96	171.874
1082.52	183.309
1085.07	163.345
1087.63	169.969
1090.19	177.067
1092.75	180.255
1095.31	178.976
1097.87	174.724
1100.43	172.758
1102.99	174.107
1105.54	187.002
1108.1	193.458
1110.66	187.533
1113.22	183.591
1115.78	186.359
1118.34	187.351
1120.9	183.763
1123.45	183.606
1126.01	191.014
1128.57	191.661
1131.13	187.706
1133.69	193.2
1136.25	195.859
1138.81	199.636
1141.36	202.233
1143.92	203.569
1146.48	207.646
1149.04	212.079
1151.6	208.107
1154.16	206.45
1156.72	214.022
1159.28	218.603
1161.83	222.956
1164.39	224.411
1166.95	225.422
1169.51	229.629
1172.07	228.28
1174.63	225.807
1177.19	240.486
1179.74	248.334
1182.3	251.036
1184.86	234.939
1187.42	235.855
1189.98	248.411
1192.54	253.629
1195.1	250.471
1197.65	248.105
1200.21	254.271
1202.77	264.149
1205.33	263.776
1207.89	262.506
1210.45	261.236
1213.01	264.552
1215.57	285.056
1218.12	279.234
1220.68	285.196
1223.24	288.389
1225.8	285.733
1228.36	289.267
1230.92	295.647
1233.48	298.861
1236.03	285.672
1238.59	298.228
1241.15	317.69
1243.71	328.625
1246.27	329.529
1248.83	323.441
1251.39	317.882
1253.94	322.889
1256.5	333.087
1259.06	335.16
1261.62	334.118
1264.18	338.585
1266.74	350.204
1269.3	350.752
1271.85	367.307
1274.41	370.45
1276.97	375.97
1279.53	380.533
1282.09	388.207
1284.65	391.37
1287.21	386.789
1289.77	393.988
1292.32	413.887
1294.88	411.834
1297.44	407.251
1300	404.661
1302.56	431.113
1305.12	435.019
1307.68	447.736
1310.23	457.029
1312.79	451.246
1315.35	452.498
1317.91	467.879
1320.47	478.791
1323.03	493.477
1325.59	492.333
1328.15	505.211
1330.7	505.948
1333.26	512.16
1335.82	513.666
1338.38	521.9
1340.94	533.213
1343.5	533.555
1346.06	533.98
1348.61	538.723
1351.17	537.734
1353.73	543.658
1356.29	566.045
1358.85	547.357
1361.41	553.779
1363.97	548.233
1366.52	528.537
1369.08	531.577
1371.64	526.933
1374.2	521.938
1376.76	512.625
1379.32	509.174
1381.88	506.637
1384.43	491.417
1386.99	481.019
1389.55	486.692
1392.11	470.17
1394.67	461.314
1397.23	477.086
1399.79	461.26
1402.35	447.495
1404.9	453.914
1407.46	445.159
1410.02	431.202
1412.58	435.917
1415.14	435.49
1417.7	418.81
1420.26	412.751
1422.81	414.6
1425.37	398.354
1427.93	397.718
1430.49	383.265
1433.05	378.044
1435.61	385.212
1438.17	370.891
1440.72	377.246
1443.28	365.427
1445.84	361.051
1448.4	356.875
1450.96	351.501
1453.52	353.641
1456.08	351.703
1458.64	346.202
1461.19	355.26
1463.75	354.758
1466.31	360.322
1468.87	354.783
1471.43	339.132
1473.99	354.68
1476.55	342.024
1479.1	352.153
1481.66	347.692
1484.22	349.567
1486.78	350.008
1489.34	344.404
1491.9	339.984
1494.46	344.589
1497.01	348.56
1499.57	345.187
1502.13	347.014
1504.69	346.393
1507.25	342.247
1509.81	343.995
1512.37	336.041
1514.93	343.381
1517.48	349.632
1520.04	344.382
1522.6	349.944
1525.16	354.415
1527.72	341.455
1530.28	349.165
1532.84	354.862
1535.39	350.847
1537.95	355.777
1540.51	366.134
1543.07	370.156
1545.63	369.446
1548.19	369.239
1550.75	383.483
1553.3	390.517
1555.86	400.575
1558.42	415.157
1560.98	421.973
1563.54	432.82
1566.1	454.509
1568.66	450.019
1571.22	462.305
1573.77	480.506
1576.33	490.13
1578.89	507.291
1581.45	518.085
1584.01	524.731
1586.57	536.207
1589.13	552.575
1591.68	578.514
1594.24	593.147
1596.8	579.484
1599.36	586.504
1601.92	589.466
1604.48	588.977
1607.04	606.525
1609.59	577.535
1612.15	572.963
1614.71	547.979
1617.27	543.009
1619.83	513.025
1622.39	491.194
1624.95	462.129
1627.51	436.531
1630.06	426.94
1632.62	402.193
1635.18	374.537
1637.74	359.391
1640.3	342.813
1642.86	323.155
1645.42	312.359
1647.97	302.333
1650.53	282.562
1653.09	272.153
1655.65	269.76
1658.21	249.625
1660.77	237.403
1663.33	241.398
1665.88	238.879
1668.44	231.765
1671	219.099
1673.56	208.266
1676.12	209.166
1678.68	189.665
1681.24	189.056
1683.8	189.647
1686.35	186.837
1688.91	188.83
1691.47	185.382
1694.03	175.193
1696.59	168.786
1699.15	165.658
1701.71	164.704
1704.26	168.012
1706.82	166.095
1709.38	159.442
1711.94	156.831
1714.5	153.637
1717.06	154.585
1719.62	151.498
1722.17	152.303
1724.73	154.071
1727.29	146.7
1729.85	156.244
1732.41	149.616
1734.97	153.394
1737.53	142.769
1740.09	141.414
1742.64	137.759
1745.2	145.385
1747.76	148.329
1750.32	142.027
1752.88	133.491
1755.44	144.866
1758	135.769
1760.55	135.922
1763.11	137.629
1765.67	139.586
1768.23	135.794
1770.79	139.569
1773.35	146.088
1775.91	142.949
1778.46	138.216
1781.02	137.504
1783.58	137.009
1786.14	136.96
1788.7	137.6
1791.26	136.523
1793.82	137.022
1796.38	138.382
1798.93	133.642
1801.49	128.842
1804.05	127.839
1806.61	132.888
1809.17	128.617
1811.73	132.895
1814.29	134.88
1816.84	127.933
1819.4	131.436
1821.96	127.44
1824.52	136.73
1827.08	133.655
1829.64	142.156
1832.2	133.053
1834.75	138.308
1837.31	126.041
1839.87	139.763
1842.43	126.319
1844.99	141.284
1847.55	135.354
1850.11	136.613
1852.67	128.098
1855.22	137.438
1857.78	127.405
1860.34	128.741
1862.9	131.69
1865.46	135.727
1868.02	132.047
1870.58	132.952
1873.13	133.148
1875.69	130.935
1878.25	134.246
1880.81	132.687
1883.37	132.232
1885.93	134.908
1888.49	135.335
1891.04	132.002
1893.6	127.847
1896.16	129.276
1898.72	130.632
1901.28	133.522
1903.84	130.54
1906.4	127.461
1908.96	130.062
1911.51	129.803
1914.07	133.097
1916.63	135.705
1919.19	132.097
1921.75	130.616
1924.31	130.696
1926.87	130.497
1929.42	124.181
1931.98	121.599
1934.54	129.126
1937.1	131.83
1939.66	128.855
1942.22	135.1
1944.78	138.144
1947.33	129.484
1949.89	128.009
1952.45	126.619
1955.01	130.734
1957.57	127.742
1960.13	132.89
1962.69	138.588
1965.25	131.496
1967.8	131.46
1970.36	136.296
1972.92	128.482
1975.48	122.74
1978.04	129.923
1980.6	129.471
1983.16	128.813
1985.71	131.225
1988.27	129.36
1990.83	126.203
1993.39	128.638
1995.95	130.259
1998.51	131.206
2001.07	129.492
2003.62	133.538
2006.18	135.463
2008.74	136.139
2011.3	130.68
2013.86	129.802
2016.42	131.208
2018.98	129.54
2021.54	129.286
2024.09	131.999
2026.65	138.157
2029.21	137.898
2031.77	137.48
2034.33	135.8
2036.89	133.966
2039.45	133.217
2042	128.743
2044.56	128.726
2047.12	136.795
2049.68	138.051
2052.24	133.907
2054.8	132.92
2057.36	132.293
2059.91	137.715
2062.47	139.458
2065.03	135.132
2067.59	130.456
2070.15	135.165
2072.71	139.597
2075.27	136.291
2077.83	136.079
2080.38	140.266
2082.94	148.095
2085.5	141.724
2088.06	135.246
2090.62	142.681
2093.18	139.399
2095.74	141.682
2098.29	143.013
2100.85	142.432
2103.41	140.697
2105.97	139.649
2108.53	136.661
2111.09	132.643
2113.65	134.588
2116.2	134.971
2118.76	139.222
2121.32	139.333
2123.88	142.119
2126.44	141.214
2129	138.038
2131.56	136.108
2134.12	132.848
2136.67	143.031
2139.23	139.98
2141.79	139.177
2144.35	148.595
2146.91	142.415
2149.47	143.281
2152.03	140.069
2154.58	145.559
2157.14	145.227
2159.7	145.742
2162.26	146.235
2164.82	146.289
2167.38	140.539
2169.94	142.798
2172.49	143.108
2175.05	142.091
2177.61	142.454
2180.17	145.151
2182.73	149.355
2185.29	148.585
2187.85	146.647
2190.41	144.558
2192.96	140.215
2195.52	145.251
2198.08	149.118
2200.64	148.642
2203.2	141.666
2205.76	139.869
2208.32	142.077
2210.87	147.357
2213.43	147.356
2215.99	152.153
2218.55	154.568
2221.11	148.454
2223.67	150.185
2226.23	146.723
2228.78	143.041
2231.34	149.15
2233.9	148.632
2236.46	145.561
2239.02	152.857
2241.58	154.803
2244.14	150.237
2246.7	147.836
2249.25	158.034
2251.81	146.746
2254.37	151.239
2256.93	151.721
2259.49	154.415
2262.05	153.047
2264.61	153.9
2267.16	153.531
2269.72	156.941
2272.28	156.543
2274.84	155.506
2277.4	157.009
2279.96	161.318
2282.52	154.813
2285.07	152.81
2287.63	153.705
2290.19	154.926
2292.75	156.242
2295.31	157.969
2297.87	158.219
2300.43	161.591
2302.99	162.555
2305.54	162.325
2308.1	161.944
2310.66	166.503
2313.22	163.67
2315.78	163.209
2318.34	168.154
2320.9	167.055
2323.45	168.882
2326.01	165.742
2328.57	166.203
2331.13	167.03
2333.69	169.247
2336.25	180.178
2338.81	180.644
2341.36	174.816
2343.92	165.294
2346.48	163.053
2349.04	167.866
2351.6	167.92
2354.16	169.771
2356.72	168.913
2359.28	168.886
2361.83	169.755
2364.39	164.157
2366.95	162.112
2369.51	169.823
2372.07	171.774
2374.63	170.531
2377.19	171.15
2379.74	175.21
2382.3	171.022
2384.86	176.481
2387.42	170.573
2389.98	176.194
2392.54	177.836
2395.1	180.1
2397.65	178.787
2400.21	177.67
2402.77	178.449
2405.33	182.547
2407.89	180.084
2410.45	181.292
2413.01	188.054
2415.56	189.588
2418.12	187.645
2420.68	192.249
2423.24	190.606
2425.8	185.257
2428.36	196.005
2430.92	202.3
2433.48	214.201
2436.03	213.271
2438.59	218.362
2441.15	223.709
2443.71	231.09
2446.27	226.865
2448.83	223.467
2451.39	221.3
2453.94	220.686
2456.5	210.491
2459.06	209.039
2461.62	205.759
2464.18	206.226
2466.74	200.193
2469.3	203.524
2471.85	207.093
2474.41	204.231
2476.97	207.923
2479.53	204.22
2482.09	196.517
2484.65	203.942
2487.21	198.496
2489.77	203.915
2492.32	207.859
2494.88	206.884
2497.44	208.648
2500	203.787
2502.56	208.695
2505.12	211.943
2507.68	213.453
2510.23	211.826
2512.79	207.577
2515.35	214.348
2517.91	218.195
2520.47	208.807
2523.03	205.132
2525.59	212.306
2528.15	202.868
2530.7	211.009
2533.26	219.436
2535.82	220.501
2538.38	222.126
2540.94	215.215
2543.5	214.885
2546.06	218.358
2548.61	209.303
2551.17	220.005
2553.73	217.453
2556.29	222.535
2558.85	222.607
2561.41	230.306
2563.97	220.821
2566.52	220.899
2569.08	221.879
2571.64	226.265
2574.2	220.24
2576.76	220.242
2579.32	223.466
2581.88	225.4
2584.44	228.472
2586.99	224.86
2589.55	230.803
2592.11	229.773
2594.67	224.719
2597.23	229.117
2599.79	237.478
2602.35	227.504
2604.9	227.563
2607.46	237.897
2610.02	235.249
2612.58	230.733
2615.14	232.88
2617.7	234
2620.26	237.882
2622.81	239.317
2625.37	238.597
2627.93	235.744
2630.49	242.336
2633.05	241.048
2635.61	238.757
2638.17	242.556
2640.72	245.485
2643.28	235.345
2645.84	241.991
2648.4	244.309
2650.96	251.171
2653.52	242.513
2656.08	246.651
2658.64	248.8
2661.19	249.886
2663.75	252.075
2666.31	248.218
2668.87	244.792
2671.43	249.548
2673.99	249.204
2676.55	251.249
2679.1	248.538
2681.66	249.098
2684.22	255.657
2686.78	252.422
2689.34	257.101
2691.9	259.206
2694.46	262.314
2697.01	264.309
2699.57	255.186
2702.13	253.84
2704.69	261.892
2707.25	254.151
2709.81	251.189
2712.37	253.376
2714.93	256.189
2717.48	269.368
2720.04	258.289
2722.6	256.012
2725.16	255.017
2727.72	262.122
2730.28	264.36
2732.84	260.425
2735.39	259.896
2737.95	262.348
2740.51	269.539
2743.07	265.953
2745.63	263.19
2748.19	255.865
2750.75	256.691
2753.3	263.281
2755.86	266.892
2758.42	277.599
2760.98	268.081
2763.54	261.91
2766.1	273.379
2768.66	270.02
2771.22	275.322
2773.77	267.808
2776.33	263.191
2778.89	267.03
2781.45	268.671
2784.01	269.36
2786.57	270.675
2789.13	269.111
2791.68	272.311
2794.24	275.321
2796.8	269.401
2799.36	264.213
2801.92	267.083
2804.48	263.723
2807.04	272.299
2809.59	273.838
2812.15	275.378
2814.71	273.489
2817.27	280.432
2819.83	289.821
2822.39	269.021
2824.95	274.218
2827.51	270.184
2830.06	276.845
2832.62	271.952
2835.18	280.542
2837.74	295.43
2840.3	278.681
2842.86	281.486
2845.42	284.403
2847.97	279.53
2850.53	280.724
2853.09	276.853
2855.65	285.571
2858.21	284.851
2860.77	281.97
2863.33	286.156
2865.88	279.903
2868.44	282.214
2871	285.562
2873.56	276.625
2876.12	292.247
2878.68	290.091
2881.24	290.785
2883.8	299.108
2886.35	302.129
2888.91	288.662
2891.47	291.829
2894.03	299.921
2896.59	292.654
2899.15	292.751
2901.71	288.154
2904.26	290.817
2906.82	297.54
2909.38	301.218
2911.94	303.838
2914.5	295.015
2917.06	309.968
2919.62	309.196
2922.17	304.865
2924.73	301.216
2927.29	304.981
2929.85	305.342
2932.41	310.008
2934.97	310.175
2937.53	310.399
2940.09	313.212
2942.64	311.706
2945.2	309.206
2947.76	307.228
2950.32	311.128
2952.88	310.348
2955.44	311.013
2958	299.15
2960.55	301.356
2963.11	315.472
2965.67	306.096
2968.23	312.145
2970.79	306.644
2973.35	300.043
2975.91	297.79
2978.46	308.553
2981.02	302.648
2983.58	305.262
2986.14	294.5
2988.7	291.904
2991.26	292.482
2993.82	298.183
2996.38	301.791
2998.93	295.023
3001.49	291.312
3004.05	307.78
3006.61	297.761
3009.17	292.04
3011.73	291.258
3014.29	287.5
3016.84	288.128
3019.4	287.148
3021.96	284.75
3024.52	290.473
3027.08	291.425
3029.64	293.48
3032.2	303.213
3034.75	289.894
3037.31	273.844
3039.87	285.085
3042.43	289.05
3044.99	292.549
3047.55	290.405
3050.11	296.912
3052.67	289.167
3055.22	300.162
3057.78	273.677
3060.34	298.48
3062.9	292.677
3065.46	287.614
3068.02	292.968
3070.58	290.32
3073.13	297.419
3075.69	292.009
3078.25	298.903
3080.81	297.768
3083.37	299.224
3085.93	294.013
3088.49	296.902
3091.04	293.035
3093.6	296.613
3096.16	292.762
3098.72	295.69
3101.28	291.835
3103.84	290.305
3106.4	302.353
3108.96	292.045
3111.51	295.874
3114.07	289.612
3116.63	293.899
3119.19	290.262
3121.75	306.684
3124.31	290.294
3126.87	292.731
3129.42	295.892
3131.98	297.644
3134.54	294.248
3137.1	293.656
3139.66	302.037
3142.22	287.671
3144.78	299.473
3147.33	295.97
3149.89	290.017
3152.45	291.446
3155.01	287.2
3157.57	310.45
3160.13	305.16
3162.69	306.634
3165.25	298.355
3167.8	292.884
3170.36	302.452
3172.92	295.235
3175.48	303.546
3178.04	300.483
3180.6	296.543
3183.16	303.847
3185.71	307.499
3188.27	298.388
3190.83	298.356
3193.39	295.24
3195.95	301.305
3198.51	312.202
3201.07	304.288
3203.62	317.962
3206.18	318.225
3208.74	300.83
3211.3	300.983
3213.86	300.131
3216.42	305.778
3218.98	305.927
3221.54	315.265
3224.09	312.107
3226.65	307.867
3229.21	307.441
3231.77	311.352
3234.33	310.696
3236.89	309.9
3239.45	295.913
3242	310.004
3244.56	314.118
3247.12	305.475
3249.68	294.706
3252.24	299.478
3254.8	312.088
3257.36	311.08
3259.91	311.037
3262.47	314.452
3265.03	302.807
3267.59	311.847
3270.15	292.703
3272.71	301.15
3275.27	305.682
3277.83	301.063
3280.38	312.795
3282.94	306.433
3285.5	296.16
3288.06	310.804
3290.62	310.66
3293.18	308.429
3295.74	301.379
3298.29	304.333
3300.85	312.998
3303.41	308.958
3305.97	298.367
3308.53	308.474
3311.09	309.144
3313.65	316.91
3316.2	320.231
3318.76	310.533
3321.32	310.045
3323.88	320.792
3326.44	312.506
3329	316.331
3331.56	311.75
3334.12	301.762
3336.67	309.762
3339.23	320.031
3341.79	307.303
3344.35	306.642
3346.91	312.014
3349.47	318.692
3352.03	309.273
3354.58	316.976
3357.14	316.154
3359.7	312.439
3362.26	314.533
3364.82	311.314
3367.38	316.824
3369.94	324.639
3372.49	315.27
3375.05	321.934
3377.61	325.262
3380.17	321.483
3382.73	321.703
3385.29	321.244
3387.85	317.251
3390.41	322.164
3392.96	319.887
3395.52	321.581
3398.08	329.556
3400.64	319.235
3403.2	324.782
3405.76	320.798
3408.32	323.5
3410.87	316.386
3413.43	329.418
3415.99	329.206
3418.55	318.489
3421.11	318.322
3423.67	328.465
3426.23	333.268
3428.78	320.681
3431.34	327.113
3433.9	332.716
3436.46	339.987
3439.02	330.363
3441.58	331.887
3444.14	334.191
3446.7	334.688
3449.25	332.461
3451.81	327.019
3454.37	342.6
3456.93	338.222
3459.49	339.861
3462.05	340.353
3464.61	340.966
3467.16	347.897
3469.72	329.52
3472.28	335.052
3474.84	341.299
3477.4	335.255
3479.96	342.37
3482.52	341.693
3485.07	346.107
3487.63	347.685
3490.19	351.562
3492.75	351.316
3495.31	341.015
3497.87	350.235
3500.43	346.763
3502.99	348.751
3505.54	340.336
3508.1	339.031
3510.66	331.701
3513.22	352.61
3515.78	356.483
3518.34	358.045
3520.9	349.922
3523.45	352.398
3526.01	361.637
3528.57	342.016
3531.13	350.278
3533.69	345.787
3536.25	347.141
3538.81	346.658
3541.36	362.244
3543.92	356.581
3546.48	344.214
3549.04	354.406
3551.6	356.005
3554.16	356.605
3556.72	352.205
3559.28	355.128
3561.83	367.503
3564.39	367.587
3566.95	366.218
3569.51	372.441
3572.07	358.566
3574.63	357.827
3577.19	361.036
3579.74	363.253
3582.3	370.95
3584.86	369.091
3587.42	360.119
3589.98	369.958
3592.54	366.952
3595.1	370.002
3597.65	364.662
3600.21	372.86
3602.77	384.604
3605.33	364.201
3607.89	392.923
3610.45	374.277
3613.01	365.235
3615.56	382.599
3618.12	375.481
3620.68	376.372
3623.24	376.337
3625.8	379.713
3628.36	373.016
3630.92	383.894
3633.48	382.506
3636.03	380.449
3638.59	392.962
3641.15	386.032
3643.71	391.566
3646.27	393.888
3648.83	389.348
3651.39	386.486
3653.94	375.643
3656.5	390.528
3659.06	388.29
3661.62	399.524
3664.18	392.349
3666.74	384.609
3669.3	381.646
3671.85	397.234
3674.41	394.502
3676.97	397.103
3679.53	395.342
3682.09	398.164
3684.65	385.749
3687.21	388.528
3689.77	402.5
3692.32	399.957
3694.88	397.596
3697.44	399.224
3700	405.817