File: Example Data/Raman/Horiba/06-06-11 - Background noise/CNT-control_3.txt
400	-197.937
401.517	-195.928
403.035	-199.487
404.552	-201.658
406.069	-201.521
407.587	-206.459
409.104	-199.514
410.621	-201.493
412.138	-198.433
413.656	-198.274
415.173	-197.619
416.69	-196.439
418.208	-201.632
419.725	-201.984
421.242	-197.61
422.76	-200.889
424.277	-198.158
425.794	-203.45
427.312	-197.527
428.829	-200.199
430.346	-201.879
431.863	-194.88
433.381	-204.278
434.898	-202.048
436.415	-200.191
437.933	-204.909
439.45	-198.404
440.967	-201.759
442.485	-203
444.002	-201.301
445.519	-203.3
447.036	-203.966
448.554	-202.4
450.071	-203.569
451.588	-201.077
453.106	-201.302
454.623	-201.348
456.14	-201.001
457.658	-200.742
459.175	-203.298
460.692	-204.399
462.21	-201.531
463.727	-203.958
465.244	-201.493
466.762	-201.317
468.279	-203.026
469.796	-205.108
471.313	-202.81
472.831	-201.25
474.348	-202.573
475.865	-198.506
477.383	-204.399
478.9	-202.984
480.417	-205.08
481.935	-199.644
483.452	-205.75
484.969	-205.582
486.486	-205.229
488.004	-201.899
489.521	-202.38
491.038	-204.041
492.556	-202.654
494.073	-204.182
495.59	-197.933
497.108	-203.474
498.625	-205.809
500.142	-200.919
501.66	-203.842
503.177	-199.815
504.694	-205.428
506.211	-205.85
507.729	-204.551
509.246	-204.973
510.763	-206.435
512.281	-204.362
513.798	-207.522
515.315	-204.964
516.833	-205.058
518.35	-202.456
519.867	-202.453
521.385	-202.984
522.902	-203.266
524.419	-204.701
525.936	-203.093
527.454	-206.747
528.971	-206.2
530.488	-205.563
532.006	-205.907
533.523	-204.528
535.04	-205.339
536.558	-203.386
538.075	-204.017
539.592	-201.932
541.11	-204.449
542.627	-202.056
544.144	-205.121
545.661	-202.502
547.179	-204.578
548.696	-204.465
550.213	-203.81
551.731	-206.524
553.248	-205.649
554.765	-203.819
556.283	-204.771
557.8	-201
559.317	-207.207
560.835	-202.382
562.352	-199.32
563.869	-202.6
565.386	-203.985
566.904	-203.731
568.421	-199.684
569.938	-198.013
571.456	-204.234
572.973	-207.041
574.49	-208.527
576.008	-200.734
577.525	-202.266
579.042	-203.235
580.56	-199.122
582.077	-200.527
583.594	-204.554
585.111	-202.207
586.629	-203.909
588.146	-207.606
589.663	-198.195
591.181	-203.075
592.698	-204.857
594.215	-204.612
595.733	-202.892
597.25	-204.938
598.767	-203.498
600.284	-204.615
601.802	-202.021
603.319	-201.083
604.836	-206.336
606.354	-202.752
607.871	-204.651
609.388	-200.177
610.906	-197.868
612.423	-195.96
613.94	-203.947
615.458	-203.023
616.975	-200.998
618.492	-201.666
620.009	-203.616
621.527	-200.013
623.044	-205.182
624.561	-204.142
626.079	-202.635
627.596	-201.766
629.113	-201.227
630.631	-205.232
632.148	-201.688
633.665	-198.043
635.183	-201.979
636.7	-198.202
638.217	-197.13
639.734	-204.54
641.252	-199.81
642.769	-205.034
644.286	-199.013
645.804	-202.123
647.321	-195.13
648.838	-195.431
650.356	-203.143
651.873	-199.111
653.39	-199.872
654.908	-195.698
656.425	-199.181
657.942	-198.059
659.459	-199.448
660.977	-197.855
662.494	-200.515
664.011	-198.512
665.529	-196.239
667.046	-198.556
668.563	-197.477
670.081	-198.339
671.598	-195.233
673.115	-193.18
674.633	-195.03
676.15	-195.296
677.667	-199.217
679.184	-198.304
680.702	-196.178
682.219	-199.065
683.736	-199.799
685.254	-192.767
686.771	-196.251
688.288	-196.162
689.806	-196.953
691.323	-195.985
692.84	-196.168
694.358	-196.945
695.875	-195.173
697.392	-195.557
698.909	-198.712
700.427	-192.807
701.944	-196.8
703.461	-192.906
704.979	-194.277
706.496	-193.094
708.013	-194.8
709.531	-188.86
711.048	-191.619
712.565	-195.394
714.083	-191.81
715.6	-189.029
717.117	-190.709
718.634	-189.615
720.152	-187.728
721.669	-189.116
723.186	-186.294
724.704	-187.222
726.221	-192.362
727.738	-187.468
729.256	-187.47
730.773	-186.865
732.29	-194.732
733.807	-188
735.325	-187.098
736.842	-188.166
738.359	-187.393
739.877	-189.173
741.394	-184.704
742.911	-195.58
744.429	-185.338
745.946	-188.227
747.463	-189.024
748.981	-187.783
750.498	-185.138
752.015	-184.442
753.532	-185.61
755.05	-189.18
756.567	-183.2
758.084	-188.277
759.602	-181.491
761.119	-185.05
762.636	-188.433
764.154	-187.352
765.671	-180.609
767.188	-183.953
768.706	-179.875
770.223	-182.707
771.74	-181.228
773.257	-181.203
774.775	-186.444
776.292	-182.324
777.809	-181.671
779.327	-187.845
780.844	-186.373
782.361	-182.755
783.879	-184.621
785.396	-183.066
786.913	-173.108
788.431	-181.85
789.948	-184.127
791.465	-181.896
792.982	-179.224
794.5	-180.24
796.017	-182.105
797.534	-181.264
799.052	-182.165
800.569	-180.469
802.086	-181.74
803.604	-180.393
805.121	-182.404
806.638	-178.414
808.156	-176.1
809.673	-177.753
811.19	-173.433
812.707	-177.332
814.225	-177.005
815.742	-174.975
817.259	-170.515
818.777	-176.77
820.294	-176.021
821.811	-173.703
823.329	-176.299
824.846	-169.972
826.363	-172.902
827.88	-175.735
829.398	-173.338
830.915	-175.191
832.432	-169
833.95	-172.575
835.467	-172.968
836.984	-175.423
838.502	-175.2
840.019	-171.598
841.536	-173.875
843.054	-172.583
844.571	-169.757
846.088	-172.998
847.606	-173.187
849.123	-169.937
850.64	-174.898
852.157	-172.4
853.675	-173.021
855.192	-174.586
856.709	-174.92
858.227	-173.951
859.744	-174.413
861.261	-175.959
862.779	-180.577
864.296	-173.655
865.813	-180.416
867.331	-182.762
868.848	-178.937
870.365	-180.809
871.882	-180.335
873.4	-180.639
874.917	-178.979
876.434	-175.455
877.952	-182.936
879.469	-178.059
880.986	-176.169
882.504	-174.989
884.021	-181.056
885.538	-179.909
887.055	-179.626
888.573	-177.997
890.09	-179.956
891.607	-182.405
893.125	-179.417
894.642	-180.177
896.159	-184.697
897.677	-184.012
899.194	-182.737
900.711	-178.897
902.229	-184.4
903.746	-182.354
905.263	-182.347
906.78	-182.087
908.298	-181.963
909.815	-185.804
911.332	-181.713
912.85	-184.348
914.367	-185.116
915.884	-181.241
917.402	-181.87
918.919	-180.734
920.436	-178.095
921.954	-179.057
923.471	-186.641
924.988	-181.023
926.505	-179.629
928.023	-185.117
929.54	-186.882
931.057	-185.51
932.575	-183.915
934.092	-179.28
935.609	-182.406
937.127	-178.964
938.644	-180.224
940.161	-183.638
941.679	-181.638
943.196	-186.701
944.713	-185.925
946.23	-182.253
947.748	-182.185
949.265	-182.695
950.782	-183.425
952.3	-180.481
953.817	-183.167
955.334	-186.628
956.852	-180.031
958.369	-180.564
959.886	-184.601
961.404	-179.277
962.921	-180.161
964.438	-186.489
965.955	-183.933
967.473	-184.944
968.99	-183.254
970.507	-181.736
972.025	-179.663
973.542	-179.292
975.059	-180.372
976.577	-180.337
978.094	-179.616
979.611	-178.805
981.128	-179.095
982.646	-176.852
984.163	-177.244
985.68	-176.308
987.198	-178.992
988.715	-180.235
990.232	-174.36
991.75	-178.496
993.267	-179.2
994.784	-177.854
996.302	-176.823
997.819	-175.923
999.336	-178.96
1000.85	-175.119
1002.37	-177.102
1003.89	-170.478
1005.41	-173.958
1006.92	-175.433
1008.44	-175.569
1009.96	-175.661
1011.47	-168.452
1012.99	-171.06
1014.51	-170.208
1016.03	-165.83
1017.54	-169.679
1019.06	-173.689
1020.58	-171.56
1022.1	-172.612
1023.61	-169.978
1025.13	-173.712
1026.65	-170.028
1028.17	-168.439
1029.68	-168.937
1031.2	-167.312
1032.72	-172.207
1034.23	-167.977
1035.75	-166.975
1037.27	-164
1038.79	-162.328
1040.3	-167.778
1041.82	-167.294
1043.34	-168.333
1044.86	-163.249
1046.37	-166.926
1047.89	-164.059
1049.41	-161.558
1050.92	-163.818
1052.44	-164.082
1053.96	-160.42
1055.48	-163.446
1056.99	-165.139
1058.51	-159.548
1060.03	-162.398
1061.55	-162.124
1063.06	-160.53
1064.58	-159.585
1066.1	-164.477
1067.61	-159.242
1069.13	-156.269
1070.65	-161.251
1072.17	-162.099
1073.68	-154.421
1075.2	-153.187
1076.72	-155.333
1078.24	-158.48
1079.75	-155.037
1081.27	-161.092
1082.79	-155.258
1084.31	-152.631
1085.82	-152.899
1087.34	-148.934
1088.86	-153.308
1090.37	-150.188
1091.89	-148.557
1093.41	-147.804
1094.93	-150.709
1096.44	-145.894
1097.96	-142.553
1099.48	-148.523
1101	-143.08
1102.51	-144.26
1104.03	-140.651
1105.55	-144.243
1107.06	-146.379
1108.58	-142.362
1110.1	-136.437
1111.62	-135.965
1113.13	-143.183
1114.65	-136.369
1116.17	-137.576
1117.69	-136.744
1119.2	-136.179
1120.72	-134.402
1122.24	-133.364
1123.76	-134.893
1125.27	-128.981
1126.79	-128.491
1128.31	-129.074
1129.82	-127.669
1131.34	-126.698
1132.86	-122.355
1134.38	-126.097
1135.89	-121.399
1137.41	-123.249
1138.93	-124.501
1140.45	-118.026
1141.96	-115.361
1143.48	-116.063
1145	-113.044
1146.51	-110.958
1148.03	-105.697
1149.55	-104.238
1151.07	-101.656
1152.58	-97.9357
1154.1	-93.3994
1155.62	-94.0359
1157.14	-90.1843
1158.65	-84.6027
1160.17	-83.118
1161.69	-82.9471
1163.21	-80.4873
1164.72	-79.4557
1166.24	-77.5684
1167.76	-76.1053
1169.27	-70.7598
1170.79	-68.5455
1172.31	-64.8124
1173.83	-60.5107
1175.34	-63.6886
1176.86	-60.0817
1178.38	-56.5117
1179.9	-54.4174
1181.41	-53.9394
1182.93	-50.1937
1184.45	-49.0814
1185.96	-46.0197
1187.48	-46.6669
1189	-43.8016
1190.52	-42.1577
1192.03	-40.1798
1193.55	-38.6751
1195.07	-35.6446
1196.59	-35.4519
1198.1	-36.62
1199.62	-31.7107
1201.14	-30.1123
1202.66	-32.8109
1204.17	-33.5008
1205.69	-28.4351
1207.21	-28.2329
1208.72	-30.3642
1210.24	-30.0406
1211.76	-28.98
1213.28	-28.6334
1214.79	-30.5215
1216.31	-32.5087
1217.83	-28.679
1219.35	-36.5594
1220.86	-39.9835
1222.38	-34.5118
1223.9	-36.9154
1225.41	-41.3347
1226.93	-35.0936
1228.45	-34.6096
1229.97	-31.659
1231.48	-36.0546
1233	-34.0116
1234.52	-37.1208
1236.04	-36.4521
1237.55	-33.2013
1239.07	-31.0417
1240.59	-35.4843
1242.11	-34.2283
1243.62	-31.0976
1245.14	-26.309
1246.66	-29.9228
1248.17	-27.4955
1249.69	-32.0884
1251.21	-25.65
1252.73	-26.4695
1254.24	-22.1071
1255.76	-28.2836
1257.28	-20.7627
1258.8	-22.0864
1260.31	-20.1323
1261.83	-20.9376
1263.35	-21.6387
1264.86	-20.3375
1266.38	-14.8994
1267.9	-15.9794
1269.42	-20.3043
1270.93	-18.5999
1272.45	-15.857
1273.97	-12.9225
1275.49	-8.1032
1277	-8.69237
1278.52	-4.75667
1280.04	-1.40846
1281.56	-0.794403
1283.07	5.359375
1284.59	4.59154
1286.11	0.524857
1287.62	7.30896
1289.14	6.30287
1290.66	10.2772
1292.18	22.3475
1293.69	21.0414
1295.21	29.3672
1296.73	30.9871
1298.25	29.7313
1299.76	35.6771
1301.28	40.4763
1302.8	47.7303
1304.31	53.0532
1305.83	58.0157
1307.35	73.9407
1308.87	75.9167
1310.38	92.2844
1311.9	96.4025
1313.42	102.194
1314.94	121.944
1316.45	120.761
1317.97	132.759
1319.49	151.308
1321.01	152.88
1322.52	169.435
1324.04	189.204
1325.56	194.826
1327.07	191.807
1328.59	208.559
1330.11	204.862
1331.63	216.846
1333.14	224.56
1334.66	222.456
1336.18	224.415
1337.7	233.675
1339.21	214.93
1340.73	220.203
1342.25	199.372
1343.76	188.783
1345.28	190.912
1346.8	182.822
1348.32	161.46
1349.83	156.362
1351.35	156.922
1352.87	137.229
1354.39	131.329
1355.9	113.431
1357.42	102.838
1358.94	103.064
1360.46	84.8907
1361.97	87.22
1363.49	77.3359
1365.01	70.7506
1366.52	65.6818
1368.04	57.9428
1369.56	47.1137
1371.08	43.0906
1372.59	36.0797
1374.11	29.6263
1375.63	31.0982
1377.15	27.6519
1378.66	17.5377
1380.18	21.0055
1381.7	20.0438
1383.21	8.5916
1384.73	7.91299
1386.25	3.95097
1387.77	0.731888
1389.28	0.481766
1390.8	-2.30803
1392.32	-2.46277
1393.84	-1.14603
1395.35	-3.32739
1396.87	2.30269
1398.39	-2.27931
1399.91	-4.37935
1401.42	-14.991
1402.94	-4.66132
1404.46	-10.8615
1405.97	-15.1715
1407.49	-4.15182
1409.01	-15.6253
1410.53	-13.5947
1412.04	-19.2418
1413.56	-14.1035
1415.08	-18.4679
1416.6	-18.6424
1418.11	-15.4844
1419.63	-12.0076
1421.15	-18.4086
1422.66	-17.8835
1424.18	-18.4777
1425.7	-20.6843
1427.22	-21.7169
1428.73	-18.6821
1430.25	-16.4615
1431.77	-24.4149
1433.29	-20.0136
1434.8	-20.4323
1436.32	-19.4807
1437.84	-19.4896
1439.36	-19.1354
1440.87	-19.7058
1442.39	-24.7786
1443.91	-27.7976
1445.42	-33.1681
1446.94	-25.4135
1448.46	-26.8121
1449.98	-22.8399
1451.49	-26.2575
1453.01	-18.0824
1454.53	-21.2444
1456.05	-20.1578
1457.56	-22.9643
1459.08	-27.416
1460.6	-22.6282
1462.11	-23.8812
1463.63	-19.9811
1465.15	-22.6156
1466.67	-22.8671
1468.18	-22.3152
1469.7	-24.5791
1471.22	-23.8895
1472.74	-25.7104
1474.25	-23.304
1475.77	-20.3816
1477.29	-19.4727
1478.81	-21.1591
1480.32	-21.8172
1481.84	-19.2253
1483.36	-21.0074
1484.87	-20.4314
1486.39	-21.0304
1487.91	-23.0525
1489.43	-14.3287
1490.94	-18.0389
1492.46	-22.0316
1493.98	-12.2645
1495.5	-21.9505
1497.01	-19.7963
1498.53	-13.1039
1500.05	-7.6351
1501.56	-12.6479
1503.08	-14.181
1504.6	-6.61984
1506.12	-6.22624
1507.63	-11.6493
1509.15	-4.56438
1510.67	-13.2699
1512.19	-3.8716
1513.7	-5.94275
1515.22	-2.54832
1516.74	-1.80664
1518.26	1.30693
1519.77	-6.17635
1521.29	4.70728
1522.81	2.89775
1524.32	6.29082
1525.84	11.0158
1527.36	7.659
1528.88	17.2773
1530.39	15.4823
1531.91	23.5218
1533.43	17.7641
1534.95	31.8654
1536.46	30.05
1537.98	38.6878
1539.5	42.3025
1541.01	54.4446
1542.53	62.3703
1544.05	63.2034
1545.57	73.4276
1547.08	77.6571
1548.6	93.2056
1550.12	99.2734
1551.64	107.116
1553.15	124.34
1554.67	145.286
1556.19	148.587
1557.71	158.749
1559.22	165.243
1560.74	178.749
1562.26	197.029
1563.77	188.597
1565.29	196.865
1566.81	194.594
1568.33	207.123
1569.84	214.592
1571.36	210.42
1572.88	208.099
1574.4	199.142
1575.91	190.593
1577.43	189.431
1578.95	178.686
1580.46	173.388
1581.98	168.769
1583.5	149.757
1585.02	150.826
1586.53	137.412
1588.05	140.452
1589.57	127.636
1591.09	126.791
1592.6	120.616
1594.12	116.524
1595.64	111.889
1597.16	114.684
1598.67	108.014
1600.19	107.559
1601.71	108.011
1603.22	111.334
1604.74	97.6046
1606.26	92.4827
1607.78	87.5071
1609.29	84.8699
1610.81	80.7857
1612.33	71.6327
1613.85	58.2577
1615.36	47.2375
1616.88	47.2264
1618.4	40.1175
1619.91	34.5445
1621.43	35.459
1622.95	24.2685
1624.47	19.3335
1625.98	19.2981
1627.5	13.445
1629.02	9.20461
1630.54	13.3528
1632.05	4.49306
1633.57	4.46002
1635.09	1.33454
1636.6	-1.14123
1638.12	-6.35261
1639.64	-7.18625
1641.16	-6.63261
1642.67	-6.15433
1644.19	-9.27257
1645.71	-9.96064
1647.23	-8.68093
1648.74	-10.8859
1650.26	-9.12749
1651.78	-11.709
1653.3	-13.965
1654.81	-12.259
1656.33	-11.9981
1657.85	-14.8387
1659.36	-14.8743
1660.88	-15.9044
1662.4	-12.6884
1663.92	-14.3614
1665.43	-13.8514
1666.95	-15.5617
1668.47	-17.6423
1669.99	-17.5085
1671.5	-18.4329
1673.02	-16.9393
1674.54	-18.0166
1676.06	-16.868
1677.57	-16.7694
1679.09	-16.3187
1680.61	-17.6111
1682.12	-19.7238
1683.64	-16.3082
1685.16	-15.7296
1686.68	-15.6407
1688.19	-15.7173
1689.71	-17.4007
1691.23	-16.3872
1692.75	-18.2043
1694.26	-17.4491
1695.78	-16.981
1697.3	-16.7345
1698.81	-14.6994
1700.33	-14.264
1701.85	-15.9207
1703.37	-15.7142
1704.88	-15.088
1706.4	-16.0254
1707.92	-14.5582
1709.44	-15.1748
1710.95	-13.4479
1712.47	-13.9133
1713.99	-15.2123
1715.51	-12.8582
1717.02	-12.2791
1718.54	-13.7057
1720.06	-12.1225
1721.57	-11.8796
1723.09	-10.8437
1724.61	-13.3022
1726.13	-11.3653
1727.64	-10.1549
1729.16	-11.7528
1730.68	-11.3015
1732.2	-6.73711
1733.71	-12.1803
1735.23	-10.403
1736.75	-9.90936
1738.26	-11.3041
1739.78	-9.98309
1741.3	-8.1754
1742.82	-10.4614
1744.33	-9.18036
1745.85	-8.93786
1747.37	-8.21201
1748.89	-7.30358
1750.4	-9.25026
1751.92	-5.13854
1753.44	-6.81899
1754.95	-6.92297
1756.47	-8.31047
1757.99	-4.22453
1759.51	-5.66711
1761.02	-7.03896
1762.54	-7.6609
1764.06	-4.82743
1765.58	-4.33629
1767.09	-6.63602
1768.61	-5.29488
1770.13	-5.63565
1771.65	-5.29652
1773.16	-4.39147
1774.68	-1.6131
1776.2	-3.97304
1777.71	0.248667
1779.23	-2.13788
1780.75	-1.51021
1782.27	-2.28549
1783.78	1.63731
1785.3	-0.032437
1786.82	-1.43895
1788.34	0.337369
1789.85	0.692
1791.37	3.47001
1792.89	-0.77448
1794.4	5.84651
1795.92	3.14503
1797.44	3.34694
1798.96	1.2185
1800.47	3.24866
1801.99	5.29741
1803.51	1.68321
1805.03	2.01535
1806.54	2.43937
1808.06	7.59404
1809.58	4.47125
1811.1	4.37286
1812.61	6.11475
1814.13	4.74053
1815.65	6.88895
1817.16	5.32595
1818.68	3.56701
1820.2	9.94434
1821.72	6.97128
1823.23	12.4085
1824.75	9.35223
1826.27	8.70433
1827.79	9.10045
1829.3	8.80005
1830.82	7.68109
1832.34	8.15439
1833.85	12.605
1835.37	9.11012
1836.89	8.84236
1838.41	9.80285
1839.92	8.92348
1841.44	10.4853
1842.96	6.84366
1844.48	12.4381
1845.99	13.5868
1847.51	13.1754
1849.03	10.2187
1850.55	13.8227
1852.06	15.3791
1853.58	12.1605
1855.1	12.7912
1856.61	14.1008
1858.13	12.508
1859.65	12.3331
1861.17	13.2528
1862.68	11.853
1864.2	16.2629
1865.72	14.8836
1867.24	12.1971
1868.75	16.0758
1870.27	13.4257
1871.79	13.3147
1873.3	17.8978
1874.82	10.2056
1876.34	13.4887
1877.86	8.83413
1879.37	14.0687
1880.89	11.6067
1882.41	9.98394
1883.93	7.89346
1885.44	12.3563
1886.96	4.55495
1888.48	6.16277
1890	6.39226
1891.51	4.69305
1893.03	6.54526
1894.55	3.6826
1896.06	5.72736
1897.58	8.24811
1899.1	7.08946
1900.62	6.95245
1902.13	4.88713
1903.65	7.68668
1905.17	6.99963
1906.69	6.8174
1908.2	5.28897
1909.72	6.4566
1911.24	7.67577
1912.75	6.17349
1914.27	5.65182
1915.79	3.45786
1917.31	7.25558
1918.82	8.6125
1920.34	7.95392
1921.86	5.17546
1923.38	7.60794
1924.89	9.25404
1926.41	6.96454
1927.93	3.74808
1929.45	6.96849
1930.96	3.89574
1932.48	8.39616
1934	11.3073
1935.51	10.4742
1937.03	6.55238
1938.55	7.03137
1940.07	7.20128
1941.58	8.1611
1943.1	7.61104
1944.62	13.9528
1946.14	12.6627
1947.65	9.38161
1949.17	6.96376
1950.69	10.8121
1952.2	10.6087
1953.72	4.88712
1955.24	12.5482
1956.76	12.2717
1958.27	11.8035
1959.79	11.8703
1961.31	12.7797
1962.83	9.90614
1964.34	7.88335
1965.86	9.58488
1967.38	13.7037
1968.9	9.43422
1970.41	10.1724
1971.93	14.7214
1973.45	10.9223
1974.96	10.5676
1976.48	10.7754
1978	14.7629
1979.52	8.17166
1981.03	8.83443
1982.55	12.5447
1984.07	17.5939
1985.59	9.91547
1987.1	12.0923
1988.62	13.2193
1990.14	12.7456
1991.65	10.2246
1993.17	11.0493
1994.69	16.0562
1996.21	14.3701
1997.72	12.9424
1999.24	14.9406
2000	12.3089