File: Example Data/Raman/CNT - TIM/Raytheon/Al foil/2010/08-27-10/19 - bottom_1.txt
400	18.9989
401.517	18.4529
403.035	23.3668
404.552	24.8422
406.069	25.1772
407.587	24.109
409.104	21.9896
410.621	21.5882
412.138	18.7942
413.656	18.3127
415.173	22.33
416.69	24.5257
418.208	23.82
419.725	22.8169
421.242	23.7698
422.76	17.64
424.277	23.7871
425.794	21.8843
427.312	19.8694
428.829	22.3915
430.346	22.4387
431.863	27.9059
433.381	21.7257
434.898	22.2064
436.415	18.1751
437.933	19.1992
439.45	24.6664
440.967	25.3638
442.485	17.3216
444.002	20.7294
445.519	19.9349
447.036	18.7152
448.554	16.4487
450.071	16.7816
451.588	12.6429
453.106	18.0593
454.623	18.4603
456.14	21.4813
457.658	16.2014
459.175	20.3209
460.692	19.0687
462.21	12.8376
463.727	19.334
465.244	23.8907
466.762	16.3495
468.279	13.4279
469.796	13.0278
471.313	17.5808
472.831	16.4845
474.348	16.2139
475.865	15.1657
477.383	8.6816
478.9	16.8526
480.417	16.2864
481.935	14.1625
483.452	11.8828
484.969	14.1998
486.486	11.3411
488.004	7.11665
489.521	10.3454
491.038	8.02988
492.556	11.951
494.073	11.1866
495.59	6.94338
497.108	8.91506
498.625	4.59893
500.142	12.3873
501.66	7.07227
503.177	4.0873
504.694	11.2638
506.211	-3.29817
507.729	3.20248
509.246	4.73442
510.763	8.23465
512.281	1.7647
513.798	10.822
515.315	5.00488
516.833	4.82347
518.35	5.24696
519.867	4.95998
521.385	1.75249
522.902	5.14497
524.419	2.42887
525.936	2.0772
527.454	9.04195
528.971	5.08791
530.488	7.75655
532.006	9.45734
533.523	6.48804
535.04	7.85106
536.558	2.25887
538.075	3.70011
539.592	3.79712
541.11	3.15405
542.627	-1.7674
544.144	4.22867
545.661	0.210887
547.179	2.82149
548.696	5.02364
550.213	5.24221
551.731	-0.553086
553.248	5.35916
554.765	1.1238
556.283	1.37604
557.8	6.32646
559.317	3.76292
560.835	4.93105
562.352	1.5668
563.869	3.51503
565.386	0.51323
566.904	-1.94034
568.421	2.20861
569.938	2.02488
571.456	1.04469
572.973	3.15321
574.49	1.051
576.008	3.40569
577.525	2.40398
579.042	1.1944
580.56	-1.56565
582.077	9.34999
583.594	2.41931
585.111	6.95794
586.629	3.06893
588.146	1.15549
589.663	1.58663
591.181	-0.646387
592.698	3.32059
594.215	2.24474
595.733	3.2867
597.25	-1.94172
598.767	-0.470892
600.284	-1.50356
601.802	-2.17961
603.319	1.25201
604.836	2.46636
606.354	-0.936104
607.871	3.93959
609.388	2.70855
610.906	1.59767
612.423	-0.0580754
613.94	0.159354
615.458	1.41491
616.975	2.11655
618.492	3.62234
620.009	0.259968
621.527	-5.58711
623.044	-2.73449
624.561	-0.600968
626.079	0.223261
627.596	-3.1842
629.113	-3.89769
630.631	-9.80231
632.148	-3.36373
633.665	-3.15153
635.183	-1.42555
636.7	2.97842
638.217	6.19333
639.734	-4.94704
641.252	-6.58164
642.769	1.8378
644.286	-1.9632
645.804	-7.2881
647.321	-8.83299
648.838	-3.1583
650.356	3.09699
651.873	0.444344
653.39	-0.0265083
654.908	-3.15867
656.425	-5.63724
657.942	-3.90547
659.459	-7.70679
660.977	-2.45734
662.494	-1.27686
664.011	-3.87315
665.529	5.01396
667.046	-0.402448
668.563	3.29336
670.081	-4.6134
671.598	-2.25977
673.115	-0.138363
674.633	-3.96665
676.15	-2.48278
677.667	0.857068
679.184	1.13622
680.702	6.39241
682.219	-1.85271
683.736	2.17854
685.254	-1.49419
686.771	-3.10304
688.288	-3.0486
689.806	0.702132
691.323	-4.8739
692.84	1.02079
694.358	1.59054
695.875	-3.60395
697.392	-1.51975
698.909	-5.69042
700.427	0.336562
701.944	-3.30648
703.461	5.13511
704.979	-2.39169
706.496	1.26725
708.013	6.57075
709.531	4.50619
711.048	2.12569
712.565	11.3554
714.083	-2.60218
715.6	-7.90016
717.117	0.868269
718.634	1.5308
720.152	-1.67725
721.669	-0.298009
723.186	1.85639
724.704	0.109901
726.221	-1.28468
727.738	1.58214
729.256	0.490657
730.773	-0.1168
732.29	1.76048
733.807	9.89382
735.325	1.4549
736.842	8.73904
738.359	5.23249
739.877	0.0626121
741.394	8.29566
742.911	3.54426
744.429	6.57006
745.946	7.18815
747.463	6.71077
748.981	5.65529
750.498	6.31535
752.015	7.92535
753.532	10.3167
755.05	10.93
756.567	0.218937
758.084	9.07065
759.602	12.8919
761.119	5.57911
762.636	14.3275
764.154	13.6818
765.671	7.23922
767.188	9.26281
768.706	9.89865
770.223	10.2865
771.74	10.7508
773.257	6.81145
774.775	5.94127
776.292	5.81776
777.809	11.5211
779.327	5.72842
780.844	10.8573
782.361	14.1113
783.879	8.52166
785.396	12.6036
786.913	12.3176
788.431	12.0078
789.948	9.60283
791.465	7.92677
792.982	6.88603
794.5	11.3832
796.017	13.5637
797.534	20.3656
799.052	10.5819
800.569	14.0391
802.086	12.6485
803.604	14.6994
805.121	14.785
806.638	10.6463
808.156	12.8777
809.673	9.09717
811.19	3.85676
812.707	5.56184
814.225	13.9869
815.742	12.5347
817.259	6.1766
818.777	12.7001
820.294	14.1536
821.811	16.7477
823.329	12.5002
824.846	12.5783
826.363	12.2258
827.88	11.65
829.398	12.6685
830.915	13.2284
832.432	15.2528
833.95	13.0145
835.467	15.5364
836.984	16.015
838.502	10.2514
840.019	7.46923
841.536	7.08021
843.054	18.9912
844.571	12.4865
846.088	10.8467
847.606	9.58516
849.123	14.4958
850.64	16.232
852.157	13.2322
853.675	17.334
855.192	20.0872
856.709	8.60355
858.227	14.6454
859.744	14.7669
861.261	8.11507
862.779	14.3735
864.296	14.2203
865.813	15.1976
867.331	15.9753
868.848	11.0705
870.365	10.4344
871.882	6.82941
873.4	10.9275
874.917	7.86553
876.434	10.0496
877.952	14.7578
879.469	7.83185
880.986	4.79059
882.504	-0.988669
884.021	6.02062
885.538	8.75246
887.055	4.25803
888.573	10.0505
890.09	12.2397
891.607	7.57391
893.125	-2.29402
894.642	9.96915
896.159	1.63168
897.677	1.05972
899.194	5.52972
900.711	5.69444
902.229	3.64744
903.746	4.07696
905.263	1.69978
906.78	-3.03157
908.298	2.00143
909.815	-0.176647
911.332	7.00948
912.85	2.67435
914.367	2.41654
915.884	-3.25828
917.402	-1.38213
918.919	1.43642
920.436	3.04287
921.954	1.46336
923.471	1.15934
924.988	2.29843
926.505	-8.83954
928.023	-6.26771
929.54	-3.35339
931.057	-4.13115
932.575	2.46956
934.092	-3.03722
935.609	-2.44673
937.127	-0.599422
938.644	1.56465
940.161	-4.78123
941.679	-0.119445
943.196	-2.08928
944.713	2.73846
946.23	-1.18793
947.748	4.05063
949.265	4.38467
950.782	5.72322
952.3	-1.43338
953.817	6.8542
955.334	1.52335
956.852	0.982314
958.369	2.64304
959.886	1.82341
961.404	0.487127
962.921	1.54673
964.438	3.45933
965.955	1.33296
967.473	-3.05999
968.99	-6.11992
970.507	1.4083
972.025	0.699109
973.542	-2.95762
975.059	-6.67666
976.577	-2.27192
978.094	-1.18919
979.611	-4.9337
981.128	1.75768
982.646	1.87815
984.163	-7.99417
985.68	-5.81852
987.198	-7.22938
988.715	0.631192
990.232	-8.9687
991.75	-3.60118
993.267	-2.42754
994.784	-5.58142
996.302	-0.356056
997.819	-4.73794
999.336	-4.67939
1000.85	-1.85587
1002.37	-10.2877
1003.89	0.21201
1005.41	-2.91836
1006.92	-2.53362
1008.44	-8.44777
1009.96	-6.53068
1011.47	-5.04788
1012.99	-3.9764
1014.51	-1.32815
1016.03	2.76761
1017.54	-2.97628
1019.06	3.89549
1020.58	-2.06202
1022.1	-1.80237
1023.61	-1.78455
1025.13	-1.50918
1026.65	0.906032
1028.17	-0.147568
1029.68	1.22115
1031.2	1.09356
1032.72	2.89475
1034.23	1.92876
1035.75	7.58329
1037.27	4.0717
1038.79	3.07033
1040.3	2.42882
1041.82	4.28001
1043.34	-4.11886
1044.86	-1.71999
1046.37	-2.69843
1047.89	-1.58062
1049.41	-1.81204
1050.92	-2.92446
1052.44	-5.53847
1053.96	2.60698
1055.48	3.71381
1056.99	0.284955
1058.51	-3.78992
1060.03	-0.269001
1061.55	1.90465
1063.06	0.00713723
1064.58	-4.85134
1066.1	-6.09199
1067.61	-0.010426
1069.13	-15.4
1070.65	-2.39758
1072.17	-1.49127
1073.68	4.73483
1075.2	-5.01534
1076.72	-1.15333
1078.24	0.0273538
1079.75	-2.92417
1081.27	-0.39543
1082.79	-6.3943
1084.31	-5.51446
1085.82	2.06208
1087.34	-3.9736
1088.86	-2.18854
1090.37	-5.23127
1091.89	-0.739783
1093.41	-1.09894
1094.93	-9.27296
1096.44	-6.4532
1097.96	-5.67059
1099.48	-2.62073
1101	-7.28223
1102.51	2.03461
1104.03	-4.78993
1105.55	-3.70655
1107.06	-9.30245
1108.58	0.431373
1110.1	-4.11424
1111.62	2.59631
1113.13	2.12192
1114.65	-2.58108
1116.17	2.43165
1117.69	3.1827
1119.2	3.95004
1120.72	-8.0645
1122.24	5.38166
1123.76	2.63574
1125.27	-2.65357
1126.79	1.41548
1128.31	1.88394
1129.82	5.81847
1131.34	1.14237
1132.86	5.68029
1134.38	14.2249
1135.89	24.9262
1137.41	19.6213
1138.93	21.9358
1140.45	19.9651
1141.96	21.8842
1143.48	18.5908
1145	25.4575
1146.51	29.6122
1148.03	22.0799
1149.55	22.41
1151.07	24.4323
1152.58	28.0038
1154.1	30.6793
1155.62	47.4773
1157.14	30.6745
1158.65	36.5211
1160.17	35.4282
1161.69	39.966
1163.21	32.3942
1164.72	37.3454
1166.24	39.6411
1167.76	45.0973
1169.27	34.5794
1170.79	46.8607
1172.31	42.5673
1173.83	44.4536
1175.34	41.9556
1176.86	36.6986
1178.38	39.4214
1179.9	41.664
1181.41	47.497
1182.93	37.9408
1184.45	41.982
1185.96	47.8312
1187.48	41.9688
1189	47.1137
1190.52	40.9838
1192.03	42.6076
1193.55	42.5655
1195.07	41.7596
1196.59	47.1938
1198.1	46.0376
1199.62	48.6337
1201.14	49.3221
1202.66	44.4366
1204.17	46.5082
1205.69	47.3072
1207.21	46.5808
1208.72	57.3765
1210.24	50.7187
1211.76	53.368
1213.28	53.2711
1214.79	47.6816
1216.31	47.0867
1217.83	50.5895
1219.35	51.0214
1220.86	52.7043
1222.38	55.7619
1223.9	56.3984
1225.41	54.8713
1226.93	62.5682
1228.45	60.3133
1229.97	56.5463
1231.48	62.2975
1233	64.9529
1234.52	58.6184
1236.04	61.6792
1237.55	68.5576
1239.07	73.6874
1240.59	65.1653
1242.11	66.7008
1243.62	80.4764
1245.14	73.227
1246.66	78.1675
1248.17	80.4002
1249.69	81.2794
1251.21	86.1592
1252.73	87.4715
1254.24	92.2033
1255.76	90.3285
1257.28	93.8991
1258.8	95.0499
1260.31	91.417
1261.83	102.549
1263.35	107.484
1264.86	113.966
1266.38	106.838
1267.9	114.297
1269.42	115.289
1270.93	134.48
1272.45	130.682
1273.97	136.067
1275.49	127.736
1277	143.269
1278.52	136.009
1280.04	151.656
1281.56	158.509
1283.07	149.626
1284.59	174.357
1286.11	160.93
1287.62	167.963
1289.14	176.867
1290.66	183.07
1292.18	176.098
1293.69	189.325
1295.21	210.517
1296.73	212.765
1298.25	194.032
1299.76	240.638
1301.28	243.316
1302.8	235.367
1304.31	236.941
1305.83	266.372
1307.35	256.794
1308.87	264.203
1310.38	268.838
1311.9	289.767
1313.42	278.582
1314.94	279.226
1316.45	310.341
1317.97	296.013
1319.49	301.692
1321.01	309.631
1322.52	298.224
1324.04	325.212
1325.56	346.761
1327.07	333.21
1328.59	335.712
1330.11	355.712
1331.63	347.497
1333.14	356.122
1334.66	362.531
1336.18	353.986
1337.7	371.112
1339.21	361.106
1340.73	365.887
1342.25	362.003
1343.76	361.797
1345.28	347.197
1346.8	356.237
1348.32	358.371
1349.83	366.226
1351.35	354.515
1352.87	347.677
1354.39	343.393
1355.9	350.344
1357.42	320.563
1358.94	324.684
1360.46	320.39
1361.97	321.692
1363.49	311.282
1365.01	300.05
1366.52	299.773
1368.04	266.581
1369.56	287.502
1371.08	282.403
1372.59	271.163
1374.11	261.738
1375.63	251.804
1377.15	251.563
1378.66	237.812
1380.18	238.938
1381.7	229.009
1383.21	217.612
1384.73	209.151
1386.25	204.741
1387.77	196.81
1389.28	182.552
1390.8	179.984
1392.32	173.982
1393.84	164.194
1395.35	157.106
1396.87	148.643
1398.39	151.007
1399.91	134.28
1401.42	136.186
1402.94	129.213
1404.46	136.356
1405.97	128.887
1407.49	84.3584
1409.01	95.644
1410.53	103.075
1412.04	86.1328
1413.56	90.8864
1415.08	92.7754
1416.6	85.5464
1418.11	79.6674
1419.63	76.0748
1421.15	55.9844
1422.66	59.3194
1424.18	64.1925
1425.7	64.0566
1427.22	55.301
1428.73	57.3812
1430.25	48.1281
1431.77	48.3519
1433.29	45.3465
1434.8	53.5709
1436.32	48.6878
1437.84	46.4727
1439.36	36.0906
1440.87	37.8727
1442.39	26.7134
1443.91	27.6583
1445.42	14.5134
1446.94	22.9452
1448.46	32.8123
1449.98	13.4665
1451.49	2.71059
1453.01	9.51131
1454.53	7.6234
1456.05	12.3119
1457.56	9.32889
1459.08	0.658971
1460.6	5.04239
1462.11	2.18497
1463.63	4.13115
1465.15	-2.12127
1466.67	2.96323
1468.18	13.7833
1469.7	0.452748
1471.22	1.23171
1472.74	14.8177
1474.25	-6.06785
1475.77	-5.89936
1477.29	-0.933865
1478.81	5.16684
1480.32	-13.1796
1481.84	0.458056
1483.36	-7.50659
1484.87	-8.982
1486.39	-6.63516
1487.91	-2.64253
1489.43	-5.62759
1490.94	8.75438
1492.46	4.15568
1493.98	-2.20028
1495.5	-5.58653
1497.01	-8.38756
1498.53	0.666484
1500.05	12.8105
1501.56	-3.04446
1503.08	-1.65851
1504.6	-8.59062
1506.12	6.38641
1507.63	-0.874933
1509.15	9.11141
1510.67	-1.98161
1512.19	6.63419
1513.7	-6.35639
1515.22	5.57584
1516.74	19.9734
1518.26	8.86949
1519.77	18.2464
1521.29	14.9502
1522.81	24.2777
1524.32	24.0681
1525.84	30.9384
1527.36	29.7889
1528.88	43.2786
1530.39	35.9137
1531.91	37.3493
1533.43	43.1428
1534.95	51.1255
1536.46	61.2845
1537.98	52.403
1539.5	53.6255
1541.01	77.8982
1542.53	78.8148
1544.05	74.958
1545.57	74.8146
1547.08	76.8083
1548.6	87.599
1550.12	99.6287
1551.64	103.806
1553.15	110.413
1554.67	112.696
1556.19	122.701
1557.71	134.442
1559.22	136.605
1560.74	137.798
1562.26	149.215
1563.77	151.005
1565.29	180.728
1566.81	172.458
1568.33	185.555
1569.84	193.388
1571.36	220.206
1572.88	227.708
1574.4	227.283
1575.91	249.004
1577.43	267.708
1578.95	273.882
1580.46	299.939
1581.98	305.738
1583.5	307.843
1585.02	324.664
1586.53	343.994
1588.05	363.731
1589.57	354.853
1591.09	372.646
1592.6	391.173
1594.12	400.912
1595.64	415.68
1597.16	409.975
1598.67	419.918
1600.19	423.69
1601.71	443.096
1603.22	412.171
1604.74	431.028
1606.26	424.924
1607.78	426.695
1609.29	425.118
1610.81	419.375
1612.33	402.088
1613.85	396.515
1615.36	395.164
1616.88	368.82
1618.4	366.563
1619.91	333.073
1621.43	323.818
1622.95	312.555
1624.47	286.6
1625.98	268.527
1627.5	257.728
1629.02	234.817
1630.54	225.833
1632.05	192.342
1633.57	192.055
1635.09	173.32
1636.6	168.377
1638.12	148.722
1639.64	141.717
1641.16	133.403
1642.67	114.534
1644.19	116.754
1645.71	106.815
1647.23	94.5438
1648.74	92.5061
1650.26	82.7528
1651.78	83.5964
1653.3	71.2568
1654.81	69.0323
1656.33	51.115
1657.85	47.459
1659.36	44.8774
1660.88	35.8412
1662.4	37.6375
1663.92	25.4611
1665.43	24.1203
1666.95	22.8994
1668.47	15.0095
1669.99	12.574
1671.5	6.72382
1673.02	15.0544
1674.54	2.90724
1676.06	1.52406
1677.57	1.95492
1679.09	-0.827435
1680.61	-4.18502
1682.12	-5.28012
1683.64	-3.82742
1685.16	-2.86239
1686.68	-9.15935
1688.19	-6.23422
1689.71	-4.65613
1691.23	-9.34979
1692.75	-9.41142
1694.26	-8.99084
1695.78	-6.58455
1697.3	-9.44816
1698.81	-7.35788
1700.33	-8.06619
1701.85	-8.48687
1703.37	-9.03697
1704.88	-5.85216
1706.4	-8.34917
1707.92	-4.56342
1709.44	-2.53916
1710.95	-2.01964
1712.47	-4.5136
1713.99	-1.62649
1715.51	-2.99159
1717.02	-5.60413
1718.54	-2.7864
1720.06	-0.318218
1721.57	-2.66015
1723.09	-6.7606
1724.61	-3.21679
1726.13	-5.6757
1727.64	-0.0479145
1729.16	-2.30605
1730.68	-1.31982
1732.2	-3.76348
1733.71	-3.62287
1735.23	-0.787281
1736.75	2.97948
1738.26	-1.74306
1739.78	-2.77605
1741.3	-1.95936
1742.82	-2.89176
1744.33	0.91818
1745.85	-1.17834
1747.37	4.59474
1748.89	0.702595
1750.4	-0.539485
1751.92	3.35022
1753.44	2.17227
1754.95	2.74906
1756.47	3.83202
1757.99	3.591
1759.51	3.37394
1761.02	6.20717
1762.54	5.79532
1764.06	7.51344
1765.58	2.28934
1767.09	5.21617
1768.61	0.843916
1770.13	3.41217
1771.65	2.93711
1773.16	5.61686
1774.68	4.11248
1776.2	6.12744
1777.71	6.46982
1779.23	-0.57465
1780.75	2.15606
1782.27	0.541798
1783.78	5.2811
1785.3	7.12534
1786.82	3.58238
1788.34	-0.576466
1789.85	2.20248
1791.37	-0.542439
1792.89	4.15122
1794.4	3.44015
1795.92	6.32817
1797.44	5.9257
1798.96	2.81913
1800.47	4.8087
1801.99	5.1754
1803.51	4.62337
1805.03	1.5674
1806.54	1.70951
1808.06	5.39762
1809.58	0.780272
1811.1	2.83533
1812.61	1.71696
1814.13	3.05803
1815.65	5.58198
1817.16	3.27476
1818.68	5.46873
1820.2	3.28508
1821.72	1.84317
1823.23	1.17396
1824.75	1.63265
1826.27	0.116644
1827.79	-1.69872
1829.3	-0.902017
1830.82	-0.982398
1832.34	5.51095
1833.85	4.4585
1835.37	7.34231
1836.89	4.24682
1838.41	0.550525
1839.92	3.82725
1841.44	1.0842
1842.96	4.3987
1844.48	-1.64809
1845.99	0.986261
1847.51	-2.54978
1849.03	3.99816
1850.55	2.13108
1852.06	1.13474
1853.58	3.4004
1855.1	3.07353
1856.61	0.917359
1858.13	4.24012
1859.65	-0.180029
1861.17	2.99095
1862.68	1.98418
1864.2	1.27851
1865.72	0.737478
1867.24	0.637681
1868.75	-1.73764
1870.27	1.17175
1871.79	3.14091
1873.3	1.681
1874.82	1.80424
1876.34	-1.09087
1877.86	-4.91486
1879.37	-3.46658
1880.89	-0.537859
1882.41	2.85746
1883.93	1.1565
1885.44	1.7462
1886.96	-0.980139
1888.48	4.62735
1890	-0.319968
1891.51	0.359103
1893.03	-5.50679
1894.55	0.224822
1896.06	-2.96135
1897.58	5.65109
1899.1	-3.86732
1900.62	1.71216
1902.13	-2.87847
1903.65	1.09531
1905.17	-0.62485
1906.69	1.39566
1908.2	-4.17622
1909.72	0.265403
1911.24	-2.83288
1912.75	-2.00805
1914.27	2.29916
1915.79	-1.55811
1917.31	2.04666
1918.82	-1.10548
1920.34	-1.26064
1921.86	0.94772
1923.38	0.182001
1924.89	-5.50709
1926.41	1.62876
1927.93	3.00371
1929.45	-0.446391
1930.96	-4.95307
1932.48	-4.42326
1934	3.45938
1935.51	-2.36616
1937.03	-0.718539
1938.55	2.27921
1940.07	2.10705
1941.58	2.77083
1943.1	-2.6405
1944.62	-4.40865
1946.14	-1.78033
1947.65	3.30078
1949.17	2.66475
1950.69	1.49694
1952.2	3.11994
1953.72	-1.36549
1955.24	0.852143
1956.76	-3.14045
1958.27	-1.39407
1959.79	6.45442
1961.31	-1.47541
1962.83	1.01633
1964.34	-1.1854
1965.86	1.24
1967.38	-1.61266
1968.9	1.41225
1970.41	0.0837858
1971.93	7.21131
1973.45	3.03401
1974.96	3.24609
1976.48	4.54353
1978	1.73081
1979.52	1.1082
1981.03	3.39983
1982.55	4.15734
1984.07	3.438
1985.59	1.63125
1987.1	6.62506
1988.62	3.68982
1990.14	2.88292
1991.65	0.79059
1993.17	-3.20374
1994.69	3.35883
1996.21	4.85934
1997.72	7.28276
1999.24	3.78837
2000	0.354219