File: Example Data/Raman/CNT - TIM/Raytheon/Al foil/2010/08-27-10/19 - top_2.txt
400	15.3036
401.517	13.2798
403.035	17.6503
404.552	20.5979
406.069	19.7354
407.587	21.5273
409.104	24.2504
410.621	19.0881
412.138	21.3942
413.656	17.1165
415.173	13.0628
416.69	16.5389
418.208	17.2714
419.725	24.3845
421.242	18.4953
422.76	19.7426
424.277	16.439
425.794	23.2144
427.312	16.4909
428.829	20.8972
430.346	20.3843
431.863	18.5925
433.381	13.6476
434.898	17.4956
436.415	13.3549
437.933	13.9809
439.45	24.6348
440.967	17.1575
442.485	17.8218
444.002	17.2848
445.519	20.1211
447.036	16.1416
448.554	18.7132
450.071	13.5902
451.588	10.8204
453.106	14.7686
454.623	15.1128
456.14	14.3127
457.658	11.8037
459.175	15.4817
460.692	13.2363
462.21	15.1639
463.727	16.2254
465.244	18.8528
466.762	8.8762
468.279	7.56673
469.796	13.9163
471.313	5.57125
472.831	12.3226
474.348	12.4891
475.865	10.0116
477.383	13.6443
478.9	3.84156
480.417	8.71481
481.935	9.28055
483.452	11.6886
484.969	14.2639
486.486	10.1173
488.004	9.51058
489.521	9.32408
491.038	10.1899
492.556	4.62892
494.073	3.1204
495.59	-2.52921
497.108	6.94149
498.625	2.47895
500.142	2.33761
501.66	4.25107
503.177	5.14992
504.694	2.76482
506.211	6.13384
507.729	4.4025
509.246	2.79284
510.763	1.18074
512.281	4.30221
513.798	4.48372
515.315	-1.61731
516.833	-1.66308
518.35	3.45072
519.867	3.90119
521.385	3.68872
522.902	0.186022
524.419	2.05436
525.936	2.08376
527.454	-0.716449
528.971	0.291768
530.488	1.24575
532.006	-3.0003
533.523	-0.926151
535.04	-0.366466
536.558	-0.026055
538.075	-4.24856
539.592	-0.139032
541.11	2.83316
542.627	-0.722921
544.144	-4.8701
545.661	-5.8242
547.179	2.6428
548.696	-2.22108
550.213	4.32262
551.731	-3.8196
553.248	-3.67661
554.765	-1.41976
556.283	-0.258572
557.8	-6.77402
559.317	-5.24156
560.835	0.168574
562.352	2.06914
563.869	-1.73356
565.386	-3.41534
566.904	-1.72792
568.421	-1.44743
569.938	1.6584
571.456	1.92976
572.973	-2.82924
574.49	-1.1233
576.008	-2.43093
577.525	1.76894
579.042	-0.789967
580.56	-3.56062
582.077	0.638738
583.594	-6.39374
585.111	-5.2511
586.629	-3.97385
588.146	3.28282
589.663	-0.959041
591.181	2.58247
592.698	-5.11625
594.215	-0.790764
595.733	-0.998715
597.25	1.60152
598.767	0.228575
600.284	1.2447
601.802	-1.30094
603.319	-0.695436
604.836	1.72243
606.354	-3.69717
607.871	-0.692416
609.388	4.31194
610.906	-1.73581
612.423	-3.38932
613.94	-6.08438
615.458	2.1188
616.975	1.85154
618.492	-3.10355
620.009	-0.933301
621.527	1.2661
623.044	-3.99637
624.561	-0.406119
626.079	-0.389304
627.596	-3.64887
629.113	-4.4088
630.631	-9.46256
632.148	-2.07573
633.665	0.439648
635.183	-0.444298
636.7	-0.512947
638.217	-3.1179
639.734	-0.27823
641.252	0.280364
642.769	1.35987
644.286	0.913061
645.804	0.116712
647.321	1.78003
648.838	-1.21703
650.356	-4.76494
651.873	2.72129
653.39	-2.39716
654.908	-1.52253
656.425	-6.15776
657.942	-6.07694
659.459	-1.42256
660.977	-0.394738
662.494	1.6974
664.011	-1.66656
665.529	3.36712
667.046	-3.68198
668.563	-3.92657
670.081	-0.674984
671.598	0.820927
673.115	-7.00747
674.633	-0.596314
676.15	-2.23073
677.667	0.177101
679.184	-4.68054
680.702	-2.49824
682.219	0.352446
683.736	-6.14832
685.254	-3.75624
686.771	-5.5883
688.288	-1.03225
689.806	-4.55612
691.323	-0.874587
692.84	-7.56207
694.358	-2.70822
695.875	-2.23732
697.392	1.71088
698.909	-4.1519
700.427	0.496702
701.944	-1.90317
703.461	-0.0158828
704.979	-6.1799
706.496	-4.39489
708.013	-6.9755
709.531	-3.28447
711.048	-4.3335
712.565	11.6531
714.083	-1.76424
715.6	-2.32773
717.117	-3.28292
718.634	-2.46238
720.152	0.23786
721.669	1.05947
723.186	3.19369
724.704	4.81699
726.221	-2.17654
727.738	3.22555
729.256	-0.525787
730.773	-3.37701
732.29	-4.17136
733.807	-6.27592
735.325	-1.47588
736.842	2.6619
738.359	3.29618
739.877	-0.488759
741.394	-2.34914
742.911	1.76382
744.429	5.03206
745.946	4.98941
747.463	1.33025
748.981	2.93417
750.498	4.6797
752.015	4.98968
753.532	4.01677
755.05	1.57594
756.567	-5.94004
758.084	1.01723
759.602	3.16505
761.119	2.61843
762.636	-0.148184
764.154	2.29049
765.671	3.98335
767.188	5.13125
768.706	5.85695
770.223	-1.45701
771.74	-2.45014
773.257	1.35313
774.775	1.9533
776.292	4.94651
777.809	0.968169
779.327	2.26714
780.844	2.70316
782.361	6.68501
783.879	4.37699
785.396	-0.672011
786.913	-6.13188
788.431	-2.75841
789.948	-3.4063
791.465	0.904514
792.982	0.365379
794.5	7.22557
796.017	4.72617
797.534	-0.893975
799.052	-7.03815
800.569	10.5629
802.086	4.67887
803.604	-3.25937
805.121	0.977853
806.638	2.23861
808.156	5.02063
809.673	5.06273
811.19	8.65331
812.707	7.15599
814.225	5.64747
815.742	5.41442
817.259	5.85453
818.777	11.071
820.294	9.67854
821.811	3.27644
823.329	11.3737
824.846	11.2767
826.363	4.52085
827.88	0.212331
829.398	6.47405
830.915	6.54515
832.432	1.06496
833.95	0.433475
835.467	9.08431
836.984	6.26438
838.502	5.58057
840.019	10.7033
841.536	2.44727
843.054	6.07868
844.571	4.69745
846.088	11.5377
847.606	12.3846
849.123	1.44284
850.64	3.41301
852.157	4.94787
853.675	6.76481
855.192	9.10412
856.709	10.1772
858.227	11.304
859.744	10.7218
861.261	-0.00863498
862.779	-4.50094
864.296	17.272
865.813	6.69222
867.331	3.69605
868.848	5.12268
870.365	0.803917
871.882	4.66496
873.4	-2.53404
874.917	-0.298996
876.434	-1.88923
877.952	-8.75605
879.469	-4.39149
880.986	4.18389
882.504	-4.52211
884.021	-4.33716
885.538	-0.680316
887.055	-4.04496
888.573	-5.54886
890.09	-9.91978
891.607	-13.6343
893.125	-3.36594
894.642	-9.71803
896.159	-9.2458
897.677	0.790205
899.194	-8.76101
900.711	-8.88584
902.229	-7.66108
903.746	-7.47582
905.263	-9.58202
906.78	-7.00602
908.298	-10.6589
909.815	-11.2603
911.332	-7.55133
912.85	-10.7618
914.367	-8.05171
915.884	-11.2796
917.402	-7.66446
918.919	-13.5333
920.436	-9.77841
921.954	-6.64577
923.471	-9.02802
924.988	-7.61484
926.505	-10.2915
928.023	-12.3291
929.54	-9.98586
931.057	-3.13992
932.575	-13.4901
934.092	-9.13237
935.609	-7.82818
937.127	-7.79858
938.644	-6.81502
940.161	-12.5547
941.679	-11.7179
943.196	-6.01892
944.713	-14.9484
946.23	-13.7313
947.748	-11.2871
949.265	-9.25677
950.782	-10.6365
952.3	-9.85929
953.817	-12.3019
955.334	-16.4723
956.852	-7.27474
958.369	-15.9937
959.886	-9.39551
961.404	-8.25234
962.921	-17.1391
964.438	-8.90138
965.955	-0.869621
967.473	-5.26619
968.99	-5.46572
970.507	-8.70016
972.025	-2.94225
973.542	-9.30911
975.059	-2.66394
976.577	-8.80219
978.094	-11.8224
979.611	-2.60241
981.128	-0.897184
982.646	-0.513861
984.163	-3.65662
985.68	0.551792
987.198	4.99548
988.715	2.9606
990.232	3.48443
991.75	-4.139
993.267	-0.644055
994.784	6.27344
996.302	6.44628
997.819	-2.88995
999.336	-0.235124
1000.85	-1.11322
1002.37	-2.46137
1003.89	-3.82638
1005.41	-0.299559
1006.92	3.39794
1008.44	-4.06711
1009.96	7.39693
1011.47	-0.149189
1012.99	5.54244
1014.51	4.40615
1016.03	3.0435
1017.54	-8.57872
1019.06	-0.63298
1020.58	-5.00861
1022.1	0.243964
1023.61	3.30013
1025.13	7.90702
1026.65	3.71734
1028.17	3.38019
1029.68	8.76862
1031.2	-1.12941
1032.72	6.79572
1034.23	13.0439
1035.75	4.65033
1037.27	-0.708906
1038.79	5.68018
1040.3	8.88666
1041.82	5.87689
1043.34	2.3976
1044.86	1.12382
1046.37	8.71169
1047.89	1.1949
1049.41	5.44429
1050.92	9.56993
1052.44	8.63389
1053.96	4.62957
1055.48	2.4559
1056.99	4.12655
1058.51	-3.87281
1060.03	0.220959
1061.55	6.6817
1063.06	-2.54665
1064.58	-0.418634
1066.1	3.5381
1067.61	-1.11404
1069.13	-2.5285
1070.65	2.53152
1072.17	-4.82892
1073.68	-1.32652
1075.2	-9.85787
1076.72	-1.11164
1078.24	-4.48027
1079.75	-10.5441
1081.27	2.11528
1082.79	3.66191
1084.31	0.479494
1085.82	0.273148
1087.34	-3.79195
1088.86	-5.50025
1090.37	-5.82933
1091.89	-6.06543
1093.41	0.813747
1094.93	6.63507
1096.44	-5.1766
1097.96	-1.7029
1099.48	-3.45483
1101	-7.03397
1102.51	-1.30723
1104.03	-3.84683
1105.55	-0.656437
1107.06	2.81706
1108.58	4.49114
1110.1	3.82464
1111.62	-4.55834
1113.13	-2.37005
1114.65	1.72587
1116.17	-0.836772
1117.69	4.83352
1119.2	7.24785
1120.72	8.731
1122.24	-3.2536
1123.76	3.52923
1125.27	1.97606
1126.79	0.242362
1128.31	-0.155154
1129.82	10.9611
1131.34	4.69102
1132.86	8.25463
1134.38	-3.71648
1135.89	10.0866
1137.41	2.92762
1138.93	15.9623
1140.45	9.7736
1141.96	14.1356
1143.48	8.12967
1145	15.2191
1146.51	22.0325
1148.03	21.5588
1149.55	17.4774
1151.07	11.9859
1152.58	21.3738
1154.1	22.2431
1155.62	22.3641
1157.14	28.0795
1158.65	19.8079
1160.17	26.4638
1161.69	14.9504
1163.21	24.6001
1164.72	21.4991
1166.24	24.8007
1167.76	19.8884
1169.27	21.9289
1170.79	23.7208
1172.31	23.5167
1173.83	19.5004
1175.34	25.6718
1176.86	25.5235
1178.38	25.4066
1179.9	27.544
1181.41	27.1465
1182.93	28.1845
1184.45	33.288
1185.96	28.2423
1187.48	31.3632
1189	29.0719
1190.52	31.8132
1192.03	27.2173
1193.55	39.2353
1195.07	34.6981
1196.59	28.8117
1198.1	32.3784
1199.62	35.1714
1201.14	35.0251
1202.66	38.3983
1204.17	42.3224
1205.69	31.0726
1207.21	34.4346
1208.72	38.222
1210.24	44.104
1211.76	42.4965
1213.28	42.1458
1214.79	45.6504
1216.31	40.3146
1217.83	41.7371
1219.35	39.3449
1220.86	47.1579
1222.38	46.7773
1223.9	37.8346
1225.41	42.915
1226.93	43.2777
1228.45	55.6845
1229.97	49.1264
1231.48	56.7396
1233	50.2521
1234.52	50.31
1236.04	60.166
1237.55	66.1814
1239.07	61.9656
1240.59	70.7654
1242.11	67.4367
1243.62	52.8523
1245.14	70.1447
1246.66	72.3022
1248.17	71.3329
1249.69	82.8845
1251.21	84.2446
1252.73	80.161
1254.24	69.8826
1255.76	78.4373
1257.28	84.9131
1258.8	96.5599
1260.31	98.3575
1261.83	95.9779
1263.35	103.243
1264.86	102.482
1266.38	111.102
1267.9	116.159
1269.42	127.541
1270.93	114.917
1272.45	123.158
1273.97	134.048
1275.49	113.536
1277	160.453
1278.52	171.585
1280.04	162.384
1281.56	161.614
1283.07	146.031
1284.59	162.723
1286.11	179.461
1287.62	173.635
1289.14	180.007
1290.66	175.986
1292.18	193.003
1293.69	214.388
1295.21	214.445
1296.73	217.91
1298.25	239.37
1299.76	246.275
1301.28	239.185
1302.8	255.348
1304.31	271.825
1305.83	268.725
1307.35	289.252
1308.87	302.014
1310.38	308.797
1311.9	311.102
1313.42	338.149
1314.94	330.313
1316.45	339.315
1317.97	354.883
1319.49	373.692
1321.01	357.293
1322.52	375.663
1324.04	405.961
1325.56	428.727
1327.07	444.518
1328.59	437.916
1330.11	454.13
1331.63	482.15
1333.14	476.561
1334.66	456.394
1336.18	469.2
1337.7	491.27
1339.21	478.277
1340.73	500.247
1342.25	496.713
1343.76	493.57
1345.28	531.888
1346.8	500.122
1348.32	509.011
1349.83	500.875
1351.35	496.021
1352.87	522.573
1354.39	494.204
1355.9	514.673
1357.42	500.025
1358.94	461.863
1360.46	480.905
1361.97	457.489
1363.49	460.67
1365.01	441.45
1366.52	418.489
1368.04	432.117
1369.56	396.464
1371.08	404.643
1372.59	381.953
1374.11	365.588
1375.63	341.072
1377.15	343.226
1378.66	335.284
1380.18	311.315
1381.7	292.922
1383.21	290.402
1384.73	273.866
1386.25	273.918
1387.77	272.749
1389.28	252.954
1390.8	243.554
1392.32	222.63
1393.84	225.383
1395.35	210.748
1396.87	205.962
1398.39	209.629
1399.91	177.136
1401.42	186.722
1402.94	169.763
1404.46	152.246
1405.97	160.764
1407.49	143.483
1409.01	140.823
1410.53	126.142
1412.04	136.752
1413.56	120.137
1415.08	104.26
1416.6	107.432
1418.11	107.954
1419.63	95.5071
1421.15	94.7373
1422.66	68.7271
1424.18	84.3422
1425.7	87.4099
1427.22	76.1314
1428.73	88.7944
1430.25	74.6788
1431.77	64.2999
1433.29	54.4486
1434.8	43.632
1436.32	64.83
1437.84	46.8645
1439.36	37.7637
1440.87	59.7839
1442.39	51.3908
1443.91	43.8739
1445.42	44.2547
1446.94	20.2053
1448.46	24.1085
1449.98	23.5401
1451.49	29.1392
1453.01	22.1396
1454.53	21.0535
1456.05	27.9935
1457.56	16.736
1459.08	15.2192
1460.6	16.881
1462.11	19.437
1463.63	11.7255
1465.15	10.1188
1466.67	4.4084
1468.18	14.6568
1469.7	19.2606
1471.22	8.88527
1472.74	-4.02372
1474.25	-6.91579
1475.77	6.77638
1477.29	9.20926
1478.81	-0.555795
1480.32	4.19385
1481.84	-2.73109
1483.36	10.5727
1484.87	3.28309
1486.39	-3.27297
1487.91	-3.22911
1489.43	-1.69092
1490.94	-9.46399
1492.46	9.39265
1493.98	-11.3998
1495.5	-3.50679
1497.01	7.36053
1498.53	-5.69859
1500.05	3.97942
1501.56	4.05726
1503.08	6.57345
1504.6	4.08339
1506.12	19.1818
1507.63	21.5988
1509.15	16.8375
1510.67	35.3172
1512.19	15.393
1513.7	30.4789
1515.22	33.743
1516.74	39.6594
1518.26	39.9211
1519.77	28.852
1521.29	37.7501
1522.81	60.6569
1524.32	44.1217
1525.84	49.8199
1527.36	62.7387
1528.88	62.0003
1530.39	70.6391
1531.91	69.3445
1533.43	86.2885
1534.95	91.0673
1536.46	96.1116
1537.98	91.5737
1539.5	120.2
1541.01	104.867
1542.53	115.739
1544.05	108.879
1545.57	136.213
1547.08	145.719
1548.6	155.695
1550.12	146.215
1551.64	168.717
1553.15	174.001
1554.67	192.567
1556.19	211.958
1557.71	225.471
1559.22	214.197
1560.74	227.792
1562.26	242.251
1563.77	258.418
1565.29	267.163
1566.81	266.382
1568.33	304.675
1569.84	311.714
1571.36	332.443
1572.88	326.646
1574.4	350.499
1575.91	370.595
1577.43	380.608
1578.95	383.298
1580.46	414.136
1581.98	417.83
1583.5	447.549
1585.02	460.388
1586.53	480.001
1588.05	477.933
1589.57	478.238
1591.09	488.483
1592.6	519.195
1594.12	516.077
1595.64	520.07
1597.16	538.323
1598.67	559.652
1600.19	543.442
1601.71	540.176
1603.22	552.935
1604.74	536.275
1606.26	530.784
1607.78	532.499
1609.29	519.093
1610.81	530.424
1612.33	502.416
1613.85	495.022
1615.36	481.067
1616.88	464.773
1618.4	449.368
1619.91	458.901
1621.43	429.67
1622.95	414.469
1624.47	390.22
1625.98	379.488
1627.5	367.162
1629.02	331.868
1630.54	315.708
1632.05	307.689
1633.57	288.679
1635.09	268.044
1636.6	254.979
1638.12	235.581
1639.64	230.92
1641.16	212.554
1642.67	195.089
1644.19	191.684
1645.71	184.44
1647.23	164.972
1648.74	144.859
1650.26	141.353
1651.78	130.683
1653.3	110.43
1654.81	106.923
1656.33	101.437
1657.85	89.3863
1659.36	84.6468
1660.88	78.8019
1662.4	68.243
1663.92	60.2065
1665.43	46.5074
1666.95	49.0834
1668.47	42.9506
1669.99	37.199
1671.5	36.4291
1673.02	35.6923
1674.54	29.8578
1676.06	23.4159
1677.57	24.7307
1679.09	15.3146
1680.61	11.789
1682.12	12.906
1683.64	9.66871
1685.16	6.74025
1686.68	5.1383
1688.19	6.57376
1689.71	0.742352
1691.23	-1.04957
1692.75	0.0204995
1694.26	-0.831365
1695.78	2.27334
1697.3	1.01261
1698.81	-1.04709
1700.33	-2.25657
1701.85	3.92865
1703.37	7.66437
1704.88	5.63385
1706.4	-0.522595
1707.92	7.7821
1709.44	0.557162
1710.95	-0.805843
1712.47	0.585865
1713.99	1.91982
1715.51	1.1432
1717.02	2.20939
1718.54	5.14139
1720.06	2.19456
1721.57	4.68409
1723.09	4.63617
1724.61	2.03338
1726.13	7.24722
1727.64	3.96473
1729.16	4.81817
1730.68	3.56918
1732.2	3.95908
1733.71	-1.13815
1735.23	3.18356
1736.75	4.93202
1738.26	4.80392
1739.78	2.13662
1741.3	4.00891
1742.82	1.77567
1744.33	2.48668
1745.85	2.37065
1747.37	2.93957
1748.89	6.08802
1750.4	3.90689
1751.92	6.51113
1753.44	5.49759
1754.95	6.98345
1756.47	4.00411
1757.99	5.72492
1759.51	3.77142
1761.02	6.76456
1762.54	7.68516
1764.06	-3.582
1765.58	4.53117
1767.09	2.19218
1768.61	-2.9163
1770.13	-2.72397
1771.65	2.59081
1773.16	-2.41594
1774.68	-4.13237
1776.2	1.48316
1777.71	-2.75329
1779.23	-0.799769
1780.75	-1.949
1782.27	-1.39408
1783.78	-5.80628
1785.3	-0.624011
1786.82	-1.9579
1788.34	-3.27913
1789.85	-2.73925
1791.37	-3.43813
1792.89	-2.36654
1794.4	-6.15906
1795.92	-5.16495
1797.44	-10.2935
1798.96	-4.53838
1800.47	-4.04946
1801.99	-9.60741
1803.51	-1.19298
1805.03	-7.57908
1806.54	-4.75346
1808.06	-10.1447
1809.58	-3.54961
1811.1	-7.66674
1812.61	-10.2162
1814.13	-7.88783
1815.65	-6.21962
1817.16	-7.50924
1818.68	-9.8653
1820.2	-4.78679
1821.72	-8.57428
1823.23	-5.32468
1824.75	-4.53465
1826.27	-7.95334
1827.79	-9.9422
1829.3	-1.09109
1830.82	-5.11232
1832.34	-6.57975
1833.85	-8.89732
1835.37	-2.0965
1836.89	-3.82673
1838.41	-3.3932
1839.92	-3.70454
1841.44	-7.79934
1842.96	-8.83393
1844.48	-7.31767
1845.99	-6.50125
1847.51	-6.67292
1849.03	-3.19024
1850.55	-9.20431
1852.06	-7.04511
1853.58	-7.76348
1855.1	-4.01758
1856.61	-9.21269
1858.13	-8.07047
1859.65	-5.34974
1861.17	-6.10046
1862.68	-7.39939
1864.2	-7.6144
1865.72	-4.2858
1867.24	-5.20602
1868.75	-4.53866
1870.27	-10.5869
1871.79	-4.42469
1873.3	-4.38213
1874.82	-10.5695
1876.34	-3.06664
1877.86	-0.17305
1879.37	-5.7556
1880.89	-5.74485
1882.41	-5.98712
1883.93	-6.05599
1885.44	-9.02331
1886.96	-12.7731
1888.48	-4.77943
1890	-8.96576
1891.51	-9.64542
1893.03	-5.04808
1894.55	-3.26191
1896.06	-8.79863
1897.58	-4.01115
1899.1	-11.0113
1900.62	-7.09418
1902.13	-8.13523
1903.65	-6.08116
1905.17	-7.00261
1906.69	-7.17027
1908.2	-4.4488
1909.72	-8.03756
1911.24	-3.9279
1912.75	-8.02988
1914.27	-6.678
1915.79	-15.0955
1917.31	-5.05383
1918.82	-9.51134
1920.34	-9.72076
1921.86	-5.93342
1923.38	-6.95155
1924.89	-6.25072
1926.41	-10.7331
1927.93	-12.2629
1929.45	-7.16247
1930.96	-9.68902
1932.48	-6.2882
1934	-9.23597
1935.51	-8.60189
1937.03	-7.58214
1938.55	-4.45716
1940.07	-6.25459
1941.58	-4.63642
1943.1	-7.17083
1944.62	-8.82893
1946.14	-4.62503
1947.65	-2.35203
1949.17	-11.7613
1950.69	-10.258
1952.2	-8.67043
1953.72	-3.07255
1955.24	-8.69275
1956.76	-9.44752
1958.27	-5.58464
1959.79	4.60903
1961.31	-5.26801
1962.83	-7.79631
1964.34	-11.7525
1965.86	-9.15813
1967.38	-7.52133
1968.9	-9.91442
1970.41	-7.3348
1971.93	-6.5181
1973.45	-1.67145
1974.96	-6.26575
1976.48	-4.26794
1978	-8.18569
1979.52	-11.0642
1981.03	-7.60646
1982.55	-2.43308
1984.07	-0.96582
1985.59	-5.69714
1987.1	-3.81882
1988.62	-6.55524
1990.14	-10.156
1991.65	-6.17796
1993.17	-4.89743
1994.69	-9.7475
1996.21	-8.26134
1997.72	-5.59505
1999.24	-7.01222
2000	-14.4123