File: Example Data/Raman/CNT - TIM/Raytheon/Al foil/2010/08-27-10/20 - top_1.txt
400	-11.1539
401.517	-6.61672
403.035	-0.00363132
404.552	-5.22234
406.069	-2.69721
407.587	-0.160583
409.104	-0.0354924
410.621	-5.33876
412.138	3.31963
413.656	-3.1983
415.173	1.27818
416.69	-1.10655
418.208	-3.17372
419.725	-0.801161
421.242	-2.35319
422.76	-1.65554
424.277	-0.0401514
425.794	1.18426
427.312	-1.69125
428.829	-0.788751
430.346	0.067331
431.863	-4.45516
433.381	-3.73143
434.898	-3.1037
436.415	-0.826541
437.933	-3.01425
439.45	-4.51755
440.967	-1.28574
442.485	9.58593e-05
444.002	4.34248
445.519	-2.29795
447.036	-7.19073
448.554	-1.04753
450.071	-1.6453
451.588	-1.19921
453.106	-2.82125
454.623	-1.35287
456.14	-7.43457
457.658	0.44925
459.175	-0.42136
460.692	-1.35655
462.21	-0.925158
463.727	-4.22145
465.244	-8.16596
466.762	-2.11824
468.279	0.589141
469.796	-3.99716
471.313	-6.72666
472.831	-1.78793
474.348	-3.27625
475.865	-7.94749
477.383	-1.05938
478.9	-6.50913
480.417	-6.02605
481.935	-5.51792
483.452	-7.57939
484.969	-5.12098
486.486	-7.4523
488.004	-5.89906
489.521	-3.0195
491.038	-7.07247
492.556	-7.53038
494.073	-10.5753
495.59	-11.2887
497.108	-6.61872
498.625	-8.89599
500.142	-4.29807
501.66	-6.07465
503.177	-4.71679
504.694	-9.46217
506.211	-15.2189
507.729	-4.77691
509.246	-10.1736
510.763	-8.03222
512.281	-10.0423
513.798	-13.9307
515.315	-5.22464
516.833	-7.86935
518.35	-12.3865
519.867	-9.89413
521.385	-7.73595
522.902	-7.58606
524.419	-6.1397
525.936	-11.5815
527.454	0.391445
528.971	-4.76509
530.488	-9.63181
532.006	-4.31723
533.523	-3.52267
535.04	-9.89997
536.558	-11.4275
538.075	-8.01807
539.592	-10.1784
541.11	-10.5546
542.627	-3.89274
544.144	-11.7621
545.661	-15.6597
547.179	-5.30019
548.696	-5.76428
550.213	-10.505
551.731	-19.495
553.248	-6.32256
554.765	-8.73039
556.283	-9.15882
557.8	-8.18179
559.317	-6.02887
560.835	-9.04094
562.352	-9.32747
563.869	-10.8446
565.386	-10.1112
566.904	-8.56805
568.421	-7.2398
569.938	-2.59628
571.456	-10.0732
572.973	-7.71625
574.49	-8.55825
576.008	-6.79929
577.525	-5.13924
579.042	-7.66217
580.56	-8.73552
582.077	-11.6535
583.594	-11.166
585.111	-3.98072
586.629	-5.25111
588.146	-7.6394
589.663	-7.71323
591.181	-10.8574
592.698	-4.11226
594.215	-3.67522
595.733	-4.55247
597.25	-10.1256
598.767	-3.74802
600.284	-10.9606
601.802	-12.6784
603.319	-4.86772
604.836	-10.7113
606.354	-8.12772
607.871	-5.18032
609.388	-10.3825
610.906	-5.23251
612.423	-8.28383
613.94	-10.0118
615.458	-8.10703
616.975	-7.37389
618.492	-6.26156
620.009	-2.94568
621.527	-2.65003
623.044	-5.19918
624.561	-2.79494
626.079	-4.54526
627.596	-7.9583
629.113	-7.27626
630.631	-3.89675
632.148	-2.87164
633.665	-7.15879
635.183	-7.32735
636.7	-2.82088
638.217	-2.48036
639.734	-2.26342
641.252	-1.68003
642.769	-0.78369
644.286	-7.49016
645.804	-4.10758
647.321	-0.979227
648.838	-2.18243
650.356	-2.69559
651.873	-0.235093
653.39	-4.38813
654.908	-0.0898452
656.425	-1.35529
657.942	-2.62925
659.459	0.604245
660.977	-3.51105
662.494	0.0236861
664.011	-7.30923
665.529	-7.1586
667.046	-3.70759
668.563	-6.69471
670.081	-4.36294
671.598	-2.39585
673.115	-2.5188
674.633	0.251831
676.15	2.05826
677.667	-2.0322
679.184	0.210701
680.702	-2.51676
682.219	-5.403
683.736	-6.78654
685.254	-2.8093
686.771	-2.88775
688.288	-0.234364
689.806	0.956532
691.323	-3.35297
692.84	-4.42426
694.358	-1.13259
695.875	-4.58193
697.392	0.571989
698.909	1.03352
700.427	-7.07677
701.944	0.525481
703.461	-6.31433
704.979	-3.64689
706.496	-6.66831
708.013	-0.746029
709.531	-2.04381
711.048	0.786261
712.565	1.83405
714.083	4.55008
715.6	-0.394862
717.117	-5.01054
718.634	-5.85059
720.152	-1.19013
721.669	-5.55964
723.186	0.906936
724.704	-0.849625
726.221	0.867951
727.738	-2.67008
729.256	2.60424
730.773	-0.920337
732.29	1.1015
733.807	2.10534
735.325	2.37965
736.842	7.01268
738.359	4.51973
739.877	2.55394
741.394	4.70774
742.911	1.08779
744.429	2.96235
745.946	3.87097
747.463	6.82077
748.981	5.19765
750.498	3.16009
752.015	1.89019
753.532	5.99007
755.05	3.48857
756.567	8.71061
758.084	1.33628
759.602	5.63394
761.119	3.13104
762.636	1.72648
764.154	13.3921
765.671	9.2142
767.188	5.63139
768.706	4.6235
770.223	3.52376
771.74	3.30039
773.257	3.99621
774.775	1.19736
776.292	9.19845
777.809	8.3646
779.327	12.6224
780.844	0.676921
782.361	11.8651
783.879	0.092378
785.396	8.55054
786.913	6.9107
788.431	2.88123
789.948	9.76584
791.465	8.49918
792.982	10.5727
794.5	8.55248
796.017	6.67729
797.534	7.70915
799.052	13.1636
800.569	6.99571
802.086	11.2545
803.604	6.91381
805.121	7.93974
806.638	10.0224
808.156	7.10996
809.673	3.0383
811.19	17.8689
812.707	13.8006
814.225	11.7572
815.742	13.6471
817.259	11.1512
818.777	9.18197
820.294	5.93098
821.811	12.6505
823.329	10.3412
824.846	11.3509
826.363	13.3652
827.88	14.6285
829.398	16.2896
830.915	10.9325
832.432	10.2217
833.95	15.4949
835.467	16.1225
836.984	20.7661
838.502	14.7264
840.019	10.9375
841.536	12.4955
843.054	12.6638
844.571	13.4825
846.088	11.6758
847.606	8.87119
849.123	8.67612
850.64	13.3421
852.157	11.9555
853.675	15.5633
855.192	13.8168
856.709	13.5092
858.227	16.7142
859.744	21.5336
861.261	7.64897
862.779	16.996
864.296	9.68216
865.813	8.77714
867.331	6.92027
868.848	13.6651
870.365	10.0605
871.882	7.40699
873.4	0.00351311
874.917	4.99012
876.434	13.616
877.952	9.23829
879.469	6.12539
880.986	10.4921
882.504	8.19216
884.021	7.59325
885.538	4.61498
887.055	0.308891
888.573	5.33557
890.09	3.3715
891.607	1.59515
893.125	-0.327405
894.642	9.52804
896.159	6.95648
897.677	3.48515
899.194	2.32173
900.711	2.55283
902.229	9.79688
903.746	6.96125
905.263	5.24949
906.78	7.28072
908.298	1.77388
909.815	6.85635
911.332	0.832021
912.85	3.64677
914.367	1.86531
915.884	0.514349
917.402	0.676621
918.919	-3.12875
920.436	-2.17232
921.954	-0.949096
923.471	-2.67655
924.988	-1.88799
926.505	-2.571
928.023	3.16562
929.54	4.41747
931.057	1.04421
932.575	1.2087
934.092	2.85601
935.609	3.63754
937.127	6.66373
938.644	1.509
940.161	1.03386
941.679	-2.01952
943.196	2.34367
944.713	3.66516
946.23	0.673706
947.748	-0.217432
949.265	1.54571
950.782	1.79279
952.3	4.27572
953.817	2.46868
955.334	-4.4577
956.852	1.26027
958.369	-2.5548
959.886	-2.02174
961.404	-0.381825
962.921	0.431493
964.438	-11.8037
965.955	0.817406
967.473	-5.7054
968.99	-2.19929
970.507	-4.43118
972.025	1.45468
973.542	-3.39684
975.059	-4.34076
976.577	-3.09019
978.094	-2.88319
979.611	0.204326
981.128	-0.043449
982.646	-2.8785
984.163	-6.50579
985.68	1.06362
987.198	2.12191
988.715	-2.99505
990.232	-3.95743
991.75	-2.84622
993.267	-5.5709
994.784	-1.26717
996.302	-1.74978
997.819	-2.26481
999.336	-7.87392
1000.85	-6.58356
1002.37	-5.66691
1003.89	-5.72303
1005.41	1.63749
1006.92	-3.83481
1008.44	0.813697
1009.96	-3.78363
1011.47	-6.43873
1012.99	2.7026
1014.51	-0.836155
1016.03	-5.69528
1017.54	-4.93403
1019.06	-3.54783
1020.58	-3.46743
1022.1	-4.46449
1023.61	-3.86424
1025.13	-3.13619
1026.65	-1.84789
1028.17	1.64221
1029.68	-7.2155
1031.2	2.27369
1032.72	-2.92639
1034.23	-5.49294
1035.75	0.60401
1037.27	-7.22742
1038.79	-1.34259
1040.3	-2.8163
1041.82	-8.21144
1043.34	5.5643
1044.86	-5.12636
1046.37	1.89949
1047.89	-4.54494
1049.41	-3.03026
1050.92	-3.4233
1052.44	0.940046
1053.96	-2.56715
1055.48	-6.4195
1056.99	1.96505
1058.51	-4.05343
1060.03	-1.15923
1061.55	2.89799
1063.06	4.18121
1064.58	1.8247
1066.1	-5.26857
1067.61	-6.22734
1069.13	2.60004
1070.65	-8.73695
1072.17	-4.78794
1073.68	-3.46648
1075.2	5.98075
1076.72	-3.51345
1078.24	-6.55716
1079.75	-1.34485
1081.27	0.666168
1082.79	0.0646664
1084.31	-0.228687
1085.82	2.11334
1087.34	0.596386
1088.86	0.229787
1090.37	-0.727145
1091.89	1.16786
1093.41	3.801
1094.93	-4.46565
1096.44	3.75979
1097.96	1.52342
1099.48	1.15658
1101	0.150603
1102.51	4.43298
1104.03	-4.1114
1105.55	5.00188
1107.06	3.34798
1108.58	-1.84883
1110.1	7.85198
1111.62	3.1773
1113.13	-0.128858
1114.65	-0.332535
1116.17	5.07553
1117.69	0.524813
1119.2	2.71133
1120.72	-3.47765
1122.24	6.10379
1123.76	6.47049
1125.27	2.84251
1126.79	2.45516
1128.31	4.04124
1129.82	10.0013
1131.34	14.9373
1132.86	8.28873
1134.38	15.225
1135.89	7.67456
1137.41	18.1838
1138.93	14.0883
1140.45	9.38385
1141.96	11.7343
1143.48	8.18061
1145	22.6108
1146.51	17.8323
1148.03	13.2583
1149.55	14.7705
1151.07	18.6157
1152.58	24.3543
1154.1	26.5992
1155.62	15.7831
1157.14	19.5938
1158.65	30.3881
1160.17	17.2534
1161.69	29.958
1163.21	32.8149
1164.72	33.1558
1166.24	25.6677
1167.76	23.4265
1169.27	34.1619
1170.79	25.8257
1172.31	31.3363
1173.83	29.9806
1175.34	24.3043
1176.86	23.9277
1178.38	29.6057
1179.9	29.1875
1181.41	33.6757
1182.93	37.3985
1184.45	38.7124
1185.96	32.4466
1187.48	34.9527
1189	33.9162
1190.52	36.007
1192.03	34.0236
1193.55	30.8127
1195.07	37.1436
1196.59	31.8283
1198.1	30.8219
1199.62	28.552
1201.14	29.5755
1202.66	27.5092
1204.17	37.0535
1205.69	34.0304
1207.21	46.0228
1208.72	28.9866
1210.24	36.2127
1211.76	32.2924
1213.28	40.8153
1214.79	43.9215
1216.31	34.5162
1217.83	29.8422
1219.35	37.31
1220.86	43.1489
1222.38	29.2394
1223.9	27.8205
1225.41	31.975
1226.93	36.0176
1228.45	47.6392
1229.97	47.6564
1231.48	38.7455
1233	44.6933
1234.52	54.6796
1236.04	54.7292
1237.55	51.2853
1239.07	46.826
1240.59	51.2604
1242.11	50.8574
1243.62	60.682
1245.14	50.2649
1246.66	57.8407
1248.17	57.1181
1249.69	56.2313
1251.21	63.8571
1252.73	64.9178
1254.24	65.3031
1255.76	76.993
1257.28	70.6271
1258.8	75.1211
1260.31	76.8887
1261.83	88.1157
1263.35	81.1698
1264.86	82.7703
1266.38	82.0494
1267.9	79.8256
1269.42	90.1295
1270.93	90.7603
1272.45	96.8406
1273.97	94.7002
1275.49	96.1486
1277	107.721
1278.52	94.9945
1280.04	113.465
1281.56	121.56
1283.07	110.696
1284.59	110.421
1286.11	130.967
1287.62	137.351
1289.14	120.852
1290.66	139.5
1292.18	146.06
1293.69	158.011
1295.21	167.786
1296.73	166.173
1298.25	154.052
1299.76	177.785
1301.28	166.711
1302.8	176.995
1304.31	183.541
1305.83	205.315
1307.35	213.389
1308.87	212.943
1310.38	208.917
1311.9	231.134
1313.42	226.662
1314.94	243.783
1316.45	249.125
1317.97	252.249
1319.49	259.554
1321.01	273.901
1322.52	279.015
1324.04	289.566
1325.56	289.715
1327.07	302.724
1328.59	312.214
1330.11	320.854
1331.63	307.67
1333.14	324.652
1334.66	306.379
1336.18	334.843
1337.7	353.105
1339.21	349.524
1340.73	351.076
1342.25	362.252
1343.76	363.567
1345.28	370.178
1346.8	342.463
1348.32	364.84
1349.83	374.324
1351.35	358.058
1352.87	369.985
1354.39	349.102
1355.9	346.514
1357.42	331.359
1358.94	339.846
1360.46	326.589
1361.97	342.152
1363.49	317.989
1365.01	305.213
1366.52	308.883
1368.04	278.476
1369.56	296.241
1371.08	260.405
1372.59	270.71
1374.11	261.902
1375.63	250.66
1377.15	246.737
1378.66	233.338
1380.18	220.055
1381.7	217.036
1383.21	214.504
1384.73	197.141
1386.25	192.605
1387.77	199.412
1389.28	178.102
1390.8	166.266
1392.32	165.491
1393.84	164.53
1395.35	156.897
1396.87	134.116
1398.39	141.767
1399.91	123.019
1401.42	129.566
1402.94	114.391
1404.46	101.62
1405.97	100.48
1407.49	102.872
1409.01	101.265
1410.53	98.4563
1412.04	95.6883
1413.56	83.5327
1415.08	83.5904
1416.6	88.6574
1418.11	72.0005
1419.63	72.0401
1421.15	69.6591
1422.66	57.1359
1424.18	46.132
1425.7	55.0594
1427.22	55.6066
1428.73	42.9328
1430.25	45.1886
1431.77	46.7117
1433.29	43.4962
1434.8	46.9313
1436.32	43.0502
1437.84	51.0767
1439.36	36.9888
1440.87	26.3428
1442.39	24.9019
1443.91	35.0242
1445.42	34.2066
1446.94	16.8288
1448.46	23.2519
1449.98	13.2445
1451.49	17.5666
1453.01	15.3573
1454.53	14.2096
1456.05	8.44447
1457.56	16.6789
1459.08	20.0023
1460.6	7.53952
1462.11	11.2418
1463.63	4.41282
1465.15	9.4221
1466.67	5.90181
1468.18	6.93887
1469.7	-7.48544
1471.22	-2.22187
1472.74	2.35192
1474.25	-12.7775
1475.77	-14.5672
1477.29	6.15009
1478.81	12.0641
1480.32	10.9994
1481.84	-2.91041
1483.36	10.2519
1484.87	7.06351
1486.39	-3.52076
1487.91	0.695872
1489.43	5.07884
1490.94	6.76804
1492.46	20.5594
1493.98	17.1701
1495.5	15.788
1497.01	28.3421
1498.53	19.3111
1500.05	19.1483
1501.56	28.7915
1503.08	23.933
1504.6	21.8261
1506.12	32.0393
1507.63	36.2957
1509.15	34.2393
1510.67	22.3788
1512.19	25.3306
1513.7	33.9819
1515.22	38.1671
1516.74	43.2751
1518.26	39.7037
1519.77	52.0705
1521.29	49.3468
1522.81	37.6767
1524.32	51.807
1525.84	45.1741
1527.36	61.85
1528.88	56.502
1530.39	61.6241
1531.91	62.2848
1533.43	70.1829
1534.95	70.1071
1536.46	75.9595
1537.98	81.8617
1539.5	80.1252
1541.01	90.0959
1542.53	87.2155
1544.05	91.7981
1545.57	92.8447
1547.08	103.369
1548.6	102.516
1550.12	112.252
1551.64	132.564
1553.15	122.839
1554.67	130.278
1556.19	142.034
1557.71	141.748
1559.22	154.881
1560.74	161.561
1562.26	152.904
1563.77	166.295
1565.29	188.363
1566.81	183.988
1568.33	196.501
1569.84	196.018
1571.36	223.222
1572.88	213.113
1574.4	229.63
1575.91	258.241
1577.43	248.761
1578.95	280.26
1580.46	274.995
1581.98	288.834
1583.5	291.318
1585.02	307.068
1586.53	314.118
1588.05	330.225
1589.57	322.359
1591.09	346.175
1592.6	343.389
1594.12	353.396
1595.64	366.978
1597.16	360.279
1598.67	371.519
1600.19	385.553
1601.71	371.063
1603.22	376.102
1604.74	368.644
1606.26	371.18
1607.78	367.524
1609.29	365.251
1610.81	366.829
1612.33	350.781
1613.85	353.551
1615.36	333.185
1616.88	324.832
1618.4	316.552
1619.91	310.315
1621.43	300.026
1622.95	296.237
1624.47	272.687
1625.98	266.082
1627.5	252.488
1629.02	241.083
1630.54	213.848
1632.05	222.27
1633.57	200.479
1635.09	186.718
1636.6	172.216
1638.12	162.988
1639.64	157.187
1641.16	131.841
1642.67	144.23
1644.19	134.895
1645.71	115.365
1647.23	110.428
1648.74	99.1207
1650.26	96.0578
1651.78	90.3643
1653.3	77.0648
1654.81	81.2611
1656.33	69.6654
1657.85	65.7342
1659.36	67.1264
1660.88	55.5129
1662.4	51.351
1663.92	49.961
1665.43	34.5727
1666.95	40.0602
1668.47	33.756
1669.99	27.1239
1671.5	28.6508
1673.02	25.6111
1674.54	26.6924
1676.06	16.1444
1677.57	16.4464
1679.09	15.7539
1680.61	6.74865
1682.12	3.61646
1683.64	10.6224
1685.16	10.0669
1686.68	6.0678
1688.19	3.26461
1689.71	6.96008
1691.23	2.81581
1692.75	-0.110205
1694.26	3.07491
1695.78	1.75919
1697.3	0.118834
1698.81	-1.64546
1700.33	-0.759922
1701.85	-0.454638
1703.37	1.88265
1704.88	-0.193928
1706.4	-1.93205
1707.92	7.26182
1709.44	1.11212
1710.95	-0.00917109
1712.47	0.738087
1713.99	1.22609
1715.51	3.9759
1717.02	1.25372
1718.54	2.08863
1720.06	-4.52625
1721.57	4.14782
1723.09	1.45194
1724.61	0.546527
1726.13	-0.0213334
1727.64	2.42169
1729.16	0.567906
1730.68	0.478641
1732.2	-1.94202
1733.71	-4.82006
1735.23	-3.86591
1736.75	-2.07193
1738.26	-0.536993
1739.78	-1.85091
1741.3	-2.74033
1742.82	-3.74462
1744.33	-0.705385
1745.85	-0.9799
1747.37	-3.6344
1748.89	-3.45193
1750.4	-3.55898
1751.92	-3.30462
1753.44	-1.04151
1754.95	-4.53069
1756.47	-3.65076
1757.99	0.807412
1759.51	-2.79725
1761.02	0.194677
1762.54	0.505834
1764.06	0.838867
1765.58	-3.16992
1767.09	-2.85789
1768.61	-2.37752
1770.13	-1.40081
1771.65	0.510226
1773.16	-5.47779
1774.68	-0.711879
1776.2	1.37736
1777.71	-3.67629
1779.23	0.428475
1780.75	-1.09574
1782.27	-4.52381
1783.78	-1.96131
1785.3	-3.20169
1786.82	-4.70088
1788.34	2.78802
1789.85	3.17833
1791.37	2.30295
1792.89	-0.856949
1794.4	3.43842
1795.92	1.03453
1797.44	-1.24822
1798.96	2.79253
1800.47	5.38438
1801.99	1.94969
1803.51	0.212428
1805.03	-0.788036
1806.54	-0.153794
1808.06	-1.71918
1809.58	3.8693
1811.1	0.123253
1812.61	-2.24593
1814.13	3.81576
1815.65	-3.50909
1817.16	3.68932
1818.68	0.506472
1820.2	0.425484
1821.72	2.08399
1823.23	-0.952728
1824.75	-7.82525
1826.27	-1.35832
1827.79	0.194952
1829.3	1.75511
1830.82	-1.27407
1832.34	1.73423
1833.85	-1.03705
1835.37	3.39196
1836.89	-1.02477
1838.41	3.02772
1839.92	-0.712607
1841.44	-2.98225
1842.96	0.585157
1844.48	0.684627
1845.99	-0.252654
1847.51	2.35854
1849.03	-0.977965
1850.55	1.52386
1852.06	2.44604
1853.58	-1.03515
1855.1	-5.11468
1856.61	-0.684209
1858.13	-1.90284
1859.65	1.46818
1861.17	-2.29617
1862.68	-7.82961
1864.2	0.946942
1865.72	0.129622
1867.24	2.28256
1868.75	0.513869
1870.27	-1.22812
1871.79	-0.131746
1873.3	-1.26375
1874.82	-0.396173
1876.34	0.208443
1877.86	0.486807
1879.37	0.949337
1880.89	-2.18803
1882.41	-3.74993
1883.93	0.137426
1885.44	-5.56251
1886.96	-0.469477
1888.48	0.385582
1890	-4.47212
1891.51	-5.82367
1893.03	-5.65075
1894.55	-4.33888
1896.06	-3.0634
1897.58	0.659213
1899.1	-6.46981
1900.62	-2.103
1902.13	3.51626
1903.65	-5.06548
1905.17	-3.55318
1906.69	-2.96375
1908.2	-6.01733
1909.72	-1.52863
1911.24	0.279912
1912.75	-1.10998
1914.27	-1.47821
1915.79	-5.50078
1917.31	-3.15244
1918.82	-2.67386
1920.34	-5.89486
1921.86	-5.17062
1923.38	-5.81559
1924.89	-4.37519
1926.41	-5.05783
1927.93	-5.6804
1929.45	-6.14663
1930.96	2.60988
1932.48	-3.86034
1934	-2.37253
1935.51	-5.08357
1937.03	-6.56726
1938.55	-7.77648
1940.07	-8.60182
1941.58	-4.08867
1943.1	-5.16841
1944.62	3.27593
1946.14	-5.91741
1947.65	-3.54748
1949.17	-4.05252
1950.69	-4.3834
1952.2	-3.92204
1953.72	-5.06165
1955.24	-6.26303
1956.76	-3.97513
1958.27	-4.88179
1959.79	-7.82202
1961.31	-3.44881
1962.83	-4.45471
1964.34	-6.06458
1965.86	-6.73874
1967.38	-0.281402
1968.9	-3.46137
1970.41	-3.54773
1971.93	-8.16759
1973.45	-4.92218
1974.96	-1.36836
1976.48	-0.756031
1978	-5.54997
1979.52	-7.17322
1981.03	-5.10473
1982.55	-11.5691
1984.07	-4.88809
1985.59	-6.25041
1987.1	-3.53862
1988.62	-7.89683
1990.14	-5.85861
1991.65	-2.58137
1993.17	-5.39646
1994.69	-3.84656
1996.21	-2.52008
1997.72	-3.61727
1999.24	-5.36816
2000	-6.83463