File: Example Data/Raman/CNT - TIM/Raytheon/Al foil/2010/08-27-10/22 - top_3.txt
400	-0.513211
401.517	-5.01778
403.035	0.244106
404.552	-0.954241
406.069	5.80888
407.587	1.21095
409.104	-8.20184
410.621	-2.33323
412.138	-0.36826
413.656	6.78482
415.173	-2.15188
416.69	-1.08373
418.208	-4.41694
419.725	-1.24385
421.242	1.87435
422.76	-0.285628
424.277	3.25875
425.794	-4.34935
427.312	-0.781716
428.829	-4.82235
430.346	-4.04161
431.863	-1.43601
433.381	-5.39211
434.898	-1.81737
436.415	-0.22755
437.933	-3.98037
439.45	-9.74745
440.967	-4.58232
442.485	-3.5915
444.002	-5.87858
445.519	1.43123
447.036	-5.16534
448.554	-2.888
450.071	-3.73741
451.588	-5.12968
453.106	-2.01858
454.623	-1.21359
456.14	-4.24213
457.658	-0.438077
459.175	-3.234
460.692	-5.69709
462.21	-6.92026
463.727	-7.59123
465.244	-2.64191
466.762	0.0148944
468.279	-1.47755
469.796	-1.59094
471.313	-3.17578
472.831	-2.33919
474.348	-8.28169
475.865	-9.44094
477.383	-8.9436
478.9	-3.14497
480.417	-4.61703
481.935	-2.15182
483.452	-4.07762
484.969	-3.21457
486.486	-11.1855
488.004	-11.1727
489.521	-6.04388
491.038	-7.16595
492.556	-11.3675
494.073	-9.37436
495.59	-7.25613
497.108	-6.36096
498.625	-9.62894
500.142	-11.1117
501.66	-12.5393
503.177	-11.8889
504.694	-8.42552
506.211	-8.27462
507.729	-7.52169
509.246	-14.908
510.763	-9.42827
512.281	-17.3794
513.798	-10.7981
515.315	-14.9761
516.833	-14.029
518.35	-7.92742
519.867	-5.97742
521.385	-11.8388
522.902	-11.2251
524.419	-8.20944
525.936	-12.2025
527.454	-9.09009
528.971	-10.4619
530.488	-8.40203
532.006	-12.1043
533.523	-7.5076
535.04	-10.476
536.558	-9.04523
538.075	-7.5714
539.592	-8.57526
541.11	-10.0179
542.627	-8.03002
544.144	-10.9797
545.661	-10.6675
547.179	-8.93788
548.696	-11.433
550.213	-5.89782
551.731	-9.74341
553.248	-10.0954
554.765	-7.35427
556.283	-11.1801
557.8	-13.2433
559.317	-12.8097
560.835	-4.74456
562.352	-5.75005
563.869	-4.98153
565.386	-9.2215
566.904	-11.3905
568.421	-12.1381
569.938	-10.3428
571.456	-9.42487
572.973	-10.4633
574.49	-3.61387
576.008	-8.22278
577.525	-8.07564
579.042	-8.0305
580.56	-13.9484
582.077	-10.9934
583.594	-10.1688
585.111	-6.66295
586.629	-5.58582
588.146	-5.67782
589.663	-7.00386
591.181	-5.84156
592.698	-5.83422
594.215	-9.08415
595.733	-6.46016
597.25	-5.55014
598.767	-8.0123
600.284	-9.95016
601.802	-6.88466
603.319	-10.0805
604.836	-0.964953
606.354	-4.06957
607.871	-14.0277
609.388	-9.57505
610.906	-6.39189
612.423	-6.3286
613.94	-7.79566
615.458	-9.96751
616.975	-10.3849
618.492	-7.64085
620.009	-3.96873
621.527	-14.2492
623.044	-9.09011
624.561	-4.10518
626.079	-0.551479
627.596	-2.68293
629.113	-5.90249
630.631	-8.14381
632.148	-3.8242
633.665	-7.54244
635.183	-5.85848
636.7	-6.82047
638.217	-7.72018
639.734	0.46549
641.252	-3.07682
642.769	-2.90763
644.286	-3.71288
645.804	-3.6797
647.321	-8.23266
648.838	-4.37461
650.356	0.306634
651.873	-2.52046
653.39	-5.70707
654.908	-6.69095
656.425	0.795684
657.942	-2.43437
659.459	-5.19337
660.977	-2.59699
662.494	-2.24711
664.011	-0.0199065
665.529	-5.04601
667.046	-1.74986
668.563	-1.09646
670.081	-1.17155
671.598	-2.47991
673.115	-1.60261
674.633	-2.22872
676.15	2.89952
677.667	-5.13693
679.184	-3.17842
680.702	-4.68463
682.219	-5.88323
683.736	0.349084
685.254	-6.35385
686.771	-3.04247
688.288	-0.64468
689.806	-6.41813
691.323	-8.83079
692.84	-3.11071
694.358	-8.75824
695.875	0.181081
697.392	0.244875
698.909	-3.33499
700.427	-3.89365
701.944	-1.00686
703.461	-4.29428
704.979	-3.06333
706.496	-1.06374
708.013	-3.52304
709.531	-7.57355
711.048	-0.564118
712.565	-3.93173
714.083	-2.51985
715.6	-5.85019
717.117	-3.20762
718.634	-1.28729
720.152	-3.62269
721.669	-0.269553
723.186	-2.23135
724.704	-2.65366
726.221	-2.82718
727.738	2.04953
729.256	-1.14134
730.773	3.44179
732.29	3.23953
733.807	2.61109
735.325	-0.650922
736.842	5.78909
738.359	2.75906
739.877	-3.94582
741.394	8.74911
742.911	1.09034
744.429	5.45788
745.946	6.91363
747.463	7.8256
748.981	2.50794
750.498	5.96708
752.015	-1.20963
753.532	1.69721
755.05	5.95957
756.567	7.70747
758.084	3.24981
759.602	2.15287
761.119	8.67968
762.636	8.68845
764.154	0.287137
765.671	0.453401
767.188	7.59087
768.706	8.983
770.223	10.379
771.74	9.20403
773.257	4.82306
774.775	9.80682
776.292	5.56698
777.809	7.8125
779.327	10.5746
780.844	6.98584
782.361	8.27314
783.879	5.80289
785.396	8.86911
786.913	7.53465
788.431	3.04578
789.948	9.10381
791.465	13.7364
792.982	13.4889
794.5	12.9391
796.017	13.57
797.534	11.192
799.052	3.31988
800.569	10.9061
802.086	7.7042
803.604	8.55354
805.121	13.9067
806.638	10.4007
808.156	15.4278
809.673	8.33229
811.19	10.602
812.707	14.5748
814.225	15.6803
815.742	16.4776
817.259	12.6859
818.777	15.5132
820.294	15.1436
821.811	11.705
823.329	15.0034
824.846	12.8757
826.363	14.127
827.88	9.33077
829.398	15.7131
830.915	18.0441
832.432	14.2001
833.95	15.6044
835.467	16.2335
836.984	17.1747
838.502	20.2289
840.019	20.4667
841.536	16.0663
843.054	14.7474
844.571	19.4597
846.088	14.7235
847.606	19.2014
849.123	13.8675
850.64	16.8019
852.157	11.9295
853.675	18.8424
855.192	18.5858
856.709	19.3002
858.227	11.9041
859.744	20.2201
861.261	13.5441
862.779	23.9807
864.296	19.0604
865.813	12.1099
867.331	14.0062
868.848	18.4851
870.365	9.65841
871.882	12.323
873.4	9.15056
874.917	7.0509
876.434	8.68155
877.952	9.09969
879.469	6.47199
880.986	8.59323
882.504	7.69018
884.021	10.8973
885.538	5.12282
887.055	8.82057
888.573	14.214
890.09	6.31116
891.607	6.41376
893.125	6.16842
894.642	7.92253
896.159	4.40859
897.677	2.52835
899.194	4.21434
900.711	0.888918
902.229	5.18222
903.746	11.391
905.263	8.95215
906.78	6.73038
908.298	2.14852
909.815	2.04493
911.332	8.55231
912.85	8.6535
914.367	4.7786
915.884	11.0823
917.402	4.79029
918.919	7.249
920.436	6.85856
921.954	8.12209
923.471	2.46188
924.988	5.37531
926.505	3.8699
928.023	-0.476307
929.54	8.43395
931.057	3.29942
932.575	4.64085
934.092	6.51818
935.609	7.94522
937.127	2.40592
938.644	12.4894
940.161	6.91209
941.679	1.75763
943.196	11.6048
944.713	5.88913
946.23	5.37331
947.748	7.01362
949.265	5.82469
950.782	4.11308
952.3	4.67283
953.817	3.31043
955.334	-3.07641
956.852	-1.37516
958.369	0.937904
959.886	0.291965
961.404	-0.740759
962.921	-1.06202
964.438	-1.70116
965.955	-7.14103
967.473	-6.45903
968.99	-5.00651
970.507	-5.43508
972.025	-4.70869
973.542	-8.9191
975.059	-4.29917
976.577	-4.14117
978.094	-5.69872
979.611	-13.1376
981.128	-4.82364
982.646	-6.3434
984.163	-9.77649
985.68	-6.78052
987.198	-8.84333
988.715	-7.84336
990.232	-9.7787
991.75	-12.0814
993.267	-11.152
994.784	-9.3534
996.302	-13.4169
997.819	-5.33052
999.336	-13.3029
1000.85	-17.3577
1002.37	-12.5064
1003.89	-18.176
1005.41	-14.3086
1006.92	-18.1707
1008.44	-6.94755
1009.96	-12.614
1011.47	-16.9942
1012.99	-9.20158
1014.51	-11.1533
1016.03	-17.3058
1017.54	-6.30318
1019.06	-19.3128
1020.58	-15.4644
1022.1	-12.74
1023.61	-23.4227
1025.13	-16.8643
1026.65	-8.24855
1028.17	-14.3418
1029.68	-15.7388
1031.2	-6.64364
1032.72	-15.6874
1034.23	-16.7885
1035.75	-13.4955
1037.27	-13.0564
1038.79	-17.0716
1040.3	-4.93534
1041.82	-14.6878
1043.34	-19.1432
1044.86	-8.58483
1046.37	-13.1648
1047.89	-11.2531
1049.41	-13.6892
1050.92	-13.717
1052.44	-13.9889
1053.96	-16.4214
1055.48	-12.6596
1056.99	-18.5105
1058.51	-15.7831
1060.03	-13.9552
1061.55	-10.5266
1063.06	-14.8206
1064.58	-12.2251
1066.1	-16.7241
1067.61	-11.0865
1069.13	-16.6766
1070.65	-21.8815
1072.17	-16.1868
1073.68	-10.3372
1075.2	-17.3046
1076.72	-17.1279
1078.24	-17.9318
1079.75	-14.8793
1081.27	-15.758
1082.79	-13.5221
1084.31	-20.1706
1085.82	-17.8387
1087.34	-12.2109
1088.86	-12.4598
1090.37	-8.70037
1091.89	-13.8029
1093.41	-15.0496
1094.93	-16.9277
1096.44	-12.7089
1097.96	-16.5436
1099.48	-16.5173
1101	-11.4965
1102.51	-11.3166
1104.03	-12.4339
1105.55	-20.6543
1107.06	-15.1604
1108.58	-11.0886
1110.1	-16.0204
1111.62	-11.2443
1113.13	-10.1845
1114.65	-14.6119
1116.17	-2.80607
1117.69	-8.85435
1119.2	-18.4896
1120.72	-12.8263
1122.24	-19.0347
1123.76	-2.27896
1125.27	-7.27502
1126.79	-12.443
1128.31	-12.9782
1129.82	-6.19107
1131.34	-1.15629
1132.86	-5.47171
1134.38	-7.13211
1135.89	-7.58429
1137.41	-11.7323
1138.93	3.15788
1140.45	-1.88045
1141.96	2.07868
1143.48	-3.63745
1145	4.10367
1146.51	-2.52129
1148.03	7.87167
1149.55	5.86969
1151.07	-3.99717
1152.58	3.47714
1154.1	4.77278
1155.62	4.38154
1157.14	10.7959
1158.65	4.17604
1160.17	13.5044
1161.69	21.9305
1163.21	4.95362
1164.72	12.2934
1166.24	14.854
1167.76	13.1255
1169.27	14.3343
1170.79	13.3836
1172.31	24.5426
1173.83	14.1282
1175.34	19.5639
1176.86	12.228
1178.38	22.9537
1179.9	23.6342
1181.41	23.6811
1182.93	19.7512
1184.45	20.2349
1185.96	20.0801
1187.48	20.7486
1189	22.354
1190.52	19.8732
1192.03	19.0469
1193.55	25.9479
1195.07	26.9693
1196.59	21.3936
1198.1	24.77
1199.62	26.7864
1201.14	25.0866
1202.66	17.5182
1204.17	28.4875
1205.69	28.2426
1207.21	33.4298
1208.72	21.6203
1210.24	24.5154
1211.76	22.775
1213.28	21.4181
1214.79	28.6782
1216.31	31.1448
1217.83	32.7671
1219.35	20.601
1220.86	22.9468
1222.38	30.956
1223.9	28.5138
1225.41	32.0681
1226.93	28.3807
1228.45	31.4954
1229.97	36.4982
1231.48	37.0703
1233	39.0631
1234.52	33.1998
1236.04	40.5651
1237.55	36.7176
1239.07	44.7081
1240.59	41.7146
1242.11	36.4402
1243.62	37.3065
1245.14	43.6789
1246.66	53.0909
1248.17	54.5855
1249.69	49.7057
1251.21	53.605
1252.73	47.3115
1254.24	53.498
1255.76	54.3736
1257.28	53.1248
1258.8	56.4207
1260.31	57.4422
1261.83	53.8716
1263.35	71.186
1264.86	69.3761
1266.38	65.873
1267.9	69.9839
1269.42	58.6038
1270.93	68.6428
1272.45	83.7997
1273.97	78.9267
1275.49	89.9535
1277	95.2485
1278.52	103.158
1280.04	109.318
1281.56	96.7819
1283.07	100.27
1284.59	105.209
1286.11	109.667
1287.62	118.908
1289.14	126.587
1290.66	126.911
1292.18	128.324
1293.69	136.361
1295.21	146.924
1296.73	175.083
1298.25	142.324
1299.76	156.457
1301.28	164.233
1302.8	176.154
1304.31	183.816
1305.83	178.086
1307.35	207.296
1308.87	186.34
1310.38	218.228
1311.9	204.331
1313.42	222.994
1314.94	222.3
1316.45	234.018
1317.97	264.461
1319.49	265.251
1321.01	249.013
1322.52	285.457
1324.04	294.145
1325.56	290.084
1327.07	303.365
1328.59	300.613
1330.11	313.655
1331.63	334.588
1333.14	341.381
1334.66	330.907
1336.18	339.67
1337.7	347.265
1339.21	330.725
1340.73	356.342
1342.25	366.603
1343.76	374.091
1345.28	378.306
1346.8	372.721
1348.32	373.466
1349.83	360.718
1351.35	375.686
1352.87	361.155
1354.39	356.368
1355.9	357.009
1357.42	328.186
1358.94	359.641
1360.46	342.755
1361.97	336.6
1363.49	313.989
1365.01	307.069
1366.52	292.292
1368.04	290.504
1369.56	283.057
1371.08	275.617
1372.59	256.477
1374.11	255.699
1375.63	247.395
1377.15	251.184
1378.66	229.006
1380.18	215.515
1381.7	228.833
1383.21	193.844
1384.73	200.12
1386.25	187.382
1387.77	187.51
1389.28	171.622
1390.8	157.345
1392.32	165.517
1393.84	155.509
1395.35	146.943
1396.87	149.244
1398.39	129.795
1399.91	131.939
1401.42	119.251
1402.94	109.079
1404.46	118.556
1405.97	94.7723
1407.49	117.478
1409.01	82.1953
1410.53	96.8261
1412.04	94.3733
1413.56	89.078
1415.08	82.2553
1416.6	86.8953
1418.11	70.3955
1419.63	89.9267
1421.15	53.1853
1422.66	54.9648
1424.18	53.6703
1425.7	57.8206
1427.22	53.4842
1428.73	49.4745
1430.25	52.7039
1431.77	45.3962
1433.29	39.4857
1434.8	36.2311
1436.32	32.9809
1437.84	33.1308
1439.36	31.116
1440.87	40.7197
1442.39	38.4932
1443.91	23.019
1445.42	17.2159
1446.94	17.922
1448.46	22.4235
1449.98	17.8475
1451.49	16.4636
1453.01	15.154
1454.53	6.27806
1456.05	22.3646
1457.56	1.98109
1459.08	10.9318
1460.6	6.00134
1462.11	10.9264
1463.63	9.61479
1465.15	3.54445
1466.67	-0.992822
1468.18	14.2931
1469.7	9.1303
1471.22	8.57829
1472.74	11.4953
1474.25	-0.721606
1475.77	2.48859
1477.29	6.19546
1478.81	-3.74214
1480.32	3.38943
1481.84	7.53081
1483.36	3.69963
1484.87	-7.52584
1486.39	-1.72133
1487.91	-5.87115
1489.43	3.04835
1490.94	10.5602
1492.46	6.8173
1493.98	11.2624
1495.5	11.6871
1497.01	4.85067
1498.53	14.553
1500.05	9.05266
1501.56	20.9066
1503.08	12.9005
1504.6	16.2408
1506.12	34.0871
1507.63	22.5067
1509.15	30.2779
1510.67	30.105
1512.19	31.2914
1513.7	31.4958
1515.22	32.8419
1516.74	38.1951
1518.26	40.435
1519.77	42.3467
1521.29	45.612
1522.81	52.0719
1524.32	64.0039
1525.84	58.6207
1527.36	63.1413
1528.88	67.7634
1530.39	75.8978
1531.91	83.141
1533.43	92.0425
1534.95	84.6793
1536.46	98.4576
1537.98	103.712
1539.5	99.4091
1541.01	117.527
1542.53	111.782
1544.05	117.629
1545.57	113.316
1547.08	133.333
1548.6	139.742
1550.12	147.677
1551.64	157.062
1553.15	170.924
1554.67	175.203
1556.19	189.379
1557.71	205.241
1559.22	211.989
1560.74	221.358
1562.26	219.834
1563.77	238.35
1565.29	251.404
1566.81	252.308
1568.33	273.844
1569.84	277.491
1571.36	302.307
1572.88	307.824
1574.4	315.43
1575.91	341.258
1577.43	352.958
1578.95	368.082
1580.46	370.308
1581.98	382.475
1583.5	386.588
1585.02	406.481
1586.53	406.533
1588.05	417.063
1589.57	439.528
1591.09	435.855
1592.6	441.901
1594.12	451.501
1595.64	460.744
1597.16	468.165
1598.67	459.044
1600.19	458.445
1601.71	456.821
1603.22	463.086
1604.74	452.526
1606.26	454.594
1607.78	449.841
1609.29	441.971
1610.81	442.053
1612.33	419.717
1613.85	422.204
1615.36	415.762
1616.88	407.428
1618.4	389.953
1619.91	375.966
1621.43	366.187
1622.95	359.693
1624.47	342.624
1625.98	322.871
1627.5	311.931
1629.02	302.006
1630.54	283.481
1632.05	255.656
1633.57	256.752
1635.09	235.977
1636.6	228.599
1638.12	208.212
1639.64	206.339
1641.16	194.595
1642.67	169.935
1644.19	168.541
1645.71	163.34
1647.23	145.842
1648.74	128.692
1650.26	130.564
1651.78	109.142
1653.3	107.436
1654.81	99.0814
1656.33	95.5407
1657.85	91.2439
1659.36	79.9383
1660.88	75.0798
1662.4	69.8675
1663.92	59.1591
1665.43	57.2765
1666.95	52.5098
1668.47	43.1085
1669.99	40.1958
1671.5	39.7025
1673.02	39.316
1674.54	31.9394
1676.06	30.2252
1677.57	22.5748
1679.09	24.6712
1680.61	23.1875
1682.12	14.9075
1683.64	18.9384
1685.16	21.5393
1686.68	14.8337
1688.19	16.007
1689.71	14.9398
1691.23	7.73902
1692.75	12.3302
1694.26	6.75126
1695.78	10.7625
1697.3	6.74751
1698.81	1.53217
1700.33	3.53216
1701.85	1.10447
1703.37	4.60156
1704.88	3.57411
1706.4	2.44981
1707.92	1.3702
1709.44	2.3705
1710.95	0.720922
1712.47	2.97639
1713.99	0.136206
1715.51	-3.87551
1717.02	-3.95091
1718.54	2.28658
1720.06	-2.01133
1721.57	-2.54203
1723.09	-2.18805
1724.61	-0.658673
1726.13	-0.700891
1727.64	-0.239802
1729.16	2.29125
1730.68	-2.71982
1732.2	-7.37496
1733.71	0.423079
1735.23	-1.77063
1736.75	-0.398105
1738.26	-0.403425
1739.78	-3.02068
1741.3	0.500072
1742.82	1.78183
1744.33	1.39296
1745.85	2.07725
1747.37	1.59171
1748.89	0.552814
1750.4	2.43502
1751.92	1.8476
1753.44	-0.642756
1754.95	6.48612
1756.47	-3.8877
1757.99	1.13029
1759.51	-0.810471
1761.02	-0.605319
1762.54	1.23494
1764.06	1.47577
1765.58	3.1598
1767.09	2.65317
1768.61	-2.50673
1770.13	4.40126
1771.65	0.737218
1773.16	-1.45313
1774.68	1.42111
1776.2	0.0563805
1777.71	2.30395
1779.23	4.4035
1780.75	0.0815134
1782.27	1.08598
1783.78	-0.676652
1785.3	0.323928
1786.82	3.07162
1788.34	0.887974
1789.85	-1.2621
1791.37	1.64433
1792.89	-1.12443
1794.4	-0.646134
1795.92	3.17883
1797.44	-3.9765
1798.96	1.68121
1800.47	0.581152
1801.99	1.07619
1803.51	-1.42652
1805.03	-0.828835
1806.54	1.05752
1808.06	2.72029
1809.58	-1.19254
1811.1	2.41254
1812.61	2.16589
1814.13	-3.38586
1815.65	-0.117546
1817.16	0.0148097
1818.68	2.21337
1820.2	0.80868
1821.72	2.77045
1823.23	0.357685
1824.75	1.66632
1826.27	3.47094
1827.79	0.235113
1829.3	-0.382639
1830.82	0.222691
1832.34	1.62636
1833.85	4.45996
1835.37	-0.496331
1836.89	6.32946
1838.41	3.69261
1839.92	7.71338
1841.44	5.03253
1842.96	7.59344
1844.48	6.88325
1845.99	6.64079
1847.51	10.8225
1849.03	8.17028
1850.55	9.21391
1852.06	2.78306
1853.58	6.77202
1855.1	7.18374
1856.61	6.34509
1858.13	7.50774
1859.65	3.74633
1861.17	2.89239
1862.68	-2.73831
1864.2	-0.760941
1865.72	-0.906334
1867.24	-0.493702
1868.75	-3.58117
1870.27	-0.448906
1871.79	-1.79431
1873.3	-2.71133
1874.82	1.09383
1876.34	0.923676
1877.86	-4.74534
1879.37	-0.127705
1880.89	-1.88274
1882.41	-8.47682
1883.93	-6.47779
1885.44	-1.98368
1886.96	0.196198
1888.48	-5.41434
1890	-0.263161
1891.51	-8.84267
1893.03	-5.15564
1894.55	3.02496
1896.06	-5.70284
1897.58	5.54507
1899.1	-5.9366
1900.62	-4.63512
1902.13	-3.20475
1903.65	-0.918003
1905.17	-2.49796
1906.69	-7.97977
1908.2	0.663128
1909.72	-2.34734
1911.24	-5.18009
1912.75	0.466843
1914.27	-4.74671
1915.79	-0.623608
1917.31	-5.63052
1918.82	-4.49084
1920.34	-8.98759
1921.86	-0.463249
1923.38	-5.46054
1924.89	-6.30841
1926.41	-3.96033
1927.93	-6.48771
1929.45	-2.41531
1930.96	-0.757923
1932.48	-3.12892
1934	-5.68714
1935.51	-6.17796
1937.03	-1.15093
1938.55	-6.09096
1940.07	-2.83147
1941.58	0.942493
1943.1	-3.22775
1944.62	-4.67761
1946.14	-3.81263
1947.65	0.485714
1949.17	-2.9147
1950.69	-2.56039
1952.2	-3.74681
1953.72	-9.0774
1955.24	-2.396
1956.76	-3.94737
1958.27	-4.57605
1959.79	-2.70936
1961.31	1.34571
1962.83	-3.01296
1964.34	3.6044
1965.86	-7.30719
1967.38	-6.13584
1968.9	-6.89016
1970.41	-4.51141
1971.93	-7.80981
1973.45	-4.08685
1974.96	-2.43145
1976.48	1.97729
1978	2.67138
1979.52	-4.75221
1981.03	-0.585888
1982.55	-5.66143
1984.07	-4.97788
1985.59	1.41312
1987.1	1.16269
1988.62	-5.62403
1990.14	0.535957
1991.65	-3.57038
1993.17	-3.36119
1994.69	-1.61482
1996.21	-4.36503
1997.72	1.1676
1999.24	-1.20446
2000	-6.29547