File: Example Data/Raman/CNT - TIM/Raytheon/Al foil/2010/08-27-10/22 - bottom.txt
400	14.0782
401.517	9.43085
403.035	6.2751
404.552	7.93844
406.069	10.2862
407.587	4.70296
409.104	4.01772
410.621	10.1641
412.138	6.91773
413.656	11.7857
415.173	8.83302
416.69	3.41106
418.208	6.19909
419.725	5.06669
421.242	9.34438
422.76	5.0449
424.277	5.28102
425.794	12.8348
427.312	11.475
428.829	11.8111
430.346	11.9301
431.863	2.49635
433.381	8.58198
434.898	5.25663
436.415	9.98033
437.933	3.62736
439.45	6.46597
440.967	5.44916
442.485	7.38259
444.002	10.7563
445.519	8.48269
447.036	13.1531
448.554	9.67866
450.071	7.3164
451.588	6.0837
453.106	2.38869
454.623	8.19853
456.14	5.86177
457.658	5.69294
459.175	9.26167
460.692	2.23044
462.21	2.72476
463.727	7.56045
465.244	-1.07367
466.762	0.308544
468.279	1.13589
469.796	3.9043
471.313	0.770944
472.831	4.93131
474.348	-0.153289
475.865	3.45452
477.383	0.831356
478.9	4.88207
480.417	3.18092
481.935	3.20524
483.452	9.29865
484.969	11.8431
486.486	0.495109
488.004	0.995777
489.521	-0.532533
491.038	-1.48693
492.556	0.944414
494.073	4.60847
495.59	0.770585
497.108	-0.496088
498.625	-0.703709
500.142	-2.01267
501.66	-1.79992
503.177	-4.71313
504.694	0.652563
506.211	-5.22837
507.729	-0.184229
509.246	-7.30169
510.763	-3.14151
512.281	0.216067
513.798	-4.24
515.315	-3.00081
516.833	-2.84055
518.35	0.243134
519.867	-0.89408
521.385	-8.73509
522.902	-2.70271
524.419	-0.203536
525.936	0.350726
527.454	-3.85244
528.971	-2.76991
530.488	-2.3304
532.006	-1.98581
533.523	-0.709384
535.04	-7.5164
536.558	-7.98294
538.075	-4.77284
539.592	-4.13554
541.11	-3.30535
542.627	-1.95491
544.144	-2.08121
545.661	-4.05447
547.179	0.210822
548.696	-1.71784
550.213	3.98079
551.731	-3.65811
553.248	-5.17432
554.765	-2.57338
556.283	-5.2796
557.8	-4.13265
559.317	-1.02539
560.835	2.82654
562.352	-2.21872
563.869	-1.48303
565.386	-0.607545
566.904	-2.82281
568.421	-1.19051
569.938	-3.32491
571.456	-4.01196
572.973	-4.7345
574.49	5.08758
576.008	1.22122
577.525	1.34396
579.042	-6.0014
580.56	-1.40033
582.077	-2.10181
583.594	1.82177
585.111	-3.95689
586.629	-1.43597
588.146	1.43306
589.663	3.28803
591.181	2.2109
592.698	1.41249
594.215	-0.982734
595.733	-3.10831
597.25	-5.6102
598.767	-6.98894
600.284	-5.32845
601.802	0.553031
603.319	4.24747
604.836	-1.16682
606.354	2.17909
607.871	0.981172
609.388	3.80597
610.906	-0.306835
612.423	-1.51815
613.94	-6.47543
615.458	-3.81955
616.975	-1.40327
618.492	2.41745
620.009	-10.7666
621.527	-4.54756
623.044	-3.33145
624.561	-1.41063
626.079	2.38061
627.596	-2.46565
629.113	-3.6017
630.631	0.286316
632.148	1.51196
633.665	0.835048
635.183	-0.75682
636.7	1.62945
638.217	2.33705
639.734	1.14136
641.252	-2.82008
642.769	-1.55645
644.286	2.79253
645.804	1.78948
647.321	3.21158
648.838	-1.5383
650.356	2.60032
651.873	-0.470089
653.39	-3.78932
654.908	5.35
656.425	4.45853
657.942	2.4739
659.459	3.04669
660.977	2.99049
662.494	-2.30549
664.011	-1.14438
665.529	-0.893739
667.046	4.8851
668.563	4.16471
670.081	-2.63356
671.598	-0.959575
673.115	3.37128
674.633	8.42731
676.15	5.031
677.667	-2.54588
679.184	5.7014
680.702	-2.76275
682.219	2.67671
683.736	0.75401
685.254	5.82301
686.771	3.62259
688.288	1.75763
689.806	3.9576
691.323	-2.09287
692.84	4.32309
694.358	-1.30787
695.875	7.17798
697.392	6.00167
698.909	3.53427
700.427	0.812897
701.944	1.63162
703.461	3.80996
704.979	2.24454
706.496	4.13902
708.013	-0.6616
709.531	3.75338
711.048	5.089
712.565	3.84387
714.083	4.20811
715.6	2.76789
717.117	3.94345
718.634	4.9995
720.152	0.744038
721.669	4.44572
723.186	9.24599
724.704	-1.90865
726.221	4.10856
727.738	3.13081
729.256	3.25132
730.773	7.77887
732.29	7.99532
733.807	3.24949
735.325	8.69251
736.842	2.09826
738.359	5.11937
739.877	5.58404
741.394	4.90294
742.911	6.55266
744.429	7.55859
745.946	1.74318
747.463	8.01541
748.981	6.16887
750.498	10.1278
752.015	12.0591
753.532	3.82221
755.05	10.53
756.567	5.75389
758.084	8.30282
759.602	9.915
761.119	8.10979
762.636	9.6054
764.154	5.08924
765.671	9.70365
767.188	7.64317
768.706	9.18226
770.223	9.66443
771.74	15.2533
773.257	12.4512
774.775	14.7342
776.292	7.29153
777.809	6.8642
779.327	11.1445
780.844	12.4913
782.361	7.75696
783.879	9.66654
785.396	10.5433
786.913	16.9483
788.431	7.78887
789.948	10.7952
791.465	10.4895
792.982	16.9016
794.5	12.4298
796.017	12.9574
797.534	12.1217
799.052	1.56765
800.569	11.0955
802.086	7.44651
803.604	16.4369
805.121	14.3155
806.638	14.0581
808.156	11.3742
809.673	14.2074
811.19	9.97257
812.707	17.1641
814.225	14.5802
815.742	13.7434
817.259	19.3149
818.777	9.2066
820.294	17.4173
821.811	10.9126
823.329	23.6463
824.846	21.7644
826.363	22.7399
827.88	7.86456
829.398	14.3692
830.915	17.2449
832.432	10.3661
833.95	20.6911
835.467	18.8382
836.984	11.2652
838.502	19.3308
840.019	8.42786
841.536	22.9721
843.054	13.7693
844.571	17.1929
846.088	22.0209
847.606	19.6683
849.123	21.5902
850.64	15.5951
852.157	15.771
853.675	9.73702
855.192	15.9319
856.709	23.4945
858.227	19.4897
859.744	16.8227
861.261	20.9478
862.779	23.4782
864.296	23.1771
865.813	11.2898
867.331	17.7767
868.848	8.15869
870.365	14.2585
871.882	9.71951
873.4	11.6846
874.917	15.1832
876.434	16.7183
877.952	14.0751
879.469	8.60679
880.986	14.9366
882.504	10.7896
884.021	10.0836
885.538	8.85842
887.055	12.0643
888.573	10.7587
890.09	11.4474
891.607	9.01029
893.125	9.51531
894.642	3.7506
896.159	8.33748
897.677	11.1738
899.194	0.0191095
900.711	4.6614
902.229	3.91428
903.746	8.74833
905.263	5.10992
906.78	8.285
908.298	10.8361
909.815	1.91408
911.332	6.00095
912.85	3.25804
914.367	5.72389
915.884	6.13612
917.402	5.13628
918.919	7.17909
920.436	-0.397052
921.954	3.30736
923.471	5.20502
924.988	7.8888
926.505	6.63286
928.023	1.08732
929.54	0.500072
931.057	6.67614
932.575	0.647882
934.092	8.64784
935.609	6.51468
937.127	3.19995
938.644	2.40232
940.161	-0.332618
941.679	1.70562
943.196	2.72303
944.713	4.38555
946.23	-5.37591
947.748	-3.08649
949.265	-0.371796
950.782	-0.377441
952.3	-0.35632
953.817	0.72361
955.334	1.1948
956.852	2.35451
958.369	-0.929701
959.886	4.52249
961.404	-2.60622
962.921	-4.0756
964.438	0.799806
965.955	3.60067
967.473	1.99192
968.99	-3.64103
970.507	-0.305323
972.025	2.99316
973.542	-1.95552
975.059	-8.87357
976.577	0.719782
978.094	-1.50764
979.611	-3.74755
981.128	-6.4102
982.646	-2.97162
984.163	1.83598
985.68	-3.35562
987.198	1.03453
988.715	4.26344
990.232	-0.881184
991.75	-4.31073
993.267	-3.13834
994.784	-1.09141
996.302	-5.06453
997.819	-6.0052
999.336	-4.02017
1000.85	-0.0766786
1002.37	-0.502876
1003.89	-5.58164
1005.41	-1.65994
1006.92	-6.22981
1008.44	0.14547
1009.96	5.78964
1011.47	-1.38284
1012.99	1.87312
1014.51	2.03371
1016.03	9.28632
1017.54	8.97258
1019.06	1.99297
1020.58	-3.96674
1022.1	3.59339
1023.61	5.13407
1025.13	1.0269
1026.65	1.16077
1028.17	-1.18731
1029.68	-1.86519
1031.2	3.44794
1032.72	-0.812707
1034.23	4.18987
1035.75	1.27799
1037.27	2.62344
1038.79	-0.807601
1040.3	4.3538
1041.82	2.62238
1043.34	5.44113
1044.86	5.37297
1046.37	-3.56063
1047.89	0.426691
1049.41	3.86079
1050.92	3.70157
1052.44	0.350256
1053.96	-0.180381
1055.48	-2.32205
1056.99	-4.99367
1058.51	5.15418
1060.03	-4.00165
1061.55	-6.3706
1063.06	0.334401
1064.58	-2.85664
1066.1	-5.38526
1067.61	1.0614
1069.13	-2.06436
1070.65	-8.31609
1072.17	6.96207
1073.68	2.26734
1075.2	-13.4725
1076.72	6.20691
1078.24	0.531158
1079.75	-1.25233
1081.27	0.74265
1082.79	-2.21594
1084.31	2.92495
1085.82	-3.5533
1087.34	-6.01237
1088.86	5.67283
1090.37	1.65827
1091.89	-2.0486
1093.41	-0.208639
1094.93	-1.9953
1096.44	-2.83743
1097.96	-0.971246
1099.48	-0.606024
1101	4.03398
1102.51	3.76964
1104.03	4.07276
1105.55	2.09968
1107.06	-2.51983
1108.58	-0.196078
1110.1	4.8738
1111.62	2.84878
1113.13	4.29665
1114.65	2.90895
1116.17	4.44984
1117.69	6.8716
1119.2	0.803223
1120.72	2.28003
1122.24	7.72114
1123.76	-0.0312953
1125.27	6.09941
1126.79	7.15364
1128.31	-0.377948
1129.82	5.55753
1131.34	20.3038
1132.86	3.70655
1134.38	9.75235
1135.89	13.9762
1137.41	12.4869
1138.93	8.55196
1140.45	15.8891
1141.96	18.5611
1143.48	17.612
1145	19.9844
1146.51	25.2598
1148.03	30.4903
1149.55	27.9023
1151.07	22.0645
1152.58	28.9551
1154.1	27.2246
1155.62	34.088
1157.14	38.9286
1158.65	34.9709
1160.17	31.5579
1161.69	40.0402
1163.21	41.9119
1164.72	35.335
1166.24	39.2002
1167.76	37.1742
1169.27	48.2032
1170.79	44.2048
1172.31	44.1483
1173.83	39.9569
1175.34	38.4359
1176.86	47.4149
1178.38	42.1261
1179.9	43.0436
1181.41	43.2932
1182.93	39.3096
1184.45	40.2382
1185.96	42.4555
1187.48	46.6176
1189	46.6157
1190.52	49.3407
1192.03	47.1134
1193.55	43.5966
1195.07	48.773
1196.59	51.4307
1198.1	48.7627
1199.62	46.6183
1201.14	47.5292
1202.66	44.7248
1204.17	45.0462
1205.69	48.3458
1207.21	46.9654
1208.72	55.1782
1210.24	48.0396
1211.76	55.2229
1213.28	49.3352
1214.79	61.1272
1216.31	50.1382
1217.83	56.5114
1219.35	60.5093
1220.86	54.0437
1222.38	63.478
1223.9	43.7599
1225.41	55.3183
1226.93	53.7161
1228.45	58.891
1229.97	59.9281
1231.48	58.169
1233	67.3274
1234.52	64.9077
1236.04	62.6082
1237.55	66.885
1239.07	59.4027
1240.59	65.2692
1242.11	71.9674
1243.62	66.4429
1245.14	69.6427
1246.66	76.3519
1248.17	74.2023
1249.69	79.8265
1251.21	78.1779
1252.73	83.851
1254.24	77.9967
1255.76	87.1786
1257.28	82.7923
1258.8	79.9618
1260.31	85.7282
1261.83	91.836
1263.35	97.0556
1264.86	93.961
1266.38	96.4173
1267.9	97.6948
1269.42	94.0038
1270.93	100.723
1272.45	105.081
1273.97	105.498
1275.49	121.312
1277	118.066
1278.52	125.002
1280.04	122.01
1281.56	137.585
1283.07	132.634
1284.59	133.928
1286.11	137.23
1287.62	137.945
1289.14	145.324
1290.66	139.049
1292.18	154.792
1293.69	173.065
1295.21	162.222
1296.73	169.05
1298.25	179.831
1299.76	175.849
1301.28	191.972
1302.8	182.165
1304.31	191.96
1305.83	194.507
1307.35	210.032
1308.87	209.799
1310.38	217.876
1311.9	215.827
1313.42	223.127
1314.94	219.003
1316.45	245.722
1317.97	222.131
1319.49	245.57
1321.01	248.58
1322.52	254.352
1324.04	249.988
1325.56	261.763
1327.07	257.556
1328.59	273.273
1330.11	282.546
1331.63	256.075
1333.14	277.269
1334.66	264.914
1336.18	292.743
1337.7	289.233
1339.21	277.384
1340.73	271.579
1342.25	269.694
1343.76	284.201
1345.28	280.418
1346.8	285.763
1348.32	281.802
1349.83	270.852
1351.35	257.772
1352.87	264.648
1354.39	282.035
1355.9	272.648
1357.42	266.151
1358.94	263.542
1360.46	236.756
1361.97	258.103
1363.49	235.844
1365.01	244.777
1366.52	225.866
1368.04	217.747
1369.56	231.45
1371.08	216.513
1372.59	224.274
1374.11	202.162
1375.63	199.538
1377.15	201.878
1378.66	184.87
1380.18	179.283
1381.7	174.125
1383.21	165.347
1384.73	154.062
1386.25	159.634
1387.77	150.632
1389.28	157.732
1390.8	129.115
1392.32	125.874
1393.84	135.696
1395.35	128.449
1396.87	124.74
1398.39	118.596
1399.91	108.426
1401.42	104.297
1402.94	101.285
1404.46	100.831
1405.97	102.904
1407.49	86.753
1409.01	83.1258
1410.53	63.2085
1412.04	71.6356
1413.56	65.0589
1415.08	81.6627
1416.6	68.9897
1418.11	67.2704
1419.63	65.7877
1421.15	57.5789
1422.66	72.0614
1424.18	54.0895
1425.7	48.4529
1427.22	46.4779
1428.73	40.2204
1430.25	38.1291
1431.77	42.1059
1433.29	34.2112
1434.8	27.3951
1436.32	32.3354
1437.84	27.162
1439.36	13.1152
1440.87	15.3616
1442.39	35.3771
1443.91	12.2668
1445.42	21.38
1446.94	19.7905
1448.46	16.0306
1449.98	14.9581
1451.49	6.92634
1453.01	18.2681
1454.53	11.2024
1456.05	9.8702
1457.56	8.7052
1459.08	17.3901
1460.6	7.94611
1462.11	2.14293
1463.63	7.24596
1465.15	10.7203
1466.67	0.737305
1468.18	7.94196
1469.7	1.98221
1471.22	7.00069
1472.74	4.59294
1474.25	8.55124
1475.77	5.40903
1477.29	1.00067
1478.81	-0.114563
1480.32	10.3106
1481.84	9.85973
1483.36	7.63324
1484.87	3.83461
1486.39	0.754333
1487.91	6.52856
1489.43	-6.37398
1490.94	13.2738
1492.46	3.77408
1493.98	4.24696
1495.5	-0.963638
1497.01	-3.24931
1498.53	-11.9566
1500.05	4.62889
1501.56	-0.908569
1503.08	1.18796
1504.6	18.3883
1506.12	14.4602
1507.63	11.0413
1509.15	6.23804
1510.67	1.74054
1512.19	15.1322
1513.7	4.51963
1515.22	2.46537
1516.74	10.234
1518.26	1.66234
1519.77	19.1006
1521.29	22.8931
1522.81	22.4299
1524.32	21.043
1525.84	24.809
1527.36	29.1914
1528.88	42.8837
1530.39	28.4208
1531.91	35.4162
1533.43	37.7177
1534.95	38.9062
1536.46	46.6659
1537.98	53.8346
1539.5	52.9303
1541.01	50.0425
1542.53	49.2685
1544.05	65.0439
1545.57	61.703
1547.08	74.7468
1548.6	79.7837
1550.12	93.7824
1551.64	90.836
1553.15	105.294
1554.67	109.965
1556.19	112.408
1557.71	114.21
1559.22	118.574
1560.74	129.94
1562.26	123.941
1563.77	143.578
1565.29	146.373
1566.81	145.458
1568.33	166.894
1569.84	162.742
1571.36	182.305
1572.88	172.712
1574.4	193.704
1575.91	194.743
1577.43	213.851
1578.95	220.448
1580.46	243.596
1581.98	228.78
1583.5	258.066
1585.02	254.926
1586.53	278.512
1588.05	299.171
1589.57	293.446
1591.09	304.255
1592.6	305.255
1594.12	309.491
1595.64	325.958
1597.16	323.09
1598.67	322.316
1600.19	334.095
1601.71	310.085
1603.22	261.801
1604.74	305.359
1606.26	327.483
1607.78	331.839
1609.29	321.841
1610.81	305.773
1612.33	309.081
1613.85	308.01
1615.36	300.715
1616.88	278.775
1618.4	257.093
1619.91	270.45
1621.43	248.389
1622.95	231.471
1624.47	217.038
1625.98	209.524
1627.5	193.54
1629.02	180.3
1630.54	164.971
1632.05	155.6
1633.57	144.157
1635.09	133.026
1636.6	130.647
1638.12	118.24
1639.64	112.129
1641.16	102.507
1642.67	92.079
1644.19	94.9766
1645.71	84.6913
1647.23	84.7273
1648.74	71.1095
1650.26	71.4198
1651.78	68.3464
1653.3	59.0794
1654.81	52.1201
1656.33	49.0171
1657.85	42.4192
1659.36	37.9849
1660.88	35.1691
1662.4	35.1354
1663.92	27.7264
1665.43	27.0118
1666.95	17.4968
1668.47	18.4391
1669.99	14.0147
1671.5	14.6352
1673.02	10.3046
1674.54	6.08184
1676.06	5.59852
1677.57	9.64199
1679.09	5.53045
1680.61	-0.398659
1682.12	-2.57654
1683.64	-1.21031
1685.16	-2.41863
1686.68	0.0327277
1688.19	-6.40712
1689.71	-0.545865
1691.23	-0.678161
1692.75	-4.27696
1694.26	-2.95108
1695.78	-1.36445
1697.3	-1.43214
1698.81	-4.68991
1700.33	-2.63135
1701.85	2.14292
1703.37	-0.279921
1704.88	2.94271
1706.4	-2.69056
1707.92	-1.20815
1709.44	3.91863
1710.95	2.38795
1712.47	2.58773
1713.99	-2.50493
1715.51	4.12209
1717.02	3.68542
1718.54	2.63214
1720.06	4.21003
1721.57	8.95562
1723.09	2.99822
1724.61	7.42249
1726.13	2.13195
1727.64	5.92703
1729.16	2.24956
1730.68	3.67747
1732.2	5.99614
1733.71	3.40025
1735.23	0.762795
1736.75	2.56131
1738.26	3.70686
1739.78	2.73004
1741.3	0.634191
1742.82	3.01008
1744.33	3.08391
1745.85	3.70535
1747.37	-0.498018
1748.89	0.223184
1750.4	-0.752872
1751.92	-1.0522
1753.44	3.66498
1754.95	2.47091
1756.47	3.5402
1757.99	0.203301
1759.51	1.04979
1761.02	4.44958
1762.54	0.321234
1764.06	6.40506
1765.58	4.52269
1767.09	3.77175
1768.61	2.8673
1770.13	3.33478
1771.65	5.38153
1773.16	3.7304
1774.68	2.65438
1776.2	3.08563
1777.71	3.32703
1779.23	6.85879
1780.75	5.33559
1782.27	4.85172
1783.78	3.87945
1785.3	1.71926
1786.82	4.90659
1788.34	6.73615
1789.85	6.64909
1791.37	8.01795
1792.89	7.31024
1794.4	6.28239
1795.92	3.65892
1797.44	0.103507
1798.96	3.71252
1800.47	4.88081
1801.99	3.93998
1803.51	2.97376
1805.03	5.24629
1806.54	4.85313
1808.06	4.15704
1809.58	6.61776
1811.1	8.54587
1812.61	5.13685
1814.13	2.70844
1815.65	2.17144
1817.16	6.40552
1818.68	4.99042
1820.2	3.4821
1821.72	4.15427
1823.23	2.96527
1824.75	0.184642
1826.27	4.59073
1827.79	1.57554
1829.3	-0.289806
1830.82	5.85788
1832.34	7.41423
1833.85	4.43494
1835.37	2.17809
1836.89	5.25813
1838.41	0.125011
1839.92	0.638671
1841.44	1.04691
1842.96	0.655266
1844.48	1.49769
1845.99	4.58614
1847.51	1.72089
1849.03	2.28909
1850.55	5.42904
1852.06	6.69856
1853.58	5.32378
1855.1	4.18744
1856.61	9.32247
1858.13	1.85107
1859.65	5.51853
1861.17	8.01658
1862.68	5.10451
1864.2	0.480992
1865.72	4.0291
1867.24	3.38469
1868.75	2.53211
1870.27	3.70943
1871.79	5.25516
1873.3	-0.80904
1874.82	4.2997
1876.34	5.12118
1877.86	4.74983
1879.37	2.13253
1880.89	1.01377
1882.41	1.41077
1883.93	2.99753
1885.44	-2.10887
1886.96	1.46158
1888.48	0.115742
1890	-1.88745
1891.51	0.821335
1893.03	6.24503
1894.55	-1.4527
1896.06	3.40033
1897.58	-2.49237
1899.1	-0.439785
1900.62	-0.840111
1902.13	-0.137394
1903.65	-0.727596
1905.17	-1.41268
1906.69	0.44598
1908.2	8.08041
1909.72	-3.07381
1911.24	0.716194
1912.75	0.962479
1914.27	0.382904
1915.79	-2.90542
1917.31	4.65796
1918.82	-0.85294
1920.34	0.23666
1921.86	3.96349
1923.38	-0.35902
1924.89	2.50245
1926.41	-0.148922
1927.93	-1.61421
1929.45	2.63276
1930.96	3.00494
1932.48	0.613846
1934	0.576488
1935.51	-3.09185
1937.03	-0.449123
1938.55	-0.878075
1940.07	2.13276
1941.58	2.82216
1943.1	-1.03416
1944.62	3.15162
1946.14	1.13713
1947.65	-0.733391
1949.17	-3.08656
1950.69	-2.2861
1952.2	6.79944
1953.72	2.9067
1955.24	1.85793
1956.76	2.20169
1958.27	4.19139
1959.79	2.20545
1961.31	1.2138
1962.83	2.97697
1964.34	-1.75701
1965.86	-3.47045
1967.38	-3.90297
1968.9	1.05429
1970.41	-0.440708
1971.93	-1.71403
1973.45	-0.786564
1974.96	2.73849
1976.48	0.0087738
1978	-0.309624
1979.52	4.11447
1981.03	3.08454
1982.55	2.78622
1984.07	-0.502632
1985.59	2.21721
1987.1	3.66151
1988.62	3.55698
1990.14	1.60065
1991.65	4.58863
1993.17	3.87241
1994.69	6.66753
1996.21	-1.33084
1997.72	2.72558
1999.24	-0.592194
2000	-0.592487