File: Example Data/Raman/CNT - TIM/Raytheon/Cu foil/09-29-10/0 W_1.txt
300	40.8974
301.324	32.5824
302.648	34.5126
303.972	38.4906
305.296	37.5196
306.62	36.8969
307.944	36.9107
309.267	43.3406
310.591	34.7323
311.915	31.0761
313.239	29.6509
314.563	33.8564
315.887	36.0486
317.211	38.0025
318.535	36.1516
319.859	32.714
321.183	33.877
322.507	30.7482
323.831	27.286
325.154	30.8676
326.478	29.6978
327.802	27.1426
329.126	29.4473
330.45	33.3387
331.774	33.9745
333.098	36.6219
334.422	39.1019
335.746	32.4429
337.07	36.0316
338.394	27.5439
339.718	35.4414
341.041	31.2182
342.365	31.1623
343.689	28.1826
345.013	29.8944
346.337	28.5142
347.661	26.1612
348.985	30.7305
350.309	33.5368
351.633	36.2663
352.957	21.4742
354.281	28.9299
355.605	35.145
356.928	29.0811
358.252	23.0808
359.576	28.2631
360.9	32.0279
362.224	27.2229
363.548	21.452
364.872	21.708
366.196	37.0738
367.52	37.6626
368.844	22.6001
370.168	28.8706
371.492	20.7708
372.816	21.7882
374.139	25.8162
375.463	24.5245
376.787	24.8685
378.111	26.5587
379.435	21.5832
380.759	30.8146
382.083	30.7811
383.407	21.1654
384.731	20.1911
386.055	22.413
387.379	13.898
388.703	16.3783
390.026	23.4119
391.35	24.731
392.674	23.3753
393.998	22.292
395.322	18.674
396.646	22.4528
397.97	16.4662
399.294	20.276
400.618	24.3269
401.942	24.331
403.266	24.8463
404.59	21.2543
405.914	19.7646
407.237	17.719
408.561	14.7742
409.885	20.2796
411.209	18.8029
412.533	16.1598
413.857	18.8655
415.181	21.1257
416.505	18.3232
417.829	17.923
419.153	14.6601
420.477	19.2649
421.801	23.6055
423.124	22.251
424.448	20.1385
425.772	17.1434
427.096	18.2639
428.42	18.281
429.744	19.1561
431.068	19.8077
432.392	21.8762
433.716	23.5807
435.04	22.0616
436.364	20.9665
437.688	15.0934
439.011	14.2406
440.335	22.1699
441.659	17.9408
442.983	6.22587
444.307	16.4616
445.631	16.4192
446.955	20.5166
448.279	4.88202
449.603	13.1801
450.927	12.6753
452.251	6.05865
453.575	9.28856
454.898	12.1483
456.222	9.86276
457.546	13.2409
458.87	13.6227
460.194	8.07796
461.518	7.3945
462.842	12.1941
464.166	16.5434
465.49	8.11539
466.814	6.72168
468.138	6.78331
469.462	8.96161
470.786	12.9801
472.109	13.7407
473.433	9.97741
474.757	6.58339
476.081	5.72711
477.405	7.43915
478.729	11.1638
480.053	-0.197852
481.377	1.70065
482.701	8.03374
484.025	2.48687
485.349	3.82607
486.673	6.2868
487.996	4.16476
489.32	1.98186
490.644	3.10912
491.968	5.93338
493.292	7.10623
494.616	0.385624
495.94	8.56482
497.264	0.190737
498.588	-5.0064
499.912	3.35711
501.236	5.32416
502.56	6.19634
503.883	2.74061
505.207	-1.48469
506.531	-3.03497
507.855	-3.75918
509.179	-2.97084
510.503	-0.13038
511.827	-2.54571
513.151	4.3999
514.475	5.63962
515.799	3.0462
517.123	-4.17308
518.447	-0.313801
519.771	-1.78906
521.094	0.573283
522.418	6.21655
523.742	6.42721
525.066	1.86105
526.39	2.50277
527.714	3.47206
529.038	-4.42997
530.362	3.24591
531.686	4.38812
533.01	1.79664
534.334	-0.572832
535.658	-0.719545
536.981	-2.19319
538.305	-3.11611
539.629	-3.68659
540.953	-2.67071
542.277	-3.82358
543.601	-4.29547
544.925	-4.9299
546.249	-5.8036
547.573	-1.98465
548.897	-3.67867
550.221	-7.19698
551.545	3.69218
552.868	-8.92431
554.192	-3.51059
555.516	-3.32111
556.84	-9.52436
558.164	-1.78491
559.488	-1.51457
560.812	-1.80391
562.136	1.14125
563.46	-1.55706
564.784	-4.4722
566.108	-2.63569
567.432	-2.04149
568.755	8.64392
570.079	-2.2007
571.403	5.58891
572.727	4.84536
574.051	-6.35057
575.375	-1.6273
576.699	-1.78553
578.023	0.30844
579.347	-3.5548
580.671	-8.48155
581.995	-4.26774
583.319	-0.676043
584.643	-0.95328
585.966	0.220525
587.29	-2.40462
588.614	-4.01538
589.938	0.689982
591.262	-4.62067
592.586	0.944208
593.91	-14.0898
595.234	-0.589866
596.558	-6.76144
597.882	-5.28954
599.206	-5.22655
600.53	-1.29014
601.854	-1.91575
603.177	-6.28279
604.501	-2.42815
605.825	2.23502
607.149	-2.84907
608.473	-5.87342
609.797	-3.09111
611.121	-2.29551
612.445	-6.46318
613.769	-2.33467
615.093	0.674983
616.417	-4.15754
617.741	-0.505669
619.064	3.11662
620.388	-1.01971
621.712	0.518592
623.036	0.727782
624.36	-1.80387
625.684	-3.5866
627.008	-2.93814
628.332	-1.65521
629.656	-1.4248
630.98	-0.174336
632.304	0.906733
633.628	-2.59685
634.951	-7.86537
636.275	-2.80028
637.599	1.80778
638.923	1.33966
640.247	-0.0983567
641.571	-8.90724
642.895	-1.58508
644.219	-0.33455
645.543	1.20463
646.867	-1.3347
648.191	0.998535
649.515	4.56631
650.839	1.4392
652.162	-0.274866
653.486	-1.08901
654.81	-4.11342
656.134	5.26503
657.458	0.222117
658.782	1.34852
660.106	-6.34507
661.43	8.91613
662.754	7.66164
664.078	-4.23519
665.402	3.52646
666.726	5.34286
668.049	-2.07182
669.373	-7.82106
670.697	3.15729
672.021	6.57061
673.345	2.46834
674.669	0.886853
675.993	-1.18692
677.317	1.64611
678.641	4.29908
679.965	-1.26749
681.289	-0.179875
682.613	-2.7298
683.936	-0.815473
685.26	2.43386
686.584	-6.19649
687.908	-4.10647
689.232	-11.9372
690.556	-10.0725
691.88	-5.42346
693.204	3.00354
694.528	4.24235
695.852	-2.48529
697.176	-6.30956
698.5	-4.88625
699.823	-0.648967
701.147	3.35638
702.471	1.96894
703.795	-1.68765
705.119	-0.0798174
706.443	-0.564994
707.767	-6.12684
709.091	-7.993
710.415	-0.503355
711.739	0.149323
713.063	3.14431
714.387	1.54296
715.711	4.78453
717.034	2.94108
718.358	0.222341
719.682	-2.86085
721.006	-3.33306
722.33	-1.29102
723.654	-2.64043
724.978	-3.85075
726.302	-2.75061
727.626	-0.0825777
728.95	1.41225
730.274	2.0835
731.598	2.94186
732.921	-1.25037
734.245	4.53001
735.569	-0.113443
736.893	-2.03063
738.217	-0.281131
739.541	0.884808
740.865	3.88947
742.189	2.16499
743.513	1.07004
744.837	0.657597
746.161	1.13303
747.485	-6.32561
748.808	-2.51293
750.132	1.43034
751.456	-4.4176
752.78	-2.57328
754.104	0.902267
755.428	3.88742
756.752	9.77369
758.076	11.6117
759.4	8.63928
760.724	4.90619
762.048	3.33484
763.372	6.33422
764.695	2.02016
766.019	4.62741
767.343	5.11745
768.667	-1.24175
769.991	8.13287
771.315	5.8896
772.639	5.79047
773.963	8.92353
775.287	16.8216
776.611	9.51893
777.935	7.292
779.259	1.13348
780.583	3.17396
781.906	7.16172
783.23	1.80814
784.554	-2.30494
785.878	0.127002
787.202	-2.01436
788.526	1.66834
789.85	7.25625
791.174	3.37772
792.498	3.84868
793.822	7.03761
795.146	8.75086
796.47	12.1427
797.793	5.09129
799.117	-1.72714
800.441	3.46958
801.765	-2.77716
803.089	5.92081
804.413	1.48087
805.737	3.30823
807.061	6.81823
808.385	8.94509
809.709	9.45993
811.033	13.0444
812.357	4.57206
813.68	7.94038
815.004	12.9123
816.328	4.77043
817.652	3.11863
818.976	14.0076
820.3	11.5958
821.624	6.51585
822.948	5.9865
824.272	9.8222
825.596	7.86632
826.92	3.2272
828.244	3.76994
829.568	2.72052
830.891	8.76528
832.215	8.11875
833.539	4.0747
834.863	10.8523
836.187	10.565
837.511	6.06167
838.835	16.5234
840.159	10.1818
841.483	13.3623
842.807	6.55741
844.131	6.91153
845.455	4.15163
846.778	8.95688
848.102	8.91168
849.426	17.4041
850.75	14.1789
852.074	11.6985
853.398	11.046
854.722	10.8949
856.046	6.95819
857.37	6.84821
858.694	8.01862
860.018	6.32371
861.342	6.37363
862.665	11.2765
863.989	10.3241
865.313	9.07024
866.637	12.241
867.961	8.1614
869.285	4.87693
870.609	8.2949
871.933	8.75318
873.257	9.53312
874.581	6.67937
875.905	4.1113
877.229	7.9692
878.552	16.9758
879.876	5.76064
881.2	13.0942
882.524	4.92781
883.848	-1.91105
885.172	1.02916
886.496	5.23632
887.82	-5.40737
889.144	5.30259
890.468	-3.02821
891.792	-2.64039
893.116	-0.340373
894.44	9.20381
895.763	9.8221
897.087	8.4028
898.411	-1.70765
899.735	-0.567135
901.059	3.55303
902.383	1.97967
903.707	-6.54001
905.031	-5.26704
906.355	0.473862
907.679	-4.34861
909.003	-3.26939
910.327	-3.02925
911.651	-2.72835
912.974	6.66077
914.298	6.42895
915.622	-0.0870911
916.946	-2.68666
918.27	-5.38237
919.594	-6.00237
920.918	-1.92542
922.242	0.130755
923.566	-6.53009
924.89	-9.03943
926.214	-2.01949
927.538	-5.00744
928.861	-10.0685
930.185	-4.33784
931.509	3.98392
932.833	1.9542
934.157	-0.655737
935.481	-3.23775
936.805	1.70583
938.129	-2.60868
939.453	-1.82334
940.777	-9.41757
942.101	-4.73681
943.425	-4.98911
944.748	-0.840099
946.072	-6.75454
947.396	-4.10136
948.72	1.74182
950.044	1.88298
951.368	-9.34262
952.692	-8.39655
954.016	8.85646
955.34	-7.19744
956.664	3.74951
957.988	-0.372747
959.312	0.542992
960.635	-1.79752
961.959	-9.11586
963.283	-8.45981
964.607	-4.84811
965.931	-10.6361
967.255	-4.95387
968.579	-9.26597
969.903	-5.00852
971.227	-6.05623
972.551	-13.469
973.875	-15.5222
975.199	-11.5382
976.523	-5.97386
977.846	-1.89623
979.17	-2.36596
980.494	-9.75242
981.818	-10.2455
983.142	-8.38282
984.466	-4.04287
985.79	0.608722
987.114	-9.36552
988.438	-4.99853
989.762	5.05197
991.086	1.91418
992.41	-7.56468
993.733	-8.73646
995.057	-8.38283
996.381	-4.94077
997.705	-0.0724604
999.029	-2.57806
1000.35	-0.936341
1001.68	-4.27866
1003	-6.65101
1004.32	-2.90544
1005.65	-5.52996
1006.97	-8.14817
1008.3	-10.024
1009.62	-7.43888
1010.94	-7.24085
1012.27	2.35109
1013.59	5.88501
1014.92	-0.102596
1016.24	4.44344
1017.56	-0.182078
1018.89	-7.76916
1020.21	-1.36972
1021.54	3.26618
1022.86	-0.506463
1024.18	-7.71497
1025.51	-2.66407
1026.83	-3.80279
1028.16	1.17519
1029.48	-0.123175
1030.8	-3.78225
1032.13	2.49368
1033.45	-0.972082
1034.77	1.63168
1036.1	1.76791
1037.42	7.612
1038.75	2.02345
1040.07	-2.14194
1041.39	-0.118914
1042.72	7.88461
1044.04	10.026
1045.37	4.23814
1046.69	4.58508
1048.01	2.58331
1049.34	6.21628
1050.66	4.74107
1051.99	5.40087
1053.31	8.75713
1054.63	2.69034
1055.96	2.78269
1057.28	4.34281
1058.61	7.44591
1059.93	7.29993
1061.25	6.32754
1062.58	-1.20425
1063.9	5.04781
1065.23	2.23643
1066.55	-2.22913
1067.87	-4.77493
1069.2	-10.6769
1070.52	-6.05898
1071.84	2.59063
1073.17	-0.154135
1074.49	-9.24747
1075.82	1.07881
1077.14	-0.0486358
1078.46	0.68095
1079.79	3.68699
1081.11	-2.7002
1082.44	5.79054
1083.76	1.5614
1085.08	9.80577
1086.41	1.4951
1087.73	-0.691358
1089.06	-3.32214
1090.38	-4.66443
1091.7	-2.60369
1093.03	5.46347
1094.35	-1.01549
1095.68	2.24575
1097	-0.608496
1098.32	0.180496
1099.65	1.19441
1100.97	-1.25398
1102.29	-0.347724
1103.62	2.23038
1104.94	3.8226
1106.27	9.39426
1107.59	5.21221
1108.91	3.30328
1110.24	-0.368547
1111.56	10.7821
1112.89	14.7385
1114.21	9.00226
1115.53	9.29739
1116.86	11.7198
1118.18	12.8498
1119.51	14.3532
1120.83	12.2584
1122.15	9.29208
1123.48	8.88702
1124.8	9.95876
1126.13	14.4485
1127.45	9.88392
1128.77	3.8307
1130.1	16.5236
1131.42	6.86565
1132.74	14.1785
1134.07	19.2168
1135.39	15.8718
1136.72	11.0422
1138.04	15.8075
1139.36	19.0897
1140.69	19.9614
1142.01	9.8994
1143.34	14.983
1144.66	12.752
1145.98	8.10972
1147.31	15.4171
1148.63	14.931
1149.96	20.8176
1151.28	22.7979
1152.6	24.7594
1153.93	20.2601
1155.25	22.4421
1156.58	25.8481
1157.9	32.2157
1159.22	34.1128
1160.55	29.6901
1161.87	30.3687
1163.2	36.8437
1164.52	36.1217
1165.84	32.8617
1167.17	34.6659
1168.49	35.2979
1169.81	27.8708
1171.14	32.0756
1172.46	35.9274
1173.79	40.3384
1175.11	44.6289
1176.43	36.7499
1177.76	34.6243
1179.08	29.9856
1180.41	26.4217
1181.73	28.7212
1183.05	32.9233
1184.38	26.6719
1185.7	33.696
1187.03	34.404
1188.35	32.7405
1189.67	34.2841
1191	37.1964
1192.32	42.3725
1193.65	34.4244
1194.97	35.8831
1196.29	34.033
1197.62	31.6594
1198.94	20.9842
1200.26	34.9079
1201.59	39.9072
1202.91	41.9976
1204.24	42.3922
1205.56	47.2968
1206.88	45.6467
1208.21	46.1431
1209.53	47.347
1210.86	33.6375
1212.18	47.4463
1213.5	43.4866
1214.83	55.6402
1216.15	58.4607
1217.48	57.0993
1218.8	57.1392
1220.12	57.311
1221.45	55.4248
1222.77	56.9477
1224.1	57.758
1225.42	59.5873
1226.74	68.8606
1228.07	53.8415
1229.39	61.3621
1230.71	63.8779
1232.04	62.6988
1233.36	55.3902
1234.69	56.7902
1236.01	66.9225
1237.33	67.7175
1238.66	70.7705
1239.98	67.2192
1241.31	70.5401
1242.63	75.5111
1243.95	78.2795
1245.28	86.4938
1246.6	87.1147
1247.93	88.3406
1249.25	86.7287
1250.57	95.1149
1251.9	94.8958
1253.22	107.61
1254.55	113.135
1255.87	105.271
1257.19	103.595
1258.52	111.695
1259.84	108.701
1261.17	106.693
1262.49	117.305
1263.81	114.544
1265.14	123.317
1266.46	118.951
1267.78	127.729
1269.11	133.36
1270.43	147.466
1271.76	142.189
1273.08	138.413
1274.4	161.17
1275.73	153.726
1277.05	162.272
1278.38	166.141
1279.7	171.636
1281.02	179.035
1282.35	184.747
1283.67	187.765
1285	192.317
1286.32	191.818
1287.64	181.604
1288.97	192.793
1290.29	208.204
1291.62	219.504
1292.94	219.395
1294.26	219.533
1295.59	228.898
1296.91	243.35
1298.23	241.957
1299.56	249.262
1300.88	259.994
1302.21	269.343
1303.53	271.174
1304.85	265.407
1306.18	280.932
1307.5	294.066
1308.83	303.936
1310.15	314.883
1311.47	323.326
1312.8	331.069
1314.12	332.488
1315.45	347.253
1316.77	342.196
1318.09	372.775
1319.42	354.291
1320.74	362.529
1322.07	382.566
1323.39	393.89
1324.71	380.273
1326.04	388.051
1327.36	412.723
1328.68	414.971
1330.01	418.631
1331.33	422.242
1332.66	427.829
1333.98	437.467
1335.3	424.98
1336.63	444.887
1337.95	441.841
1339.28	444.025
1340.6	451.05
1341.92	444.977
1343.25	443.439
1344.57	459.895
1345.9	446.832
1347.22	446.703
1348.54	429.796
1349.87	439.692
1351.19	451.139
1352.52	436.25
1353.84	435.115
1355.16	428.904
1356.49	420.962
1357.81	419.647
1359.14	414.5
1360.46	416.866
1361.78	401.248
1363.11	390.957
1364.43	383.065
1365.75	373.053
1367.08	362.556
1368.4	363.434
1369.73	364.286
1371.05	347.918
1372.37	337.872
1373.7	333.981
1375.02	314.555
1376.35	317.742
1377.67	311.941
1378.99	298.962
1380.32	282.067
1381.64	272.872
1382.97	270.419
1384.29	267.823
1385.61	270.424
1386.94	240.081
1388.26	246.221
1389.59	238.395
1390.91	228.802
1392.23	228.786
1393.56	216.67
1394.88	213.642
1396.2	198.697
1397.53	183.497
1398.85	173.358
1400.18	167.553
1401.5	161.24
1402.82	147.421
1404.15	148.3
1405.47	146.729
1406.8	149.911
1408.12	131.796
1409.44	140.232
1410.77	115.205
1412.09	113.169
1413.42	110.84
1414.74	106.364
1416.06	101.217
1417.39	94.7577
1418.71	90.373
1420.04	86.9527
1421.36	86.3981
1422.68	72.0525
1424.01	68.7921
1425.33	70.2524
1426.65	65.8174
1427.98	63.342
1429.3	60.1017
1430.63	52.4131
1431.95	49.2382
1433.27	44.061
1434.6	41.2021
1435.92	41.1011
1437.25	44.5028
1438.57	32.569
1439.89	45.3897
1441.22	34.3609
1442.54	28.2826
1443.87	32.2628
1445.19	36.424
1446.51	10.288
1447.84	21.4604
1449.16	23.9945
1450.49	10.9402
1451.81	21.4725
1453.13	3.19794
1454.46	6.70137
1455.78	12.9877
1457.1	14.6884
1458.43	16.8574
1459.75	11.2208
1461.08	15.6463
1462.4	7.29336
1463.72	0.051212
1465.05	-7.24883
1466.37	2.54166
1467.7	-0.957784
1469.02	-8.58932
1470.34	6.60652
1471.67	6.52683
1472.99	-0.629929
1474.32	-0.345024
1475.64	7.42278
1476.96	2.36447
1478.29	2.58034
1479.61	0.65689
1480.94	-4.69248
1482.26	2.91272
1483.58	3.00842
1484.91	8.59076
1486.23	3.76483
1487.56	8.14194
1488.88	5.61176
1490.2	7.53474
1491.53	8.63536
1492.85	4.66789
1494.17	2.32747
1495.5	1.63581
1496.82	9.97639
1498.15	14.9893
1499.47	11.0687
1500.79	15.4898
1502.12	6.42975
1503.44	17.4414
1504.77	24.8575
1506.09	21.6197
1507.41	30.6394
1508.74	18.2693
1510.06	28.1109
1511.39	33.8046
1512.71	33.3874
1514.03	35.8065
1515.36	33.547
1516.68	40.2396
1518.01	40.9791
1519.33	41.5253
1520.65	47.866
1521.98	61.7992
1523.3	59.9033
1524.62	75.3687
1525.95	55.5159
1527.27	79.05
1528.6	85.9454
1529.92	74.2514
1531.24	80.2573
1532.57	92.1245
1533.89	96.6639
1535.22	100.918
1536.54	99.1932
1537.86	99.4807
1539.19	102.959
1540.51	117.444
1541.84	130.13
1543.16	136.134
1544.48	140.618
1545.81	139.627
1547.13	149.774
1548.46	171.505
1549.78	151.334
1551.1	180.725
1552.43	181.017
1553.75	185.629
1555.08	191.472
1556.4	207.741
1557.72	206.544
1559.05	220.043
1560.37	242.768
1561.69	252.74
1563.02	274.59
1564.34	275.469
1565.67	280.696
1566.99	301.031
1568.31	308.18
1569.64	313.268
1570.96	338.762
1572.29	335.235
1573.61	342.19
1574.93	350.469
1576.26	386.529
1577.58	385.491
1578.91	396.314
1580.23	425.42
1581.55	435.883
1582.88	436.976
1584.2	449.357
1585.53	468.943
1586.85	481.572
1588.17	488.597
1589.5	496.113
1590.82	499.068
1592.14	504.06
1593.47	502.443
1594.79	512.32
1596.12	508.224
1597.44	506.004
1598.76	518.122
1600.09	524.938
1601.41	516.525
1602.74	494.065
1604.06	504.471
1605.38	513.048
1606.71	511.645
1608.03	506.327
1609.36	476.713
1610.68	471.691
1612	503.648
1613.33	462.423
1614.65	430.146
1615.98	444.899
1617.3	410.373
1618.62	406.128
1619.95	388.011
1621.27	370.495
1622.59	349.358
1623.92	336.91
1625.24	317.158
1626.57	305.026
1627.89	281.58
1629.21	272.015
1630.54	258.878
1631.86	252.109
1633.19	231.254
1634.51	202.059
1635.83	193.55
1637.16	182.443
1638.48	186.492
1639.81	169.717
1641.13	163.02
1642.45	155.64
1643.78	150.02
1645.1	135.083
1646.43	125.145
1647.75	108.602
1649.07	107.469
1650.4	102.655
1651.72	103.445
1653.05	91.368
1654.37	79.5719
1655.69	64.6174
1657.02	71.5689
1658.34	66.3155
1659.66	60.4417
1660.99	47.2472
1662.31	40.6359
1663.64	44.3412
1664.96	41.2241
1666.28	37.6008
1667.61	38.0607
1668.93	30.5561
1670.26	18.827
1671.58	30.0587
1672.9	26.3092
1674.23	10.8079
1675.55	7.64105
1676.88	19.4311
1678.2	9.83202
1679.52	4.98217
1680.85	7.28408
1682.17	9.71298
1683.5	3.88573
1684.82	9.77445
1686.14	10.7978
1687.47	-0.00430117
1688.79	-3.78173
1690.11	0.567244
1691.44	2.60122
1692.76	-10.9886
1694.09	-9.3436
1695.41	-8.21497
1696.73	2.33357
1698.06	-3.78178
1699.38	-5.70727
1700.71	-10.8325
1702.03	-16.2131
1703.35	-3.54247
1704.68	0.885057
1706	-1.43995
1707.33	-5.14899
1708.65	-9.4913
1709.97	-2.91982
1711.3	-0.48282
1712.62	-3.01463
1713.95	-0.62647
1715.27	4.27407
1716.59	2.04864
1717.92	2.65295
1719.24	-3.92566
1720.56	-1.56801
1721.89	-3.62462
1723.21	-4.02986
1724.54	-2.6423
1725.86	-3.24031
1727.18	-0.314498
1728.51	9.32245
1729.83	11.8328
1731.16	3.45052
1732.48	2.66009
1733.8	7.29093
1735.13	1.92279
1736.45	2.07714
1737.78	0.600111
1739.1	0.396642
1740.42	1.18551
1741.75	0.0783034
1743.07	0.676905
1744.4	-1.71408
1745.72	-7.43796
1747.04	-4.6576
1748.37	-2.37988
1749.69	4.39137
1751.02	4.08665
1752.34	-0.0846302
1753.66	0.649385
1754.99	-3.32906
1756.31	-6.90276
1757.63	-2.14732
1758.96	3.12489
1760.28	-4.11977
1761.61	-9.25848
1762.93	-10.6742
1764.25	4.29046
1765.58	5.05046
1766.9	0.514526
1768.23	-0.375665
1769.55	-0.522547
1770.87	2.34698
1772.2	1.69139
1773.52	-2.55136
1774.85	-4.45582
1776.17	-3.61776
1777.49	5.0669
1778.82	3.94353
1780.14	6.66241
1781.47	3.14184
1782.79	4.54652
1784.11	-0.275404
1785.44	-1.47425
1786.76	4.077
1788.08	4.70811
1789.41	-2.44522
1790.73	-0.621127
1792.06	5.18605
1793.38	2.49141
1794.7	3.50022
1796.03	7.61679
1797.35	5.94583
1798.68	4.22011
1800	2.84163