File: Example Data/Raman/CNT - TIM/Raytheon/Cu foil/09-29-10/60 W_1.txt
300	58.2382
301.307	62.0003
302.613	57.5783
303.92	58.4568
305.227	65.0591
306.533	66.3601
307.84	64.9529
309.147	71.8714
310.453	74.8673
311.76	68.6194
313.067	65.8735
314.374	72.5014
315.68	69.8244
316.987	63.8747
318.294	68.2548
319.6	68.2413
320.907	60.4445
322.214	65.2253
323.52	72.3284
324.827	63.384
326.134	58.9958
327.44	57.8416
328.747	66.7357
330.054	74.2753
331.361	62.231
332.667	63.667
333.974	56.3764
335.281	72.0525
336.587	67.3453
337.894	67.3373
339.201	62.8881
340.507	64.156
341.814	62.3541
343.121	53.5514
344.427	63.4864
345.734	57.4123
347.041	72.5224
348.347	59.5711
349.654	58.7294
350.961	59.4911
352.267	56.43
353.574	58.3682
354.881	66.5433
356.188	68.1131
357.494	59.4546
358.801	63.7426
360.108	58.676
361.414	57.7235
362.721	64.1743
364.028	68.3288
365.334	67.0458
366.641	63.8254
367.948	61.2923
369.254	59.8585
370.561	61.4371
371.868	53.1096
373.174	53.6555
374.481	48.7257
375.788	53.501
377.095	51.7124
378.401	51.2523
379.708	55.7865
381.015	58.5751
382.321	58.1758
383.628	62.243
384.935	62.4928
386.241	57.1796
387.548	57.363
388.855	57.7778
390.161	56.7131
391.468	55.2649
392.775	56.523
394.081	58.3519
395.388	54.6315
396.695	48.8564
398.002	55.2213
399.308	45.1753
400.615	57.3468
401.922	50.5168
403.228	47.9531
404.535	50.2566
405.842	56.8242
407.148	56.6436
408.455	43.734
409.762	43.7408
411.068	52.8495
412.375	54.7515
413.682	43.2752
414.988	54.9612
416.295	55.4268
417.602	54.5843
418.909	53.7568
420.215	51.2979
421.522	50.011
422.829	49.4253
424.135	46.3289
425.442	43.0664
426.749	45.4273
428.055	39.2115
429.362	39.6502
430.669	44.8406
431.975	47.8053
433.282	46.8131
434.589	45.0591
435.895	44.2597
437.202	43.5971
438.509	48.3248
439.816	45.7018
441.122	41.5379
442.429	41.8545
443.736	39.3861
445.042	37.3592
446.349	42.2162
447.656	43.0646
448.962	37.7076
450.269	37.808
451.576	34.2823
452.882	39.2788
454.189	42.5553
455.496	36.5016
456.802	41.0776
458.109	45.9992
459.416	40.1479
460.723	39.4714
462.029	45.5428
463.336	43.6014
464.643	33.7644
465.949	34.4492
467.256	45.8713
468.563	23.6515
469.869	33.5817
471.176	39.9263
472.483	36.803
473.789	31.8868
475.096	29.7591
476.403	39.0408
477.709	47.9775
479.016	37.3648
480.323	28.5042
481.63	35.1051
482.936	30.1858
484.243	27.5124
485.55	32.1674
486.856	27.2636
488.163	31.8361
489.47	28.1744
490.776	26.1015
492.083	28.2498
493.39	27.3807
494.696	32.9903
496.003	19.6115
497.31	31.1685
498.616	22.1409
499.923	24.8505
501.23	25.8796
502.536	19.4344
503.843	21.0748
505.15	22.8848
506.457	25.5912
507.763	25.5245
509.07	16.3751
510.377	19.2031
511.683	14.9105
512.99	18.9012
514.297	23.1205
515.603	19.2132
516.91	21.4365
518.217	17.7158
519.523	14.226
520.83	16.7216
522.137	17.2916
523.443	12.6922
524.75	11.1021
526.057	9.60784
527.364	5.69215
528.67	19.317
529.977	12.7902
531.284	19.5885
532.59	11.7427
533.897	18.2872
535.204	17.7958
536.51	9.76279
537.817	5.85776
539.124	5.36039
540.43	4.53541
541.737	8.30975
543.044	10.9956
544.351	4.69298
545.657	-0.265942
546.964	14.4862
548.271	-0.967358
549.577	8.04143
550.884	5.20551
552.191	-2.63291
553.497	-5.5302
554.804	-2.1347
556.111	2.77785
557.417	-0.401741
558.724	10.3373
560.031	8.29379
561.337	5.16958
562.644	3.39826
563.951	-3.89707
565.258	2.65975
566.564	4.33938
567.871	6.21319
569.178	8.08619
570.484	10.2552
571.791	8.91825
573.098	1.41542
574.404	4.32395
575.711	17.2083
577.018	3.19522
578.324	5.83576
579.631	6.68879
580.938	11.56
582.244	1.82113
583.551	6.02957
584.858	6.21516
586.164	5.69946
587.471	7.77112
588.778	8.45053
590.085	10.3303
591.391	10.224
592.698	4.45116
594.005	2.99944
595.311	12.5827
596.618	8.06823
597.925	3.52139
599.231	3.55799
600.538	-1.24351
601.845	-0.283126
603.151	6.70241
604.458	9.56303
605.765	9.71915
607.071	13.5218
608.378	12.7735
609.685	4.19146
610.992	12.1604
612.298	24.8375
613.605	-1.4749
614.912	3.65326
616.218	6.24485
617.525	1.21625
618.832	5.63982
620.138	8.04969
621.445	8.58037
622.752	9.86726
624.058	8.07777
625.365	3.98676
626.672	6.16085
627.978	16.1613
629.285	9.13444
630.592	8.89305
631.899	4.11372
633.205	16.0861
634.512	11.3278
635.819	14.19
637.125	13.0903
638.432	11.2781
639.739	12.3153
641.045	16.7169
642.352	18.6662
643.659	16.6117
644.965	18.9213
646.272	21.0161
647.579	18.4936
648.885	29.4845
650.192	7.22204
651.499	8.97103
652.806	14.1321
654.112	22.1253
655.419	25.6477
656.726	21.8287
658.032	16.4112
659.339	14.5427
660.646	10.9169
661.952	6.55864
663.259	6.59908
664.566	5.78273
665.872	9.66477
667.179	8.13056
668.486	9.80847
669.792	5.47654
671.099	13.2274
672.406	0.117905
673.713	9.97781
675.019	10.4958
676.326	7.60307
677.633	4.11179
678.939	2.35232
680.246	3.36967
681.553	2.9925
682.859	2.46788
684.166	6.13922
685.473	5.22583
686.779	2.22165
688.086	0.373766
689.393	17.1724
690.699	15.405
692.006	9.22263
693.313	18.5378
694.62	10.0784
695.926	-0.914436
697.233	-2.75948
698.54	-1.96693
699.846	5.62767
701.153	10.4695
702.46	4.56517
703.766	0.0252212
705.073	1.0091
706.38	3.97625
707.686	-0.525493
708.993	10.6949
710.3	6.74967
711.606	-1.36637
712.913	-1.66553
714.22	-3.4349
715.526	5.75612
716.833	5.98085
718.14	9.90016
719.447	9.797
720.753	6.36864
722.06	3.05987
723.367	-1.4551
724.673	-1.77751
725.98	2.67881
727.287	0.794263
728.593	3.63582
729.9	11.0332
731.207	4.62312
732.513	9.4251
733.82	10.2377
735.127	5.94402
736.434	23.3515
737.74	12.0246
739.047	8.77772
740.354	10.6271
741.66	3.4566
742.967	8.46765
744.274	15.4246
745.58	8.88547
746.887	5.87099
748.194	13.9146
749.5	16.5569
750.807	8.39727
752.114	7.68657
753.42	13.5735
754.727	6.11425
756.034	9.28977
757.341	3.6445
758.647	3.96095
759.954	4.16214
761.261	10.3897
762.567	9.17995
763.874	10.9326
765.181	9.13238
766.487	10.785
767.794	8.98922
769.101	10.4097
770.407	14.8028
771.714	9.46072
773.021	11.5151
774.327	12.0018
775.634	12.5637
776.941	19.2694
778.247	11.9147
779.554	11.9804
780.861	9.71772
782.168	14.5333
783.474	7.78056
784.781	-0.37554
786.088	2.2292
787.394	-1.45404
788.701	5.37926
790.008	6.05806
791.314	5.013
792.621	5.72341
793.928	6.11269
795.234	2.70058
796.541	1.54647
797.848	12.6364
799.154	14.0792
800.461	11.3278
801.768	2.18937
803.075	9.30659
804.381	5.8521
805.688	6.43697
806.995	7.25867
808.301	8.98671
809.608	1.74654
810.915	0.415764
812.221	6.95164
813.528	4.80523
814.835	6.85274
816.141	5.24971
817.448	5.72981
818.755	10.9077
820.061	15.899
821.368	10.1023
822.675	2.78269
823.982	7.20256
825.288	6.25435
826.595	8.77645
827.902	6.74833
829.208	12.594
830.515	10.7701
831.822	8.78929
833.128	7.71518
834.435	7.34709
835.742	4.44614
837.048	15.4756
838.355	13.0036
839.662	4.99238
840.969	5.16692
842.275	10.6933
843.582	7.45726
844.889	11.2519
846.195	9.49534
847.502	4.40512
848.809	7.37845
850.115	9.62845
851.422	9.31859
852.729	13.4313
854.035	18.6885
855.342	22.656
856.649	19.3913
857.955	15.7316
859.262	1.71959
860.569	17.6528
861.875	12.0791
863.182	20.3798
864.489	7.79091
865.796	16.2635
867.102	9.78046
868.409	8.09525
869.716	7.64796
871.022	8.80206
872.329	8.9098
873.636	16.8742
874.942	12.4237
876.249	4.25492
877.556	12.7307
878.862	11.1437
880.169	2.85995
881.476	7.65978
882.782	9.1505
884.089	4.23312
885.396	6.74647
886.703	13.3464
888.009	11.8345
889.316	4.6307
890.623	8.06128
891.929	19.6632
893.236	5.74669
894.543	17.2628
895.849	1.26779
897.156	-8.13138
898.463	10.7693
899.769	0.133681
901.076	12.8146
902.383	-0.708756
903.689	1.71559
904.996	6.74731
906.303	6.07388
907.61	-2.18306
908.916	2.99998
910.223	1.30718
911.53	-4.96184
912.836	1.92584
914.143	3.36727
915.45	0.559164
916.756	5.44555
918.063	10.352
919.37	10.6422
920.676	7.32808
921.983	9.89879
923.29	5.23192
924.596	4.99475
925.903	-3.9649
927.21	-2.09853
928.517	1.97472
929.823	0.0921186
931.13	0.461637
932.437	-3.37325
933.743	7.25862
935.05	16.2017
936.357	4.78785
937.663	-4.82915
938.97	2.28756
940.277	10.816
941.583	-7.77399
942.89	-2.45451
944.197	-4.5709
945.503	-0.769721
946.81	-3.85081
948.117	4.76708
949.424	6.49105
950.73	-0.947596
952.037	2.39752
953.344	1.30527
954.65	-0.718656
955.957	3.84433
957.264	1.15557
958.57	-2.578125
959.877	4.04584
961.184	9.65451
962.49	6.72896
963.797	8.98852
965.104	1.67779
966.41	-2.545
967.717	3.51594
969.024	5.69074
970.331	12.8885
971.637	13.5962
972.944	15.3993
974.251	0.586418
975.557	10.0545
976.864	-1.51791
978.171	7.56889
979.477	-2.20163
980.784	-6.58066
982.091	-0.0425311
983.397	5.25392
984.704	-7.20652
986.011	-9.1973
987.317	-10.3758
988.624	-8.9245
989.931	2.31605
991.237	5.97728
992.544	5.1534
993.851	1.20759
995.158	-4.41535
996.464	-3.66951
997.771	-2.16548
999.078	-3.72818
1000.38	-8.12872
1001.69	-3.33603
1003	1.91625
1004.3	-1.99812
1005.61	-5.29385
1006.92	-7.82196
1008.22	-2.84606
1009.53	9.11481
1010.84	10.7273
1012.14	4.11029
1013.45	-3.11746
1014.76	1.04169
1016.06	-2.10822
1017.37	-0.655116
1018.68	-6.84371
1019.98	-2.9934
1021.29	0.856651
1022.6	-0.0380484
1023.9	4.2814
1025.21	2.86472
1026.52	-6.29262
1027.82	-5.29852
1029.13	7.66015
1030.44	-5.79689
1031.74	2.9679
1033.05	17.2376
1034.36	0.0861503
1035.66	2.87957
1036.97	8.20517
1038.28	4.93198
1039.58	4.91334
1040.89	3.35355
1042.2	9.10847
1043.51	10.1279
1044.81	5.30284
1046.12	4.19266
1047.43	-2.11827
1048.73	3.10157
1050.04	-2.46416
1051.35	-0.84724
1052.65	-0.556626
1053.96	8.50124
1055.27	6.10705
1056.57	-0.880155
1057.88	5.50179
1059.19	-7.75686
1060.49	-4.61715
1061.8	-4.67013
1063.11	1.42099
1064.41	1.40749
1065.72	1.71934
1067.03	-5.93926
1068.33	-2.24681
1069.64	-1.80404
1070.95	-11.6294
1072.25	-7.5543
1073.56	-4.06441
1074.87	-2.28567
1076.17	6.13056
1077.48	7.47389
1078.79	1.31777
1080.09	1.42111
1081.4	2.33078
1082.71	-2.03939
1084.01	-7.78864
1085.32	-3.42546
1086.63	8.8906
1087.93	1.13812
1089.24	-13.8206
1090.55	-21.3991
1091.85	-8.73713
1093.16	2.42467
1094.47	8.41333
1095.77	3.50791
1097.08	-9.12827
1098.39	-16.6344
1099.69	-5.81165
1101	0.18479
1102.31	-9.55724
1103.61	-14.78
1104.92	-14.8189
1106.23	-16.7943
1107.53	-1.35438
1108.84	2.27837
1110.15	-5.39877
1111.45	-4.7418
1112.76	-4.94269
1114.07	-7.93851
1115.37	8.85889
1116.68	4.65266
1117.99	7.11738
1119.29	8.53224
1120.6	-3.92912
1121.91	14.3994
1123.21	17.3504
1124.52	-12.8584
1125.83	6.45535
1127.13	-5.85181
1128.44	-7.66276
1129.75	-3.25809
1131.05	-11.6575
1132.36	-4.74615
1133.67	-4.70418
1134.97	-7.40963
1136.28	-19.2454
1137.59	-8.05488
1138.89	1.34704
1140.2	-6.31113
1141.51	-5.4804
1142.81	-8.67486
1144.12	-5.68008
1145.43	0.0160632
1146.73	-11.2031
1148.04	10.7785
1149.35	-10.0364
1150.65	-8.02009
1151.96	-15.0367
1153.27	-0.784397
1154.57	9.88513
1155.88	-10.142
1157.19	-1.17193
1158.49	-3.4511
1159.8	-13.6982
1161.11	-10.0593
1162.41	-5.88572
1163.72	3.07521
1165.03	-16.3689
1166.33	-22.3038
1167.64	-18.1556
1168.95	-6.76657
1170.25	-6.02035
1171.56	-5.40118
1172.87	-1.37246
1174.17	-14.4139
1175.48	-18.2323
1176.79	-2.33534
1178.09	-5.6771
1179.4	-14.0045
1180.71	-8.24469
1182.01	-14.7223
1183.32	-11.1142
1184.63	4.78894
1185.93	-2.25738
1187.24	3.82893
1188.55	-18.6181
1189.85	-1.87452
1191.16	-9.4821
1192.47	-0.545359
1193.77	-8.76478
1195.08	-12.0119
1196.39	-1.026
1197.69	1.55457
1199	-9.12371
1200.31	-7.83303
1201.61	-6.27275
1202.92	6.11323
1204.23	-17.4175
1205.53	-3.47639
1206.84	4.85641
1208.15	-10.2223
1209.45	4.73753
1210.76	4.39982
1212.07	-2.45404
1213.37	-3.80072
1214.68	12.1704
1215.99	15.24
1217.29	11.2767
1218.6	15.8418
1219.91	10.3798
1221.21	22.9224
1222.52	11.4851
1223.83	24.1626
1225.13	26.1061
1226.44	36.0714
1227.75	25.9693
1229.05	21.4985
1230.36	26.5659
1231.67	40.9684
1232.97	22.9477
1234.28	36.1143
1235.59	50.222
1236.89	44.3915
1238.2	50.167
1239.51	46.3634
1240.81	58.1904
1242.12	57.3343
1243.43	66.0469
1244.73	88.4666
1246.04	81.9308
1247.35	75.0118
1248.65	86.96
1249.96	88.9818
1251.27	81.3858
1252.57	89.752
1253.88	86.8338
1255.19	94.5923
1256.49	94.8767
1257.8	97.2427
1259.11	106.921
1260.42	118.752
1261.72	109.879
1263.03	114.228
1264.34	129.647
1265.64	132.686
1266.95	133.862
1268.26	126.66
1269.56	139.531
1270.87	159.704
1272.18	158.605
1273.48	159.177
1274.79	173.903
1276.1	175.914
1277.4	189.176
1278.71	198.697
1280.02	197.73
1281.32	208.967
1282.63	220.861
1283.94	225.119
1285.24	228.437
1286.55	237.997
1287.86	254.356
1289.16	269.281
1290.47	281.121
1291.78	280.726
1293.08	299.105
1294.39	303.773
1295.7	323.298
1297	336.24
1298.31	340.665
1299.62	345.219
1300.92	354.662
1302.23	376.125
1303.54	404.896
1304.84	417.403
1306.15	426.448
1307.46	451.979
1308.76	463.22
1310.07	485.039
1311.38	506.993
1312.68	516.627
1313.99	556.602
1315.3	555.745
1316.6	593.418
1317.91	624.754
1319.22	655.145
1320.52	652.881
1321.83	685.063
1323.14	721.136
1324.44	745.334
1325.75	766.862
1327.06	783.195
1328.36	824.656
1329.67	882.552
1330.98	903.458
1332.28	931.61
1333.59	980.878
1334.9	997.154
1336.2	1041.18
1337.51	1086.65
1338.82	1121.74
1340.12	1159.05
1341.43	1184.51
1342.74	1208.09
1344.04	1255.21
1345.35	1272.13
1346.66	1296.34
1347.96	1319.87
1349.27	1335.44
1350.58	1363.72
1351.88	1380.35
1353.19	1383.54
1354.5	1377.87
1355.8	1375.34
1357.11	1375.04
1358.42	1354.02
1359.72	1319.62
1361.03	1316.99
1362.34	1287.62
1363.64	1252.05
1364.95	1229.96
1366.26	1205.36
1367.56	1143.34
1368.87	1141.69
1370.18	1114.31
1371.48	1059.9
1372.79	1009.74
1374.1	998.247
1375.4	955.989
1376.71	915.887
1378.02	877.877
1379.32	828.169
1380.63	794.345
1381.94	765.334
1383.24	742.236
1384.55	703.973
1385.86	682.104
1387.16	656.909
1388.47	613.088
1389.78	595.675
1391.08	563.691
1392.39	533.11
1393.7	506.232
1395	489.271
1396.31	479.405
1397.62	448.881
1398.92	430.336
1400.23	417.27
1401.54	398.574
1402.84	368.409
1404.15	345.828
1405.46	338.775
1406.76	316.894
1408.07	299.197
1409.38	284.77
1410.68	288.532
1411.99	266.585
1413.3	246.543
1414.6	243.212
1415.91	234.813
1417.22	237.137
1418.52	215.038
1419.83	207.01
1421.14	200.007
1422.44	179.524
1423.75	156.373
1425.06	162.091
1426.36	153.359
1427.67	147.887
1428.98	138.513
1430.28	135.555
1431.59	122.439
1432.9	126.639
1434.2	99.4454
1435.51	86.9023
1436.82	87.2945
1438.12	75.2108
1439.43	69.6
1440.74	68.0915
1442.04	63.6731
1443.35	59.8929
1444.66	52.5904
1445.96	47.4636
1447.27	51.2795
1448.58	56.5353
1449.88	53.3822
1451.19	35.9902
1452.5	47.2686
1453.8	34.311
1455.11	30.399
1456.42	18.2021
1457.72	19.7196
1459.03	14.8929
1460.34	16.2166
1461.64	22.4931
1462.95	15.9153
1464.26	4.03183
1465.56	0.729153
1466.87	-9.30412
1468.18	4.69778
1469.48	-5.48167
1470.79	-14.7706
1472.1	3.347
1473.41	-3.18762
1474.71	-1.66015
1476.02	-4.84912
1477.33	-20.895
1478.63	-12.4931
1479.94	-4.38544
1481.25	-5.12097
1482.55	-10.8793
1483.86	-15.9384
1485.17	-1.8489
1486.47	-0.860325
1487.78	6.96279
1489.09	13.3506
1490.39	12.4236
1491.7	6.16907
1493.01	11.5732
1494.31	17.9502
1495.62	21.2275
1496.93	22.5353
1498.23	16.4267
1499.54	24.6206
1500.85	35.0342
1502.15	25.7368
1503.46	35.077
1504.77	59.1489
1506.07	20.7707
1507.38	42.7841
1508.69	49.562
1509.99	26.6596
1511.3	42.7139
1512.61	63.231
1513.91	66.8211
1515.22	60.1035
1516.53	61.159
1517.83	61.0232
1519.14	77.3294
1520.45	65.7522
1521.75	73.8754
1523.06	94.0689
1524.37	96.9276
1525.67	100.542
1526.98	107.913
1528.29	109.493
1529.59	111.979
1530.9	128.958
1532.21	120.846
1533.51	126.237
1534.82	128.482
1536.13	141.132
1537.43	155.23
1538.74	161.943
1540.05	153.195
1541.35	171.097
1542.66	177.861
1543.97	200.591
1545.27	206.466
1546.58	213.484
1547.89	224.907
1549.19	232.749
1550.5	246.229
1551.81	258.817
1553.11	269.83
1554.42	288.616
1555.73	304.33
1557.03	313.32
1558.34	339.649
1559.65	373.049
1560.95	387.689
1562.26	400.515
1563.57	426.096
1564.87	431.69
1566.18	437.236
1567.49	459.651
1568.79	503.757
1570.1	509.254
1571.41	555.473
1572.71	587.392
1574.02	593.626
1575.33	627.536
1576.63	653.114
1577.94	687.865
1579.25	705.071
1580.55	743.315
1581.86	776.413
1583.17	829.238
1584.47	866.517
1585.78	897.884
1587.09	913.51
1588.39	933.384
1589.7	972.222
1591.01	997.82
1592.31	1028.57
1593.62	1035.48
1594.93	1041.87
1596.23	1054.2
1597.54	1043.27
1598.85	1068.42
1600.15	1088.79
1601.46	1076.17
1602.77	1080.91
1604.07	1042.11
1605.38	1053.88
1606.69	1037.55
1607.99	1020.66
1609.3	1034.25
1610.61	1025.32
1611.91	992.264
1613.22	980.168
1614.53	982.251
1615.83	970.682
1617.14	966.969
1618.45	957.317
1619.75	934.512
1621.06	932.476
1622.37	919.462
1623.67	901.07
1624.98	880.315
1626.29	862.919
1627.59	831.989
1628.9	786.871
1630.21	754.377
1631.51	694.034
1632.82	674.869
1634.13	631.96
1635.43	576.421
1636.74	533.633
1638.05	493.798
1639.35	442.88
1640.66	406.988
1641.97	366.688
1643.27	343.666
1644.58	309.754
1645.89	276.409
1647.19	258.007
1648.5	220.475
1649.81	208.616
1651.11	217.173
1652.42	190.337
1653.73	175.875
1655.03	143.286
1656.34	148.692
1657.65	127.437
1658.95	118.145
1660.26	114.653
1661.57	99.6976
1662.87	86.6689
1664.18	80.6276
1665.49	79.9482
1666.79	77.0464
1668.1	61.5739
1669.41	66.8387
1670.71	66.5086
1672.02	45.2934
1673.33	53.7799
1674.63	45.0717
1675.94	50.5562
1677.25	32.9752
1678.55	30.6237
1679.86	24.1714
1681.17	11.6198
1682.47	7.7095
1683.78	9.18591
1685.09	8.92635
1686.4	14.6014
1687.7	12.3319
1689.01	8.04656
1690.32	6.77501
1691.62	16.2066
1692.93	3.28156
1694.24	9.99756
1695.54	10.3215
1696.85	9.94035
1698.16	9.13097
1699.46	0.0668702
1700.77	-1.80505
1702.08	2.05766
1703.38	5.72503
1704.69	-7.856
1706	-10.0441
1707.3	0.699188
1708.61	0.922102
1709.92	2.34561
1711.22	-8.49449
1712.53	-8.14825
1713.84	-8.50366
1715.14	-10.8807
1716.45	-10.5346
1717.76	-7.8217
1719.06	-13.0579
1720.37	-2.8806
1721.68	-4.24904
1722.98	-3.43961
1724.29	-4.60682
1725.6	-16.2188
1726.9	-12.2287
1728.21	-10.7715
1729.52	-21.7399
1730.82	-19.6206
1732.13	-4.04648
1733.44	-9.53223
1734.74	2.91798
1736.05	-8.74348
1737.36	-4.87616
1738.66	-4.08975
1739.97	-8.21947
1741.28	-9.75973
1742.58	-9.83406
1743.89	-19.3418
1745.2	-16.4005
1746.5	-8.71593
1747.81	-18.9455
1749.12	-1.4001
1750.42	-13.6926
1751.73	-3.64006
1753.04	-11.1336
1754.34	-12.3575
1755.65	-10.3096
1756.96	-6.16229
1758.26	-4.85674
1759.57	-7.10109
1760.88	-8.91561
1762.18	-1.98567
1763.49	-1.1041
1764.8	3.6233
1766.1	-10.7666
1767.41	-12.9688
1768.72	4.3699
1770.02	0.876704
1771.33	-2.44676
1772.64	-1.80275
1773.94	1.79296
1775.25	-0.264436
1776.56	-1.37374
1777.86	-0.601135
1779.17	1.44599
1780.48	2.62993
1781.78	5.29319
1783.09	-1.97903
1784.4	0.532132
1785.7	0.908453
1787.01	-2.59538
1788.32	-4.23834
1789.62	-7.04895
1790.93	-5.86277
1792.24	-1.50525
1793.54	5.88128
1794.85	2.62813
1796.16	-2.77529
1797.46	3.44004
1798.77	-7.42694
1800.08	-16.7798
1801.38	6.18417
1802.69	-1.53881
1804	-11.945
1805.3	-3.45853
1806.61	-2.84355
1807.92	-8.82541
1809.22	-8.05003
1810.53	-5.85707
1811.84	-3.82565
1813.14	-2.98338
1814.45	-19.2353
1815.76	-4.65317
1817.06	-13.5703
1818.37	6.17877
1819.68	5.66204
1820.98	-1.4839
1822.29	-2.72623
1823.6	-6.4266
1824.9	5.60582
1826.21	-0.321236
1827.52	0.0603636
1828.82	1.61025
1830.13	-7.21228
1831.44	-8.65479
1832.74	2.40194
1834.05	8.7626
1835.36	3.20011
1836.66	-3.3846
1837.97	-7.07955
1839.28	-0.451782
1840.58	8.78971
1841.89	8.98048
1843.2	0.969706
1844.5	8.83858
1845.81	-7.84806
1847.12	-4.46908
1848.42	-3.27503
1849.73	2.74062
1851.04	5.6916
1852.34	5.52982
1853.65	-3.08678
1854.96	-1.1448
1856.26	-0.8271
1857.57	-2.91635
1858.88	6.86397
1860.18	6.74187
1861.49	0.0315759
1862.8	2.6891
1864.1	0.40169
1865.41	12.5123
1866.72	14.3568
1868.02	-2.82133
1869.33	0.391376
1870.64	5.59812
1871.94	1.11722
1873.25	-3.35879
1874.56	8.28633
1875.86	21.8343
1877.17	11.7907
1878.48	-1.39351
1879.78	-6.75142
1881.09	-0.64547
1882.4	-1.13978
1883.7	-3.43497
1885.01	-3.07369
1886.32	-14.2168
1887.62	-11.3472
1888.93	-2.2354
1890.24	9.32355
1891.54	-1.90179
1892.85	-2.52545
1894.16	-1.13416
1895.47	-2.03583
1896.77	1.8902
1898.08	6.02836
1899.39	-8.94347
1900.69	-13.618
1902	-4.98347
1903.31	-9.19687
1904.61	-8.74823
1905.92	-3.26616
1907.23	-3.25125
1908.53	-9.11014
1909.84	-7.56599
1911.15	-5.4556
1912.45	-12.7091
1913.76	-9.69454
1915.07	-12.0868
1916.37	-5.87926
1917.68	-6.26545
1918.99	-7.69317
1920.29	-6.38273
1921.6	-14.8345
1922.91	-13.5917
1924.21	-0.633077
1925.52	-7.19008
1926.83	-14.298
1928.13	-9.03354
1929.44	-10.7679
1930.75	-3.1804
1932.05	-7.90534
1933.36	6.07883
1934.67	-4.31722
1935.97	-5.83804
1937.28	-2.89817
1938.59	-10.1746
1939.89	1.87253
1941.2	-4.84035
1942.51	-6.37881
1943.81	-5.70871
1945.12	-2.17295
1946.43	-4.1557
1947.73	-2.16465
1949.04	-3.00417
1950.35	-3.87144
1951.65	0.444547
1952.96	-2.04373
1954.27	-3.57277
1955.57	-1.61029
1956.88	-14.6939
1958.19	-7.277
1959.49	-2.54538
1960.8	-2.08294
1962.11	-2.50274
1963.41	0.262865
1964.72	3.38276
1966.03	-5.93536
1967.33	-9.44254
1968.64	-1.46998
1969.95	4.27862
1971.25	0.491397
1972.56	2.13093
1973.87	2.79204
1975.17	0.865931
1976.48	9.72255
1977.79	8.28654
1979.09	3.41675
1980.4	-4.15441
1981.71	8.04422
1983.01	5.59737
1984.32	-2.52426
1985.63	-3.56527
1986.93	0.529876
1988.24	5.73624
1989.55	2.05537
1990.85	0.573065
1992.16	2.49908
1993.47	-3.08347
1994.77	1.33546
1996.08	11.7364
1997.39	12.1111
1998.69	3.72616
2000	-0.962725