File: Example Data/Raman/CNT - TIM/Raytheon/Cu foil/09-29-10/70 W_1.txt
300	49.6609
301.307	43.1778
302.613	46.0317
303.92	51.1391
305.227	50.4265
306.533	48.4397
307.84	51.2016
309.147	51.1136
310.453	60.8596
311.76	54.5245
313.067	47.1091
314.374	54.0248
315.68	59.3243
316.987	55.0453
318.294	50.7975
319.6	52.0272
320.907	49.2661
322.214	49.8598
323.52	42.4578
324.827	46.8857
326.134	46.5606
327.44	54.3887
328.747	56.1829
330.054	47.3351
331.361	49.1041
332.667	52.9698
333.974	54.4605
335.281	46.5859
336.587	50.2889
337.894	47.9085
339.201	49.3373
340.507	46.9756
341.814	40.3779
343.121	39.3925
344.427	42.6748
345.734	39.3781
347.041	44.6808
348.347	48.7088
349.654	48.1854
350.961	41.452
352.267	40.879
353.574	43.3285
354.881	42.6662
356.188	44.0415
357.494	52.3087
358.801	50.1996
360.108	47.6551
361.414	40.9953
362.721	39.3673
364.028	42.4715
365.334	44.5253
366.641	41.0255
367.948	36.4673
369.254	38.863
370.561	43.9514
371.868	42.7317
373.174	39.955
374.481	50.5647
375.788	48.4217
377.095	44.0208
378.401	36.7705
379.708	29.4654
381.015	32.6332
382.321	41.4873
383.628	27.5303
384.935	40.9966
386.241	40.0192
387.548	38.8395
388.855	48.3609
390.161	36.0349
391.468	25.7493
392.775	31.5244
394.081	36.121
395.388	28.0115
396.695	28.4986
398.002	41.9459
399.308	40.067
400.615	30.0822
401.922	37.3826
403.228	37.1953
404.535	32.4236
405.842	27.6126
407.148	29.3833
408.455	37.5238
409.762	33.5331
411.068	30.0261
412.375	22.502
413.682	30.2906
414.988	29.4022
416.295	31.3761
417.602	30.0198
418.909	28.3958
420.215	27.9399
421.522	28.9536
422.829	32.4611
424.135	24.2339
425.442	28.6849
426.749	33.1367
428.055	32.4836
429.362	31.4562
430.669	30.3173
431.975	27.9062
433.282	26.2013
434.589	29.8559
435.895	34.8356
437.202	29.0537
438.509	29.3812
439.816	29.0787
441.122	31.1971
442.429	27.4832
443.736	34.1589
445.042	33.7564
446.349	34.126
447.656	31.3232
448.962	25.8237
450.269	28.2428
451.576	20.1078
452.882	15.8918
454.189	26.0332
455.496	23.1568
456.802	30.7387
458.109	19.8036
459.416	15.7675
460.723	17.1083
462.029	16.7222
463.336	15.883
464.643	14.0228
465.949	11.4906
467.256	18.559
468.563	19.8496
469.869	22.0126
471.176	19.7035
472.483	8.50013
473.789	11.2794
475.096	14.6012
476.403	13.4123
477.709	16.4252
479.016	21.1067
480.323	20.4347
481.63	26.0886
482.936	3.65922
484.243	10.2072
485.55	12.1322
486.856	13.6057
488.163	12.9033
489.47	14.9321
490.776	14.8086
492.083	14.3724
493.39	15.0555
494.696	5.43196
496.003	0.158705
497.31	12.5891
498.616	15.9357
499.923	9.24615
501.23	7.62243
502.536	2.3078
503.843	9.86403
505.15	15.633
506.457	12.2488
507.763	5.37489
509.07	0.412799
510.377	6.32716
511.683	8.71473
512.99	4.10159
514.297	14.3251
515.603	5.79473
516.91	9.65399
518.217	8.85972
519.523	6.42763
520.83	4.87283
522.137	2.4894
523.443	2.3726
524.75	4.53218
526.057	-1.02785
527.364	2.93865
528.67	-3.32654
529.977	5.29931
531.284	6.84644
532.59	4.86922
533.897	-1.0826
535.204	4.37137
536.51	4.1412
537.817	0.292446
539.124	0.662124
540.43	-5.80524
541.737	-10.4568
543.044	0.0172377
544.351	17.1451
545.657	-1.32938
546.964	3.56347
548.271	2.00138
549.577	-3.67303
550.884	-2.7946
552.191	-4.3021
553.497	-1.80324
554.804	3.23477
556.111	1.11754
557.417	2.56184
558.724	4.93304
560.031	0.942279
561.337	-13.1868
562.644	1.32943
563.951	0.191146
565.258	-5.48643
566.564	-2.78562
567.871	1.89118
569.178	5.85985
570.484	6.6895
571.791	-0.0582545
573.098	-7.77687
574.404	-2.88746
575.711	1.81544
577.018	-2.7361
578.324	-4.65849
579.631	6.35601
580.938	-3.58247
582.244	2.67307
583.551	3.73918
584.858	1.9185
586.164	0.176672
587.471	-2.52249
588.778	-6.46245
590.085	-4.72072
591.391	6.28936
592.698	-3.01938
594.005	-13.1473
595.311	2.0394
596.618	-8.69581
597.925	-9.85649
599.231	2.04173
600.538	-5.23073
601.845	-7.27249
603.151	-2.98599
604.458	-0.288917
605.765	2.00088
607.071	2.53816
608.378	0.0651673
609.685	2.35964
610.992	-9.45715
612.298	-12.5106
613.605	-6.09865
614.912	-4.74315
616.218	-1.84093
617.525	1.32956
618.832	3.34131
620.138	-3.69049
621.445	-7.8016
622.752	-2.53606
624.058	3.94605
625.365	4.75006
626.672	2.07646
627.978	4.05042
629.285	7.7406
630.592	-0.267422
631.899	9.42182
633.205	-0.731311
634.512	2.43596
635.819	3.0727
637.125	2.53203
638.432	5.60226
639.739	5.58521
641.045	2.8288
642.352	1.81441
643.659	4.01105
644.965	8.79071
646.272	6.74239
647.579	-2.62472
648.885	3.44297
650.192	-1.05954
651.499	12.4886
652.806	-2.78455
654.112	5.60809
655.419	10.9374
656.726	2.40478
658.032	-1.98208
659.339	1.63059
660.646	1.07915
661.952	-0.980654
663.259	6.7791
664.566	10.0912
665.872	-3.46271
667.179	12.121
668.486	2.0611
669.792	7.58879
671.099	4.22573
672.406	-2.94979
673.713	-0.548578
675.019	-1.55105
676.326	0.521847
677.633	3.62725
678.939	-1.55769
680.246	-2.82185
681.553	-3.14949
682.859	-5.23995
684.166	5.08145
685.473	-3.98889
686.779	-2.0624
688.086	-12.6778
689.393	-0.845249
690.699	6.56759
692.006	5.38754
693.313	-2.67457
694.62	0.448146
695.926	-3.24755
697.233	-7.04188
698.54	-0.98055
699.846	1.82099
701.153	-0.265819
702.46	-1.35833
703.766	-2.30615
705.073	-1.59798
706.38	-7.65857
707.686	-6.17285
708.993	-8.02828
710.3	4.31699
711.606	0.717562
712.913	-8.46649
714.22	-2.31575
715.526	-5.5672
716.833	-2.20253
718.14	4.06854
719.447	4.56043
720.753	1.52956
722.06	-2.78875
723.367	-3.2954
724.673	3.22138
725.98	7.3477
727.287	3.44998
728.593	-1.82268
729.9	-6.23394
731.207	8.07388
732.513	-0.914239
733.82	0.658197
735.127	5.12021
736.434	13.9096
737.74	6.05761
739.047	-4.66888
740.354	-8.36831
741.66	-8.8508
742.967	-5.90034
744.274	-5.66737
745.58	3.57363
746.887	10.3813
748.194	0.212868
749.5	8.23113
750.807	3.05519
752.114	-4.06848
753.42	-0.532159
754.727	7.18125
756.034	-1.39265
757.341	-1.61087
758.647	4.43368
759.954	2.77985
761.261	7.51691
762.567	8.37539
763.874	6.6991
765.181	-0.982464
766.487	-4.1345
767.794	0.86271
769.101	2.72423
770.407	0.90465
771.714	4.8052
773.021	7.00449
774.327	-0.0993624
775.634	3.33558
776.941	1.43026
778.247	12.5313
779.554	0.307558
780.861	-2.13881
782.168	4.7765
783.474	12.2568
784.781	12.0826
786.088	5.84744
787.394	1.06777
788.701	-2.14851
790.008	-0.388229
791.314	1.00233
792.621	-1.41758
793.928	-2.24256
795.234	-2.31616
796.541	0.80871
797.848	8.75393
799.154	5.97313
800.461	10.3227
801.768	3.0335
803.075	-2.45797
804.381	0.411532
805.688	4.79747
806.995	-3.36169
808.301	-3.81924
809.608	6.62332
810.915	5.64581
812.221	4.76276
813.528	8.72933
814.835	10.8004
816.141	11.4391
817.448	3.37589
818.755	1.51776
820.061	4.90413
821.368	6.63453
822.675	4.40769
823.982	0.536834
825.288	10.2288
826.595	8.40983
827.902	7.17864
829.208	16.1709
830.515	6.5109
831.822	11.7427
833.128	10.3944
834.435	2.67668
835.742	4.41039
837.048	2.10142
838.355	10.2043
839.662	5.37075
840.969	12.2466
842.275	5.44851
843.582	10.6061
844.889	13.7303
846.195	10.7866
847.502	12.5335
848.809	10.0772
850.115	7.18013
851.422	14.1503
852.729	18.7538
854.035	18.4835
855.342	19.45
856.649	18.1161
857.955	16.1961
859.262	26.9942
860.569	16.5418
861.875	8.7278
863.182	20.9705
864.489	18.2589
865.796	16.0099
867.102	7.58489
868.409	13.4
869.716	14.0137
871.022	10.9338
872.329	2.93524
873.636	8.47145
874.942	8.95306
876.249	4.2884
877.556	5.90651
878.862	10.5349
880.169	14.9036
881.476	10.4038
882.782	5.52414
884.089	12.3937
885.396	12.0638
886.703	8.4193
888.009	5.34485
889.316	10.5755
890.623	13.7422
891.929	5.21218
893.236	10.7885
894.543	8.38175
895.849	3.33089
897.156	2.29173
898.463	3.37541
899.769	-5.46722
901.076	5.27642
902.383	1.76497
903.689	0.444423
904.996	6.01325
906.303	11.1795
907.61	8.80783
908.916	3.1818
910.223	2.3982
911.53	6.66518
912.836	3.25872
914.143	3.1215
915.45	8.18413
916.756	8.74449
918.063	9.41572
919.37	8.19656
920.676	5.16065
921.983	7.50958
923.29	9.02114
924.596	2.54798
925.903	-0.302442
927.21	9.48814
928.517	8.06295
929.823	16.7018
931.13	13.7348
932.437	-4.1763
933.743	12.8954
935.05	9.67528
936.357	11.1349
937.663	7.33039
938.97	1.3982
940.277	15.6307
941.583	12.5883
942.89	8.59596
944.197	16.3512
945.503	9.93553
946.81	13.4821
948.117	13.8812
949.424	7.86288
950.73	1.4282
952.037	4.11186
953.344	6.01027
954.65	5.3328
955.957	7.00805
957.264	10.5757
958.57	11.6724
959.877	6.69634
961.184	2.72801
962.49	1.37893
963.797	10.9312
965.104	14.2193
966.41	2.12719
967.717	1.65061
969.024	2.6777
970.331	-1.19181
971.637	0.244008
972.944	0.98375
974.251	7.33388
975.557	-3.58633
976.864	-2.32005
978.171	4.43977
979.477	14.338
980.784	0.4102
982.091	4.39227
983.397	-4.20292
984.704	0.546389
986.011	-2.85677
987.317	-0.968395
988.624	-4.23213
989.931	1.60832
991.237	-0.541943
992.544	3.23942
993.851	-0.614522
995.158	-1.09664
996.464	6.76791
997.771	4.25933
999.078	-0.0741366
1000.38	4.79065
1001.69	2.07246
1003	2.43963
1004.3	9.13075
1005.61	3.25184
1006.92	1.50721
1008.22	6.93727
1009.53	3.19181
1010.84	0.172676
1012.14	1.69139
1013.45	9.28568
1014.76	8.77915
1016.06	14.4863
1017.37	16.9453
1018.68	0.172108
1019.98	-6.33206
1021.29	1.66504
1022.6	10.6567
1023.9	5.59964
1025.21	12.3502
1026.52	1.62818
1027.82	11.5664
1029.13	-0.544693
1030.44	9.88906
1031.74	2.27218
1033.05	2.35919
1034.36	11.6242
1035.66	12.1372
1036.97	6.37613
1038.28	3.02756
1039.58	12.1814
1040.89	5.34562
1042.2	5.54777
1043.51	8.02787
1044.81	13.643
1046.12	14.165
1047.43	8.18157
1048.73	8.32841
1050.04	8.12881
1051.35	6.78517
1052.65	18.0195
1053.96	12.965
1055.27	7.69978
1056.57	9.76083
1057.88	10.0346
1059.19	14.5015
1060.49	7.37373
1061.8	7.2207
1063.11	4.82185
1064.41	16.0846
1065.72	12.7034
1067.03	4.23625
1068.33	8.79335
1069.64	10.331
1070.95	12.3106
1072.25	12.225
1073.56	8.67809
1074.87	4.63579
1076.17	0.875495
1077.48	-5.12388
1078.79	-5.26043
1080.09	4.1509
1081.4	-1.34213
1082.71	-7.38383
1084.01	-0.702797
1085.32	3.28668
1086.63	1.18854
1087.93	4.8589
1089.24	1.16693
1090.55	-6.95617
1091.85	-3.5058
1093.16	5.55707
1094.47	7.17608
1095.77	8.5618
1097.08	0.853528
1098.39	-0.821031
1099.69	-13.5655
1101	3.27223
1102.31	3.38263
1103.61	-6.39048
1104.92	2.16142
1106.23	0.884215
1107.53	-10.2449
1108.84	-3.70749
1110.15	-0.291397
1111.45	11.5833
1112.76	-1.57649
1114.07	1.98879
1115.37	10.7034
1116.68	7.99891
1117.99	-0.599327
1119.29	5.18215
1120.6	9.17347
1121.91	-5.4258
1123.21	-8.5282
1124.52	-0.372027
1125.83	-8.9841
1127.13	-5.95862
1128.44	1.99887
1129.75	3.89325
1131.05	-10.7285
1132.36	-3.52519
1133.67	0.904465
1134.97	15.6355
1136.28	-0.0537079
1137.59	-4.57008
1138.89	3.38276
1140.2	-4.66716
1141.51	-1.92619
1142.81	-6.03634
1144.12	-8.88679
1145.43	-6.05727
1146.73	3.2916
1148.04	-21.1852
1149.35	11.3531
1150.65	0.702694
1151.96	13.5969
1153.27	-4.60187
1154.57	1.66163
1155.88	-6.3099
1157.19	0.0843665
1158.49	1.1557
1159.8	-0.457043
1161.11	11.1223
1162.41	10.7486
1163.72	0.723424
1165.03	9.73617
1166.33	-2.03683
1167.64	-5.82185
1168.95	2.50785
1170.25	-11.8376
1171.56	2.67063
1172.87	2.44091
1174.17	-11.4202
1175.48	-5.85489
1176.79	10.0753
1178.09	6.99933
1179.4	7.12651
1180.71	9.35947
1182.01	8.0956
1183.32	-13.1614
1184.63	0.412646
1185.93	3.97821
1187.24	3.23986
1188.55	6.70273
1189.85	6.5454
1191.16	11.4809
1192.47	14.3148
1193.77	8.91276
1195.08	13.8495
1196.39	9.95003
1197.69	-4.78862
1199	-6.56689
1200.31	5.58502
1201.61	18.3594
1202.92	12.7193
1204.23	0.373268
1205.53	11.1996
1206.84	5.06127
1208.15	18.8476
1209.45	2.42649
1210.76	10.1711
1212.07	11.7633
1213.37	19.5787
1214.68	21.2787
1215.99	14.7734
1217.29	34.2458
1218.6	15.8378
1219.91	27.0915
1221.21	22.9421
1222.52	30.1359
1223.83	37.3189
1225.13	49.8745
1226.44	22.2759
1227.75	40.4358
1229.05	46.5923
1230.36	39.125
1231.67	47.601
1232.97	36.8912
1234.28	42.7168
1235.59	51.1522
1236.89	42.2111
1238.2	57.0278
1239.51	43.4557
1240.81	63.5172
1242.12	77.6885
1243.43	63.9105
1244.73	72.4699
1246.04	72.1
1247.35	70.2117
1248.65	82.2954
1249.96	92.0586
1251.27	80.2503
1252.57	84.472
1253.88	101.52
1255.19	101.368
1256.49	110.738
1257.8	103.465
1259.11	106.753
1260.42	105.93
1261.72	112.881
1263.03	110.618
1264.34	118.62
1265.64	132.812
1266.95	138.163
1268.26	146.6
1269.56	150.227
1270.87	144.93
1272.18	156.168
1273.48	162.053
1274.79	163.501
1276.1	165.393
1277.4	168.028
1278.71	177.086
1280.02	188.681
1281.32	197.715
1282.63	203.824
1283.94	207.382
1285.24	215.537
1286.55	221.845
1287.86	230.941
1289.16	241.839
1290.47	244.769
1291.78	260.704
1293.08	273.147
1294.39	261.503
1295.7	287.7
1297	295.852
1298.31	308.321
1299.62	332.497
1300.92	339.16
1302.23	338.814
1303.54	335.78
1304.84	358.907
1306.15	384.17
1307.46	395.289
1308.76	407.343
1310.07	418.564
1311.38	433.945
1312.68	449.312
1313.99	466.135
1315.3	491.702
1316.6	499.948
1317.91	533.234
1319.22	535.977
1320.52	558.303
1321.83	579.486
1323.14	612.18
1324.44	622.689
1325.75	646.375
1327.06	669.829
1328.36	677.186
1329.67	706.587
1330.98	727.385
1332.28	754.994
1333.59	777.759
1334.9	790.123
1336.2	814.56
1337.51	851.376
1338.82	870.818
1340.12	862.773
1341.43	896.418
1342.74	919.434
1344.04	932.724
1345.35	939.676
1346.66	951.375
1347.96	954.53
1349.27	958.994
1350.58	966.438
1351.88	993.852
1353.19	977.621
1354.5	969.014
1355.8	976.788
1357.11	958.753
1358.42	954.159
1359.72	953.454
1361.03	905.13
1362.34	903.696
1363.64	887.856
1364.95	850.825
1366.26	839.278
1367.56	803.941
1368.87	796.093
1370.18	761.534
1371.48	752.475
1372.79	702.378
1374.1	684.826
1375.4	659.651
1376.71	652.742
1378.02	645.477
1379.32	628.454
1380.63	576.471
1381.94	554.757
1383.24	547.114
1384.55	522.445
1385.86	514.412
1387.16	495.144
1388.47	463.098
1389.78	450.967
1391.08	436.445
1392.39	418.244
1393.7	394.194
1395	382.472
1396.31	373.904
1397.62	358.777
1398.92	337.145
1400.23	328.685
1401.54	321.539
1402.84	292.927
1404.15	283.348
1405.46	274.555
1406.76	273.529
1408.07	249.157
1409.38	235.189
1410.68	241.673
1411.99	238.568
1413.3	208.276
1414.6	206.563
1415.91	187.639
1417.22	178.132
1418.52	180.797
1419.83	164.269
1421.14	156.091
1422.44	147.129
1423.75	139.603
1425.06	126.782
1426.36	134.67
1427.67	125.195
1428.98	113.691
1430.28	114.136
1431.59	102.385
1432.9	105.288
1434.2	97.263
1435.51	93.2869
1436.82	84.71
1438.12	65.5738
1439.43	73.4635
1440.74	67.2041
1442.04	64.1921
1443.35	58.8798
1444.66	56.0701
1445.96	56.542
1447.27	60.7197
1448.58	55.8445
1449.88	47.671
1451.19	44.6555
1452.5	40.4912
1453.8	26.9817
1455.11	29.6446
1456.42	30.9212
1457.72	27.1501
1459.03	24.8364
1460.34	18.6633
1461.64	24.8497
1462.95	18.9878
1464.26	13.4457
1465.56	8.46434
1466.87	9.57365
1468.18	10.2448
1469.48	5.19543
1470.79	2.21709
1472.1	-0.554739
1473.41	6.23163
1474.71	-5.66422
1476.02	0.404986
1477.33	5.17147
1478.63	10.6545
1479.94	1.44912
1481.25	-0.722315
1482.55	-0.906032
1483.86	-6.58529
1485.17	6.95092
1486.47	4.25438
1487.78	4.62299
1489.09	7.53913
1490.39	10.6011
1491.7	4.33663
1493.01	-1.04024
1494.31	4.75496
1495.62	-10.6564
1496.93	-1.84283
1498.23	11.5757
1499.54	17.4318
1500.85	10.7304
1502.15	7.3155
1503.46	18.8707
1504.77	26.0017
1506.07	23.7668
1507.38	18.2424
1508.69	29.8661
1509.99	41.0625
1511.3	34.7772
1512.61	52.1119
1513.91	45.8958
1515.22	38.6388
1516.53	46.1477
1517.83	55.6379
1519.14	47.1603
1520.45	59.4954
1521.75	78.1852
1523.06	81.3253
1524.37	91.1969
1525.67	82.9032
1526.98	87.6967
1528.29	90.2114
1529.59	88.2298
1530.9	99.5151
1532.21	106.055
1533.51	99.0879
1534.82	112.333
1536.13	120.016
1537.43	129.862
1538.74	141.955
1540.05	154.208
1541.35	150.991
1542.66	162.317
1543.97	152.609
1545.27	185.325
1546.58	191.019
1547.89	196.718
1549.19	208.559
1550.5	227.346
1551.81	226.253
1553.11	229.503
1554.42	243.08
1555.73	253.235
1557.03	271.659
1558.34	290.533
1559.65	305.522
1560.95	322.141
1562.26	336.856
1563.57	353.785
1564.87	370.969
1566.18	386.777
1567.49	394.136
1568.79	439.965
1570.1	426.807
1571.41	450.7
1572.71	481.452
1574.02	497.516
1575.33	534.608
1576.63	572.772
1577.94	584.925
1579.25	626.278
1580.55	630.406
1581.86	641.128
1583.17	663.479
1584.47	686.504
1585.78	720.665
1587.09	730.393
1588.39	737.958
1589.7	760.145
1591.01	763.677
1592.31	778.401
1593.62	794.411
1594.93	815.7
1596.23	785.09
1597.54	807.607
1598.85	790.012
1600.15	797.976
1601.46	796.345
1602.77	798.116
1604.07	801.357
1605.38	789.072
1606.69	786.194
1607.99	780.423
1609.3	780.552
1610.61	766.701
1611.91	756.714
1613.22	755.301
1614.53	730.609
1615.83	739.505
1617.14	717.788
1618.45	706.984
1619.75	692.717
1621.06	657.832
1622.37	638.102
1623.67	649.31
1624.98	598.198
1626.29	555.717
1627.59	558.253
1628.9	536.202
1630.21	490.319
1631.51	447.398
1632.82	422.41
1634.13	399.198
1635.43	368.415
1636.74	351.253
1638.05	322.502
1639.35	290.872
1640.66	271.613
1641.97	240.341
1643.27	223.409
1644.58	211.26
1645.89	177.98
1647.19	168.808
1648.5	162.292
1649.81	160.692
1651.11	115.81
1652.42	118.611
1653.73	113.653
1655.03	98.8851
1656.34	101.274
1657.65	97.3815
1658.95	80.1679
1660.26	71.2898
1661.57	74.6292
1662.87	52.4348
1664.18	53.8432
1665.49	40.601
1666.79	33.9027
1668.1	34.5369
1669.41	28.8679
1670.71	33.4858
1672.02	11.6618
1673.33	12.3819
1674.63	22.9832
1675.94	17.2708
1677.25	7.10094
1678.55	14.2134
1679.86	8.475
1681.17	3.20784
1682.47	-0.507147
1683.78	-2.69495
1685.09	19.2622
1686.4	-0.603251
1687.7	-13.6589
1689.01	-12.9271
1690.32	-17.7545
1691.62	-4.65679
1692.93	-10.0614
1694.24	-5.33307
1695.54	-18.0722
1696.85	-7.14756
1698.16	-3.52497
1699.46	5.08269
1700.77	5.36188
1702.08	5.34787
1703.38	8.81953
1704.69	9.43565
1706	22.3126
1707.3	14.112
1708.61	4.30093
1709.92	5.44868
1711.22	-4.14353
1712.53	-2.49251
1713.84	2.9261
1715.14	4.93724
1716.45	3.166
1717.76	2.42881
1719.06	-0.697401
1720.37	-3.2476
1721.68	6.79229
1722.98	7.14496
1724.29	2.41021
1725.6	4.54452
1726.9	6.55712
1728.21	-9.78005
1729.52	-6.00379
1730.82	1.63081
1732.13	-3.1639
1733.44	5.7891
1734.74	-0.148531
1736.05	-0.32088
1737.36	1.12199
1738.66	2.63161
1739.97	1.04261
1741.28	-4.20006
1742.58	-1.06134
1743.89	-1.12704
1745.2	10.3432
1746.5	3.73641
1747.81	9.1738
1749.12	7.31716
1750.42	2.54116
1751.73	-0.313602
1753.04	-5.51054
1754.34	7.44618
1755.65	7.56745
1756.96	-0.396787
1758.26	12.1615
1759.57	4.18326
1760.88	1.04121
1762.18	5.00584
1763.49	8.84256
1764.8	-4.39632
1766.1	-3.20088
1767.41	-3.79837
1768.72	-1.60847
1770.02	4.74786
1771.33	-2.92113
1772.64	-3.8584
1773.94	-0.639622
1775.25	2.43287
1776.56	4.06225
1777.86	7.44343
1779.17	7.59555
1780.48	-3.25066
1781.78	-0.561886
1783.09	7.61024
1784.4	0.893545
1785.7	6.60136
1787.01	6.85581
1788.32	0.0279711
1789.62	6.98858
1790.93	2.51546
1792.24	4.34439
1793.54	2.96439
1794.85	2.75533
1796.16	-0.802925
1797.46	2.39026
1798.77	-1.57071
1800.08	2.53612
1801.38	-8.32152
1802.69	-4.38422
1804	-0.319092
1805.3	7.38876
1806.61	-2.83334
1807.92	1.14381
1809.22	7.21447
1810.53	4.74158
1811.84	0.291726
1813.14	2.86431
1814.45	-1.03959
1815.76	-0.308605
1817.06	-1.86267
1818.37	3.6711
1819.68	1.49863
1820.98	-0.489295
1822.29	8.58368
1823.6	3.70542
1824.9	3.6177
1826.21	7.30142
1827.52	-3.82052
1828.82	0.595766
1830.13	13.417
1831.44	6.13464
1832.74	9.19518
1834.05	3.62514
1835.36	0.373611
1836.66	0.858624
1837.97	-3.51804
1839.28	-0.889934
1840.58	-0.727811
1841.89	1.7113
1843.2	-3.31864
1844.5	7.05503
1845.81	-3.95749
1847.12	3.0359
1848.42	10.5772
1849.73	15.3271
1851.04	11.9658
1852.34	-3.71878
1853.65	-5.5336
1854.96	-3.10729
1856.26	0.295949
1857.57	0.190127
1858.88	3.37634
1860.18	-3.84687
1861.49	8.24096
1862.8	7.24513
1864.1	4.53708
1865.41	-2.04967
1866.72	12.314
1868.02	13.2148
1869.33	-3.15175
1870.64	-3.48166
1871.94	-6.69158
1873.25	4.22937
1874.56	7.8564
1875.86	-7.98458
1877.17	-2.62014
1878.48	7.6765
1879.78	0.0675373
1881.09	-3.98462
1882.4	-3.61605
1883.7	-3.03436
1885.01	-0.84492
1886.32	-3.95796
1887.62	-8.5345
1888.93	-10.3144
1890.24	-2.42816
1891.54	-3.35042
1892.85	-0.383914
1894.16	2.17117
1895.47	3.6585
1896.77	-5.55795
1898.08	-2.21404
1899.39	-0.488363
1900.69	-4.71615
1902	-2.5117
1903.31	4.03656
1904.61	-1.81754
1905.92	7.7234
1907.23	11.1621
1908.53	0.242297
1909.84	-4.29694
1911.15	-6.26752
1912.45	-5.66889
1913.76	1.44461
1915.07	-7.58142
1916.37	4.47344
1917.68	1.46125
1918.99	2.69765
1920.29	-1.76137
1921.6	2.88974
1922.91	7.05656
1924.21	1.96291
1925.52	0.333697
1926.83	3.32509
1928.13	-2.33381
1929.44	-3.36506
1930.75	-5.75813
1932.05	4.79201
1933.36	0.323847
1934.67	5.2953
1935.97	2.34006
1937.28	6.41287
1938.59	3.93695
1939.89	6.88256
1941.2	8.49288
1942.51	4.53285
1943.81	4.41571
1945.12	2.00132
1946.43	-1.90464
1947.73	0.446779
1949.04	3.86404
1950.35	0.464746
1951.65	5.39295
1952.96	20.3408
1954.27	7.87457
1955.57	-4.20796
1956.88	-0.715856
1958.19	7.62667
1959.49	14.5153
1960.8	6.60469
1962.11	0.663294
1963.41	10.7334
1964.72	15.013
1966.03	13.0618
1967.33	21.5564
1968.64	13.9609
1969.95	6.35203
1971.25	5.16513
1972.56	7.3331
1973.87	9.70529
1975.17	6.75901
1976.48	14.098
1977.79	11.7686
1979.09	20.1867
1980.4	20.8859
1981.71	12.3807
1983.01	22.4063
1984.32	14.6329
1985.63	17.2391
1986.93	17.5511
1988.24	12.004
1989.55	6.91186
1990.85	9.91488
1992.16	13.5833
1993.47	15.1787
1994.77	19.3743
1996.08	14.1231
1997.39	15.8896
1998.69	19.9215
2000	13.1148