File: Example Data/Raman/CNT - TIM/Raytheon/Microwave/Test 2 - From Anu/Batch 23 - noMW - bottom.txt
300	348.094
301.529	368.896
303.058	380.789
304.586	373.505
306.115	390.18
307.644	374.78
309.173	372.68
310.701	370.542
312.23	361.415
313.759	366.089
315.288	380.406
316.817	383.135
318.345	363.924
319.874	371.935
321.403	368.591
322.932	368.434
324.46	372.549
325.989	358.672
327.518	365.974
329.047	357.744
330.576	369.582
332.104	366.899
333.633	358.001
335.162	357.205
336.691	364.694
338.219	360.686
339.748	373.775
341.277	367.179
342.806	361.247
344.335	366.507
345.863	364.871
347.392	355.695
348.921	368.353
350.45	363.871
351.978	373.999
353.507	369.508
355.036	358.754
356.565	347.255
358.094	354.355
359.622	355.371
361.151	368.271
362.68	340.806
364.209	362.276
365.737	358.133
367.266	341.853
368.795	344.516
370.324	356.795
371.853	344.17
373.381	340.817
374.91	359.624
376.439	337.043
377.968	345.252
379.496	344.775
381.025	339.352
382.554	349.951
384.083	347.223
385.612	343.073
387.14	331.301
388.669	328.691
390.198	332.105
391.727	342.626
393.255	345.79
394.784	324.232
396.313	345.241
397.842	343.891
399.371	342.958
400.899	336.574
402.428	342.444
403.957	333.305
405.486	322.392
407.014	338.774
408.543	339.632
410.072	345.166
411.601	336.486
413.129	340.578
414.658	343.187
416.187	348.747
417.716	330.594
419.245	335.11
420.773	327.485
422.302	330.562
423.831	337.903
425.36	328.476
426.888	325.719
428.417	321.611
429.946	322.82
431.475	331.014
433.004	334.096
434.532	326.748
436.061	318.425
437.59	327.262
439.119	318.444
440.647	323.55
442.176	316.385
443.705	315.154
445.234	320.458
446.763	321.627
448.291	320.576
449.82	320.207
451.349	308.064
452.878	335.706
454.406	320.611
455.935	309.314
457.464	320.105
458.993	319.492
460.522	308.733
462.05	307.895
463.579	305.02
465.108	316.128
466.637	321.563
468.165	309.015
469.694	309.04
471.223	305.191
472.752	288.427
474.281	311.754
475.809	294.406
477.338	302.914
478.867	297.6
480.396	314.373
481.924	281.469
483.453	293.13
484.982	298.366
486.511	281.327
488.04	288.226
489.568	297.196
491.097	275.445
492.626	284.379
494.155	289.027
495.683	272.261
497.212	286.721
498.741	291.597
500.27	275.919
501.799	283.938
503.327	292.002
504.856	296.293
506.385	279.09
507.914	286.005
509.442	270.913
510.971	284.346
512.5	297.522
514.029	282.869
515.558	271.106
517.086	277.592
518.615	281.414
520.144	275.147
521.673	283.601
523.201	279.446
524.73	270.38
526.259	270.546
527.788	288.652
529.317	275.536
530.845	271.205
532.374	284.011
533.903	274.089
535.432	282.644
536.96	274.484
538.489	275.139
540.018	284.028
541.547	279.984
543.076	267.483
544.604	270.995
546.133	277.46
547.662	271.201
549.191	278.643
550.719	283.048
552.248	293.28
553.777	266.884
555.306	285.404
556.835	281.368
558.363	273.68
559.892	275.422
561.421	274.432
562.95	284.251
564.478	280.965
566.007	280.598
567.536	280.908
569.065	295.243
570.594	280.53
572.122	282.126
573.651	286.569
575.18	281.939
576.709	295.267
578.237	289.967
579.766	296.62
581.295	282.213
582.824	296.966
584.353	290.763
585.881	283.753
587.41	288.609
588.939	290.707
590.468	283.473
591.996	282.518
593.525	287.389
595.054	284.114
596.583	288.199
598.112	275.603
599.64	282.552
601.169	282.45
602.698	285.893
604.227	290.11
605.755	286.728
607.284	293.984
608.813	286.891
610.342	282.649
611.87	288.833
613.399	296.343
614.928	295.519
616.457	285.61
617.986	293.234
619.514	301.757
621.043	293.556
622.572	287.373
624.101	298.07
625.63	293.868
627.158	293.084
628.687	303.741
630.216	277.137
631.745	289.25
633.273	294.857
634.802	298.247
636.331	299.128
637.86	297.519
639.388	293.319
640.917	301.647
642.446	294.747
643.975	299.616
645.504	301.529
647.032	312.911
648.561	307.812
650.09	299.757
651.619	313.984
653.147	285.254
654.676	307.61
656.205	302.487
657.734	297.414
659.263	307.172
660.791	308.362
662.32	320.394
663.849	300.454
665.378	300.474
666.906	307.135
668.435	314.276
669.964	310.839
671.493	316.152
673.022	301.495
674.55	308.993
676.079	306.533
677.608	305.138
679.137	314.643
680.665	310.918
682.194	314.257
683.723	301.01
685.252	308.773
686.781	315.694
688.309	305.149
689.838	316.962
691.367	303.793
692.896	301.501
694.424	297.768
695.953	306.251
697.482	304.798
699.011	304.476
700.54	305.209
702.068	309.229
703.597	314.567
705.126	306.186
706.655	306.525
708.183	317.304
709.712	317.161
711.241	326.576
712.77	317.316
714.299	319.957
715.827	325.929
717.356	319.687
718.885	324.32
720.414	315.649
721.942	320.153
723.471	325.353
725	324.02
726.529	328.264
728.058	331.452
729.586	322.525
731.115	316.976
732.644	327.497
734.173	324.901
735.701	324.642
737.23	323.454
738.759	340.711
740.288	320.504
741.817	337.905
743.345	336.712
744.874	335.187
746.403	337.532
747.932	326.716
749.46	348.747
750.989	336.404
752.518	340.724
754.047	347.204
755.576	346.841
757.104	343.398
758.633	341.824
760.162	350.011
761.691	347.143
763.219	330.551
764.748	345.148
766.277	353.177
767.806	349.692
769.335	360.119
770.863	341.303
772.392	347.808
773.921	348.45
775.45	348.996
776.978	352.024
778.507	333.917
780.036	332.484
781.565	346.61
783.094	347.665
784.622	355.351
786.151	350.985
787.68	366.536
789.209	358.709
790.737	363.369
792.266	353.565
793.795	355.434
795.324	367.748
796.853	367.695
798.381	356.686
799.91	356.682
801.439	362.494
802.968	357.684
804.496	360.388
806.025	370.303
807.554	369.344
809.083	353.796
810.612	362.726
812.14	379.111
813.669	370.184
815.198	364.29
816.727	370.838
818.255	380.82
819.784	371.112
821.313	366.416
822.842	371.844
824.37	376.343
825.899	380.004
827.428	383.873
828.957	370.581
830.486	373.787
832.014	381.585
833.543	373.447
835.072	395.041
836.601	387.838
838.13	383.669
839.658	389.158
841.187	383.923
842.716	385.628
844.245	372.334
845.773	377.703
847.302	382.962
848.831	378.473
850.36	390.188
851.888	377.097
853.417	400.651
854.946	382.941
856.475	380.885
858.004	378.04
859.532	381.119
861.061	377.232
862.59	384.102
864.119	379.916
865.647	375.752
867.176	369.876
868.705	351.401
870.234	365.942
871.763	377.178
873.291	353.118
874.82	367.018
876.349	351.91
877.878	344.47
879.406	355.43
880.935	358.75
882.464	361.541
883.993	357.3
885.522	344.281
887.05	354.185
888.579	338.815
890.108	346.192
891.637	340.714
893.165	349.131
894.694	342.259
896.223	337.493
897.752	340.138
899.281	350.202
900.809	349.461
902.338	344.808
903.867	346.19
905.396	330.821
906.924	343.894
908.453	336.278
909.982	341.607
911.511	337.136
913.04	326.915
914.568	324.811
916.097	323.101
917.626	337.446
919.155	334.722
920.683	322.795
922.212	335.96
923.741	332.027
925.27	342.444
926.799	334.995
928.327	329.439
929.856	332.7
931.385	329.301
932.914	340.148
934.442	342.121
935.971	339.098
937.5	322.84
939.029	346.793
940.558	336.954
942.086	339.261
943.615	331.416
945.144	339.909
946.673	336.378
948.201	340.573
949.73	336.928
951.259	338.142
952.788	331.074
954.317	337.09
955.845	349.435
957.374	331.773
958.903	328.044
960.432	334.747
961.96	340.607
963.489	344.131
965.018	338.681
966.547	334.778
968.076	349.873
969.604	344.297
971.133	355.311
972.662	338.037
974.191	348.14
975.719	353.868
977.248	356.141
978.777	342.518
980.306	359.281
981.835	348.57
983.363	361.104
984.892	354.396
986.421	369.893
987.95	387.509
989.478	363.948
991.007	371.073
992.536	363.756
994.065	382.3
995.594	367.207
997.122	370.33
998.651	378.131
1000.18	378.281
1001.71	384.756
1003.24	389.964
1004.77	382.761
1006.29	382.312
1007.82	395.13
1009.35	397.021
1010.88	396.839
1012.41	400.972
1013.94	397.237
1015.47	407.465
1017	401.421
1018.53	400.045
1020.05	420.769
1021.58	419.527
1023.11	421.041
1024.64	428.231
1026.17	428.717
1027.7	432.585
1029.23	425.992
1030.76	434.005
1032.28	424.916
1033.81	450.699
1035.34	445.027
1036.87	461.588
1038.4	438.892
1039.93	440.9
1041.46	447.976
1042.99	450.981
1044.51	455.829
1046.04	457.305
1047.57	460.302
1049.1	475.021
1050.63	478.368
1052.16	470.279
1053.69	462.033
1055.22	471.709
1056.74	471.687
1058.27	476.321
1059.8	466.337
1061.33	484.91
1062.86	475.023
1064.39	477.503
1065.92	477.053
1067.45	482.955
1068.97	490.945
1070.5	494.995
1072.03	498.829
1073.56	490.011
1075.09	497.709
1076.62	496.808
1078.15	509.481
1079.68	510.655
1081.21	508.788
1082.73	516.4
1084.26	518.513
1085.79	522.951
1087.32	523.018
1088.85	537.908
1090.38	528.147
1091.91	527.626
1093.44	534.661
1094.96	543.653
1096.49	546.093
1098.02	547.299
1099.55	548.611
1101.08	554.795
1102.61	555.581
1104.14	547.48
1105.67	545.957
1107.19	565.063
1108.72	561.849
1110.25	570.033
1111.78	575.603
1113.31	593.696
1114.84	568.806
1116.37	574.727
1117.9	589.897
1119.42	582.255
1120.95	586.844
1122.48	599.361
1124.01	595.385
1125.54	603.668
1127.07	620.076
1128.6	621.326
1130.13	617.366
1131.65	616.323
1133.18	613.197
1134.71	617.729
1136.24	657.83
1137.77	633.263
1139.3	662.987
1140.83	654.038
1142.36	649.595
1143.88	652.65
1145.41	652.65
1146.94	666.68
1148.47	682.351
1150	681.297
1151.53	680.786
1153.06	701.212
1154.59	719.713
1156.12	685.299
1157.64	711.292
1159.17	692.808
1160.7	711.093
1162.23	724.648
1163.76	704.107
1165.29	690.258
1166.82	707.148
1168.35	732.817
1169.87	729.313
1171.4	729.867
1172.93	732.374
1174.46	744.625
1175.99	740.057
1177.52	738.788
1179.05	755.209
1180.58	762.557
1182.1	736.168
1183.63	764.254
1185.16	757.233
1186.69	760.233
1188.22	786.235
1189.75	772.067
1191.28	761.377
1192.81	780.074
1194.33	769.992
1195.86	785.702
1197.39	782.719
1198.92	792.422
1200.45	797.899
1201.98	802.921
1203.51	820.941
1205.04	829.956
1206.56	841.621
1208.09	830.942
1209.62	851.162
1211.15	835.445
1212.68	840.46
1214.21	855.825
1215.74	866.668
1217.27	878.251
1218.79	884.11
1220.32	899.722
1221.85	889.13
1223.38	885.378
1224.91	902.075
1226.44	903.68
1227.97	921.02
1229.5	932.074
1231.03	928.112
1232.55	962.913
1234.08	971.722
1235.61	950.418
1237.14	970.39
1238.67	991.346
1240.2	991.052
1241.73	1008.47
1243.26	1022.66
1244.78	1023.14
1246.31	1032.27
1247.84	1075.63
1249.37	1065.44
1250.9	1077.61
1252.43	1067.77
1253.96	1105.94
1255.49	1099.57
1257.01	1127.84
1258.54	1127.48
1260.07	1156.46
1261.6	1172.55
1263.13	1172.79
1264.66	1198.89
1266.19	1211.97
1267.72	1229.58
1269.24	1238.5
1270.77	1272.93
1272.3	1272.05
1273.83	1315.42
1275.36	1311.23
1276.89	1342.49
1278.42	1343.06
1279.95	1356.8
1281.47	1384.58
1283	1402.75
1284.53	1417.03
1286.06	1457.79
1287.59	1468.33
1289.12	1499.84
1290.65	1515.21
1292.18	1540.33
1293.71	1584.3
1295.23	1582.46
1296.76	1634.08
1298.29	1664.43
1299.82	1707.27
1301.35	1713.36
1302.88	1734.89
1304.41	1778.82
1305.94	1767.33
1307.46	1838.07
1308.99	1839.51
1310.52	1884.57
1312.05	1926.68
1313.58	1953.27
1315.11	2001.07
1316.64	2023.95
1318.17	2036.59
1319.69	2076.56
1321.22	2082.18
1322.75	2137.43
1324.28	2137.38
1325.81	2156.72
1327.34	2210.02
1328.87	2221.24
1330.4	2235.43
1331.92	2253.71
1333.45	2235.8
1334.98	2246.54
1336.51	2257.85
1338.04	2218.43
1339.57	2260.8
1341.1	2262.17
1342.63	2213.79
1344.15	2217.87
1345.68	2227.05
1347.21	2204.86
1348.74	2167.02
1350.27	2171.28
1351.8	2120.24
1353.33	2129.07
1354.86	2101.15
1356.38	2066.12
1357.91	2026.84
1359.44	2050.61
1360.97	2002.06
1362.5	1972.68
1364.03	1961.32
1365.56	1942.69
1367.09	1869.8
1368.62	1875.9
1370.14	1870.91
1371.67	1795.6
1373.2	1763.66
1374.73	1788.29
1376.26	1750.14
1377.79	1723.92
1379.32	1675.7
1380.85	1658.43
1382.37	1648.44
1383.9	1614.41
1385.43	1580.48
1386.96	1567.48
1388.49	1548.93
1390.02	1544.72
1391.55	1491.68
1393.08	1484.74
1394.6	1484.84
1396.13	1462.75
1397.66	1427.45
1399.19	1447.52
1400.72	1388.52
1402.25	1379.77
1403.78	1396.56
1405.31	1355.03
1406.83	1338.48
1408.36	1317.61
1409.89	1306.27
1411.42	1294.57
1412.95	1274.72
1414.48	1282.95
1416.01	1267.94
1417.54	1260.33
1419.06	1263.47
1420.59	1239.7
1422.12	1245.54
1423.65	1224.41
1425.18	1230.58
1426.71	1210.16
1428.24	1229.22
1429.77	1220.67
1431.29	1195.95
1432.82	1167.94
1434.35	1171.05
1435.88	1193.71
1437.41	1194.31
1438.94	1164.46
1440.47	1164.29
1442	1171.3
1443.53	1145.73
1445.05	1135.98
1446.58	1136.73
1448.11	1148.03
1449.64	1150.9
1451.17	1150.07
1452.7	1155.16
1454.23	1146.52
1455.76	1144.24
1457.28	1152.53
1458.81	1133.91
1460.34	1126.05
1461.87	1131.38
1463.4	1147.15
1464.93	1128.17
1466.46	1133.69
1467.99	1108.2
1469.51	1158.41
1471.04	1131.75
1472.57	1150.29
1474.1	1119.23
1475.63	1114.04
1477.16	1148.7
1478.69	1129.77
1480.22	1159.59
1481.74	1134.8
1483.27	1119.38
1484.8	1124.07
1486.33	1120.48
1487.86	1127.5
1489.39	1126.18
1490.92	1130.88
1492.45	1138.38
1493.97	1147.37
1495.5	1122.47
1497.03	1126.12
1498.56	1138.83
1500.09	1128.73
1501.62	1136.7
1503.15	1117.83
1504.68	1160.61
1506.21	1146.07
1507.73	1155.09
1509.26	1151.9
1510.79	1164.8
1512.32	1166.83
1513.85	1140.1
1515.38	1180.81
1516.91	1187.88
1518.44	1185.56
1519.96	1196.09
1521.49	1215.7
1523.02	1202.01
1524.55	1243.13
1526.08	1209.64
1527.61	1232.63
1529.14	1257.75
1530.67	1247.33
1532.19	1286.39
1533.72	1295.42
1535.25	1323.62
1536.78	1313.34
1538.31	1334.09
1539.84	1335.28
1541.37	1382.95
1542.9	1399.47
1544.42	1418.64
1545.95	1449.59
1547.48	1460.45
1549.01	1490.55
1550.54	1501.92
1552.07	1545.47
1553.6	1556.33
1555.13	1600.25
1556.65	1618.65
1558.18	1623.57
1559.71	1653.45
1561.24	1685.18
1562.77	1730.23
1564.3	1746.42
1565.83	1795.7
1567.36	1816.55
1568.88	1858.47
1570.41	1889.37
1571.94	1914.89
1573.47	1945.78
1575	1970.5
1576.53	1997.16
1578.06	2055.69
1579.59	2044.9
1581.12	2069.82
1582.64	2089.71
1584.17	2097.87
1585.7	2124.3
1587.23	2121.57
1588.76	2147.57
1590.29	2158.94
1591.82	2136.22
1593.35	2137.21
1594.87	2143.58
1596.4	2139.9
1597.93	2106.95
1599.46	2086.63
1600.99	2084.76
1602.52	2008.05
1604.05	1993.97
1605.58	1958.68
1607.1	1903.03
1608.63	1854.89
1610.16	1814.45
1611.69	1765.48
1613.22	1708.72
1614.75	1637.35
1616.28	1597.8
1617.81	1540.35
1619.33	1480.37
1620.86	1435.67
1622.39	1365.62
1623.92	1313.36
1625.45	1271.39
1626.98	1232.77
1628.51	1169.97
1630.04	1350.97
1631.56	1087.81
1633.09	1057.25
1634.62	1016.87
1636.15	962.441
1637.68	943.057
1639.21	886.872
1640.74	864.699
1642.27	845.159
1643.79	813.164
1645.32	776.225
1646.85	779.118
1648.38	761.93
1649.91	730.2
1651.44	689.004
1652.97	667.549
1654.5	648.453
1656.03	632.685
1657.55	617.163
1659.08	586.145
1660.61	579.02
1662.14	556.988
1663.67	551.674
1665.2	527.444
1666.73	509.932
1668.26	503.783
1669.78	498.793
1671.31	470.711
1672.84	466.298
1674.37	456.073
1675.9	442.212
1677.43	439.44
1678.96	422.044
1680.49	411.374
1682.01	415.113
1683.54	402.454
1685.07	403.435
1686.6	389.351
1688.13	386.91
1689.66	381.13
1691.19	371.082
1692.72	371.815
1694.24	361.834
1695.77	357.781
1697.3	359.399
1698.83	348.092
1700.36	348.838
1701.89	338.606
1703.42	342.023
1704.95	330.459
1706.47	332.901
1708	331.509
1709.53	330.339
1711.06	323.276
1712.59	325.039
1714.12	328.694
1715.65	324.757
1717.18	319.79
1718.71	308.02
1720.23	320.137
1721.76	308.96
1723.29	311.805
1724.82	306.778
1726.35	313.533
1727.88	293.313
1729.41	298.151
1730.94	300.842
1732.46	299.861
1733.99	293.166
1735.52	296.228
1737.05	292.909
1738.58	300.427
1740.11	289.586
1741.64	296.451
1743.17	288.807
1744.69	294.169
1746.22	294.858
1747.75	281.493
1749.28	288.068
1750.81	292.92
1752.34	286.98
1753.87	281.24
1755.4	287.489
1756.92	276.775
1758.45	281.238
1759.98	287.449
1761.51	283.051
1763.04	276.581
1764.57	288.669
1766.1	280.155
1767.63	268.441
1769.15	272.115
1770.68	277.841
1772.21	283.94
1773.74	284.002
1775.27	278.439
1776.8	280.073
1778.33	281.959
1779.86	282.702
1781.38	271.625
1782.91	274.483
1784.44	282.193
1785.97	267.717
1787.5	266.892
1789.03	270.795
1790.56	279.02
1792.09	262.97
1793.62	276.7
1795.14	261.744
1796.67	262.37
1798.2	266.22
1799.73	269.005
1801.26	261.802
1802.79	264.033
1804.32	269.128
1805.85	261.903
1807.37	266.614
1808.9	261.918
1810.43	265.016
1811.96	263.032
1813.49	271.705
1815.02	261.998
1816.55	266.451
1818.08	265.637
1819.6	265.968
1821.13	276.472
1822.66	266.777
1824.19	262.572
1825.72	270.888
1827.25	253.066
1828.78	264.561
1830.31	255.572
1831.83	270.569
1833.36	270.676
1834.89	267.962
1836.42	264.726
1837.95	257.21
1839.48	266.251
1841.01	269.391
1842.54	261.475
1844.06	255.026
1845.59	254.432
1847.12	262.073
1848.65	258.788
1850.18	252.981
1851.71	262.217
1853.24	258.082
1854.77	256.808
1856.29	257.126
1857.82	259.124
1859.35	263.223
1860.88	261.632
1862.41	252.007
1863.94	254.284
1865.47	254.161
1867	259.398
1868.53	252.833
1870.05	251.689
1871.58	251.451
1873.11	251.472
1874.64	249.623
1876.17	253.92
1877.7	249.845
1879.23	247.615
1880.76	257.919
1882.28	249.582
1883.81	250.09
1885.34	268.924
1886.87	254.684
1888.4	250.037
1889.93	256.477
1891.46	257.823
1892.99	255.995
1894.51	253.468
1896.04	252.35
1897.57	250.055
1899.1	246.134
1900.63	261.453
1902.16	253.845
1903.69	258.017
1905.22	262.357
1906.74	256.183
1908.27	241.234
1909.8	245.592
1911.33	253.996
1912.86	236.849
1914.39	251.972
1915.92	246.713
1917.45	259.388
1918.97	245.716
1920.5	246.592
1922.03	244.536
1923.56	243.837
1925.09	247.194
1926.62	252.528
1928.15	250.014
1929.68	241.804
1931.21	241.551
1932.73	250.46
1934.26	246.461
1935.79	248.037
1937.32	245.968
1938.85	247.277
1940.38	244.512
1941.91	247.434
1943.44	248.147
1944.96	242.778
1946.49	241.856
1948.02	238.669
1949.55	249.029
1951.08	253.516
1952.61	243.725
1954.14	250.872
1955.67	246.732
1957.19	242.552
1958.72	241.675
1960.25	248.133
1961.78	248.828
1963.31	247.326
1964.84	249.302
1966.37	249.377
1967.9	236.401
1969.42	246.896
1970.95	255.272
1972.48	252.162
1974.01	250.166
1975.54	240.625
1977.07	249.617
1978.6	257.549
1980.13	249.822
1981.65	245.054
1983.18	248.885
1984.71	247.859
1986.24	238.014
1987.77	248.981
1989.3	252.979
1990.83	243.322
1992.36	243.029
1993.88	239.682
1995.41	246.047
1996.94	241.452
1998.47	240.737
2000	247.214