File: Example Data/Raman/CNT - TIM/Raytheon/Microwave/Test 2 - From Anu/Batch 23 - noMW - top.txt
300	267.713
301.529	275.223
303.058	292.998
304.586	284.721
306.115	295.657
307.644	274.334
309.173	295.48
310.701	286.032
312.23	285.184
313.759	286.793
315.288	274.453
316.817	277.702
318.345	279.269
319.874	287.533
321.403	278.488
322.932	279.321
324.46	265.515
325.989	274.131
327.518	279.971
329.047	274.973
330.576	275.5
332.104	274.085
333.633	283.483
335.162	266.954
336.691	284.726
338.219	259.952
339.748	276.947
341.277	267.129
342.806	253.933
344.335	272.358
345.863	270.923
347.392	275.54
348.921	265.897
350.45	267.437
351.978	268.674
353.507	265.798
355.036	256.801
356.565	264.293
358.094	263.072
359.622	258.39
361.151	271.256
362.68	261.324
364.209	258.181
365.737	262.7
367.266	246.569
368.795	256.526
370.324	263.2
371.853	260.387
373.381	248.569
374.91	263.57
376.439	258.552
377.968	256.008
379.496	258.759
381.025	254.372
382.554	271.045
384.083	251.67
385.612	258.486
387.14	254.603
388.669	248.43
390.198	255.794
391.727	248.374
393.255	253.346
394.784	259.515
396.313	250.302
397.842	242.412
399.371	238.944
400.899	252.431
402.428	254.149
403.957	255.96
405.486	252.524
407.014	252.818
408.543	253.061
410.072	252.866
411.601	260.416
413.129	241.634
414.658	248.25
416.187	245.501
417.716	231.701
419.245	241.651
420.773	249.76
422.302	238.249
423.831	245.462
425.36	237.458
426.888	241.144
428.417	246.722
429.946	254.474
431.475	240.504
433.004	242.136
434.532	247.22
436.061	242.411
437.59	244.666
439.119	239.706
440.647	250.121
442.176	245.385
443.705	230.291
445.234	234.792
446.763	233.559
448.291	231.153
449.82	239.132
451.349	237.618
452.878	228.433
454.406	237.202
455.935	231.904
457.464	234.75
458.993	237.423
460.522	225.282
462.05	235.847
463.579	223.937
465.108	235.699
466.637	242.225
468.165	225.388
469.694	223.25
471.223	235.396
472.752	221.169
474.281	223.453
475.809	230.122
477.338	228.041
478.867	223.919
480.396	217.347
481.924	216.038
483.453	226.4
484.982	222.171
486.511	219.179
488.04	213.425
489.568	212.936
491.097	221.427
492.626	229.148
494.155	217.464
495.683	217.027
497.212	204.781
498.741	209.995
500.27	214.823
501.799	208.705
503.327	207.64
504.856	210.2
506.385	213.294
507.914	209.106
509.442	207.326
510.971	214.307
512.5	212.837
514.029	206.506
515.558	201.263
517.086	200.918
518.615	200.012
520.144	198.109
521.673	200.98
523.201	208.206
524.73	203.843
526.259	205.487
527.788	215.245
529.317	209.408
530.845	203.729
532.374	194.81
533.903	201.521
535.432	198.5
536.96	207.575
538.489	198.378
540.018	206.893
541.547	209.578
543.076	203.5
544.604	198.819
546.133	212.825
547.662	205.258
549.191	202.218
550.719	210.106
552.248	199.768
553.777	208.893
555.306	209.926
556.835	212.375
558.363	213.486
559.892	210.609
561.421	208.611
562.95	218.187
564.478	207.572
566.007	215.35
567.536	208.899
569.065	202.86
570.594	208.182
572.122	211.797
573.651	206.817
575.18	217.638
576.709	219
578.237	213.132
579.766	208.419
581.295	201.833
582.824	219.386
584.353	222.763
585.881	220.141
587.41	203.884
588.939	212.058
590.468	211.863
591.996	212.973
593.525	208.362
595.054	224.428
596.583	214.472
598.112	213.275
599.64	219.148
601.169	212.884
602.698	220.344
604.227	226.001
605.755	215.774
607.284	208.253
608.813	222.678
610.342	218.047
611.87	215.441
613.399	219.015
614.928	217.532
616.457	217.136
617.986	213.303
619.514	215.843
621.043	221.398
622.572	220.332
624.101	222.245
625.63	224.756
627.158	214.592
628.687	225.612
630.216	218.263
631.745	222.752
633.273	217.06
634.802	221.954
636.331	226.065
637.86	219.87
639.388	223.751
640.917	224.901
642.446	224.997
643.975	213.407
645.504	229.833
647.032	232.45
648.561	222.185
650.09	230.701
651.619	229.298
653.147	242.058
654.676	232.852
656.205	228.807
657.734	232.027
659.263	236.133
660.791	231.285
662.32	228.947
663.849	232.649
665.378	232.059
666.906	233.605
668.435	231.017
669.964	230.769
671.493	237.818
673.022	225.762
674.55	237.37
676.079	237.091
677.608	224.744
679.137	235.799
680.665	232.77
682.194	234
683.723	233.502
685.252	226.208
686.781	238.508
688.309	236.548
689.838	236.161
691.367	222.604
692.896	235.099
694.424	247.71
695.953	234.749
697.482	233.288
699.011	238.625
700.54	240.331
702.068	231.579
703.597	236.154
705.126	238.191
706.655	236.726
708.183	256.382
709.712	240.638
711.241	238.163
712.77	235.821
714.299	246.125
715.827	243.659
717.356	241.315
718.885	240.047
720.414	244.446
721.942	244.502
723.471	241.32
725	253.798
726.529	248.815
728.058	256.118
729.586	251.837
731.115	253.41
732.644	256.012
734.173	254.032
735.701	260.547
737.23	255.342
738.759	260.357
740.288	265.25
741.817	259.68
743.345	256.014
744.874	269.647
746.403	262.041
747.932	262.766
749.46	265.555
750.989	258.86
752.518	262.192
754.047	266.099
755.576	273.555
757.104	271.304
758.633	270.198
760.162	272.705
761.691	270.296
763.219	276.412
764.748	272.069
766.277	278.984
767.806	270.519
769.335	265.552
770.863	270.6
772.392	265.043
773.921	265.628
775.45	278.497
776.978	269.636
778.507	274.288
780.036	269.045
781.565	286.309
783.094	273.201
784.622	274.923
786.151	283.635
787.68	280.786
789.209	274.426
790.737	282.182
792.266	290.06
793.795	281.747
795.324	282.852
796.853	282.02
798.381	281.213
799.91	285.389
801.439	278.853
802.968	284.854
804.496	291.02
806.025	285.364
807.554	302.671
809.083	289.867
810.612	282.514
812.14	293.36
813.669	292.475
815.198	295.059
816.727	286.146
818.255	297.824
819.784	303.36
821.313	303.923
822.842	294.76
824.37	293.25
825.899	298.101
827.428	309.202
828.957	299.251
830.486	288.488
832.014	295.061
833.543	293.598
835.072	290.138
836.601	295.884
838.13	283.95
839.658	313.035
841.187	308.06
842.716	301.593
844.245	293.947
845.773	307.607
847.302	306.523
848.831	307.863
850.36	305.379
851.888	305.78
853.417	309.458
854.946	291.083
856.475	307.496
858.004	306.49
859.532	299.273
861.061	290.806
862.59	284.493
864.119	290.603
865.647	298.499
867.176	281.108
868.705	275.278
870.234	282.325
871.763	280.232
873.291	282.274
874.82	295.552
876.349	281.025
877.878	282.919
879.406	279.413
880.935	265
882.464	278.901
883.993	277.504
885.522	261.781
887.05	270.899
888.579	276.853
890.108	265.062
891.637	279.588
893.165	266.36
894.694	271.569
896.223	268.078
897.752	263.567
899.281	261.275
900.809	263.877
902.338	260.346
903.867	263.178
905.396	262
906.924	271.898
908.453	264.235
909.982	253.928
911.511	244.714
913.04	268.836
914.568	254.421
916.097	263.144
917.626	257.446
919.155	266.11
920.683	255.006
922.212	239.61
923.741	252.066
925.27	255.293
926.799	250.916
928.327	261.319
929.856	251.956
931.385	260.91
932.914	257.359
934.442	263.689
935.971	257.289
937.5	249.826
939.029	259.6
940.558	251.015
942.086	258.774
943.615	256.207
945.144	250.707
946.673	243.849
948.201	243.202
949.73	260.286
951.259	258.027
952.788	251.53
954.317	246.881
955.845	254.264
957.374	256.933
958.903	253.575
960.432	260.564
961.96	247.324
963.489	257.97
965.018	258.917
966.547	263.749
968.076	258.849
969.604	253.443
971.133	254.169
972.662	258.581
974.191	265.71
975.719	260.406
977.248	262.191
978.777	267.257
980.306	264.386
981.835	250.804
983.363	264.408
984.892	270.723
986.421	269.072
987.95	273.379
989.478	262.734
991.007	266.099
992.536	268.516
994.065	263.096
995.594	285.976
997.122	289.519
998.651	278.027
1000.18	274.428
1001.71	278.689
1003.24	284.464
1004.77	287.659
1006.29	290.098
1007.82	284.017
1009.35	301.092
1010.88	305.874
1012.41	296.627
1013.94	307.89
1015.47	301.059
1017	298.186
1018.53	298.447
1020.05	305.218
1021.58	316.459
1023.11	300.364
1024.64	305.963
1026.17	324.15
1027.7	385.057
1029.23	320.549
1030.76	331.714
1032.28	312.974
1033.81	333.57
1035.34	330.509
1036.87	335.552
1038.4	349.66
1039.93	326.681
1041.46	341.701
1042.99	344.026
1044.51	335.661
1046.04	338.087
1047.57	344.197
1049.1	342.39
1050.63	341.588
1052.16	351.741
1053.69	343.295
1055.22	361.661
1056.74	354.146
1058.27	366.381
1059.8	346.131
1061.33	348.432
1062.86	350.324
1064.39	365.838
1065.92	366.153
1067.45	359.573
1068.97	370.788
1070.5	367.99
1072.03	375.887
1073.56	366.528
1075.09	364.669
1076.62	378.423
1078.15	385.565
1079.68	385.18
1081.21	389.242
1082.73	383.78
1084.26	394.457
1085.79	385.243
1087.32	389.732
1088.85	380.806
1090.38	399.427
1091.91	387.442
1093.44	408.593
1094.96	397.731
1096.49	403.672
1098.02	405.705
1099.55	411.801
1101.08	413.116
1102.61	413.913
1104.14	412.087
1105.67	413.028
1107.19	411.067
1108.72	411.804
1110.25	420.714
1111.78	420.184
1113.31	414.741
1114.84	433.643
1116.37	421.894
1117.9	431.951
1119.42	434.566
1120.95	426.6
1122.48	433.797
1124.01	429.293
1125.54	433.782
1127.07	448.186
1128.6	451.437
1130.13	447.982
1131.65	455.728
1133.18	439.99
1134.71	454.363
1136.24	429.016
1137.77	478.575
1139.3	445.281
1140.83	466.885
1142.36	474.217
1143.88	477.68
1145.41	469.521
1146.94	479.858
1148.47	486.686
1150	477.39
1151.53	484.135
1153.06	495.018
1154.59	482.597
1156.12	490.014
1157.64	487.691
1159.17	502.295
1160.7	497.837
1162.23	495.952
1163.76	505.272
1165.29	495.316
1166.82	505.299
1168.35	507.161
1169.87	526.196
1171.4	517.945
1172.93	505.129
1174.46	509.279
1175.99	524.844
1177.52	530.894
1179.05	524.67
1180.58	548.497
1182.1	516.74
1183.63	551.946
1185.16	527.77
1186.69	507.656
1188.22	531.787
1189.75	549.02
1191.28	557.572
1192.81	533.522
1194.33	560.238
1195.86	547.904
1197.39	568.239
1198.92	560.361
1200.45	558.927
1201.98	560.908
1203.51	583.073
1205.04	590.665
1206.56	575.387
1208.09	583.52
1209.62	587.298
1211.15	593.576
1212.68	606.909
1214.21	601.357
1215.74	612.154
1217.27	604.173
1218.79	633.383
1220.32	634.209
1221.85	638.653
1223.38	622.198
1224.91	638.674
1226.44	654.403
1227.97	640.589
1229.5	654.944
1231.03	643.724
1232.55	677.327
1234.08	665.489
1235.61	675.549
1237.14	691.722
1238.67	679.324
1240.2	696.184
1241.73	701.122
1243.26	728.895
1244.78	723.189
1246.31	745.666
1247.84	727.27
1249.37	753.594
1250.9	754.983
1252.43	758.944
1253.96	764.75
1255.49	780.979
1257.01	782.859
1258.54	800.274
1260.07	819.512
1261.6	820.928
1263.13	818.263
1264.66	829.161
1266.19	858.962
1267.72	865.122
1269.24	878.2
1270.77	887.204
1272.3	896.79
1273.83	919.772
1275.36	906.726
1276.89	937.506
1278.42	918.462
1279.95	966.832
1281.47	994.049
1283	1030.68
1284.53	1025.47
1286.06	1024.59
1287.59	1074.48
1289.12	1092.98
1290.65	1111.4
1292.18	1101.58
1293.71	1128.9
1295.23	1157.37
1296.76	1205.44
1298.29	1214.59
1299.82	1224.42
1301.35	1252.61
1302.88	1302.69
1304.41	1336.14
1305.94	1349.63
1307.46	1367.79
1308.99	1419.41
1310.52	1432.75
1312.05	1454.65
1313.58	1505.88
1315.11	1511.34
1316.64	1535.86
1318.17	1582.07
1319.69	1624.7
1321.22	1649.61
1322.75	1683.99
1324.28	1726.44
1325.81	1700.59
1327.34	1801.63
1328.87	1801.17
1330.4	1808.74
1331.92	1797.77
1333.45	1848.45
1334.98	1852.61
1336.51	1861.17
1338.04	1870.89
1339.57	1851.67
1341.1	1865.28
1342.63	1851.85
1344.15	1838.34
1345.68	1822.32
1347.21	1793.77
1348.74	1810.04
1350.27	1771.08
1351.8	1787.49
1353.33	1737.43
1354.86	1715.64
1356.38	1696.32
1357.91	1685.99
1359.44	1611.71
1360.97	1602.23
1362.5	1554.71
1364.03	1561.08
1365.56	1519.98
1367.09	1487.75
1368.62	1469.62
1370.14	1448.36
1371.67	1404.1
1373.2	1386.56
1374.73	1332.5
1376.26	1371.76
1377.79	1318.34
1379.32	1304.19
1380.85	1240.96
1382.37	1235.25
1383.9	1232.2
1385.43	1203.84
1386.96	1179.14
1388.49	1172.29
1390.02	1138.04
1391.55	1130.41
1393.08	1111.09
1394.6	1083.81
1396.13	1089.5
1397.66	1082.08
1399.19	1061.24
1400.72	1038.67
1402.25	1052.85
1403.78	1017.8
1405.31	1023.69
1406.83	993.526
1408.36	989.188
1409.89	976.205
1411.42	956.444
1412.95	963.651
1414.48	957.641
1416.01	958.781
1417.54	946.948
1419.06	923.187
1420.59	940.679
1422.12	914.836
1423.65	941.073
1425.18	915.122
1426.71	871.007
1428.24	894.036
1429.77	902.667
1431.29	901.34
1432.82	890.598
1434.35	883.528
1435.88	872.399
1437.41	869.916
1438.94	871.438
1440.47	867.534
1442	852.565
1443.53	858.46
1445.05	862.018
1446.58	861.178
1448.11	850.749
1449.64	863.206
1451.17	840.874
1452.7	843.617
1454.23	849.805
1455.76	839.945
1457.28	842.5
1458.81	841.477
1460.34	836.142
1461.87	854.346
1463.4	841.925
1464.93	832.467
1466.46	846.143
1467.99	845.376
1469.51	848.251
1471.04	849.325
1472.57	846.227
1474.1	840.741
1475.63	853.062
1477.16	845.249
1478.69	837.547
1480.22	857.639
1481.74	851.465
1483.27	857.397
1484.8	836.975
1486.33	870.099
1487.86	841.924
1489.39	857.28
1490.92	852.394
1492.45	852.411
1493.97	853.167
1495.5	857.549
1497.03	876.942
1498.56	862.605
1500.09	857.636
1501.62	871.908
1503.15	875.357
1504.68	856.613
1506.21	877.481
1507.73	844.913
1509.26	893.299
1510.79	897.102
1512.32	892.117
1513.85	891.574
1515.38	902.401
1516.91	911.896
1518.44	909.916
1519.96	911.303
1521.49	931.97
1523.02	934.376
1524.55	933.76
1526.08	956.394
1527.61	962.725
1529.14	964.005
1530.67	984.922
1532.19	995.69
1533.72	1032.6
1535.25	1047.07
1536.78	1044.73
1538.31	1064.44
1539.84	1092.06
1541.37	1117.58
1542.9	1125.95
1544.42	1149.28
1545.95	1172.06
1547.48	1215.99
1549.01	1256.2
1550.54	1243.57
1552.07	1287.5
1553.6	1324.54
1555.13	1366.41
1556.65	1383.8
1558.18	1394.77
1559.71	1424.23
1561.24	1463.38
1562.77	1479.33
1564.3	1502.17
1565.83	1568.75
1567.36	1560.07
1568.88	1600.04
1570.41	1619.43
1571.94	1634.23
1573.47	1659.29
1575	1662.27
1576.53	1707.12
1578.06	1717.73
1579.59	1727.19
1581.12	1732.94
1582.64	1758.64
1584.17	1753.4
1585.7	1734.82
1587.23	1752.24
1588.76	1738.59
1590.29	1727.78
1591.82	1739.13
1593.35	1717.8
1594.87	1724.42
1596.4	1706.62
1597.93	1687.75
1599.46	1643.94
1600.99	1631.16
1602.52	1612.6
1604.05	1596.7
1605.58	1568.67
1607.1	1521.07
1608.63	1501.53
1610.16	1460.31
1611.69	1422.73
1613.22	1373.66
1614.75	1359.19
1616.28	1288.23
1617.81	1243.46
1619.33	1208.82
1620.86	939.876
1622.39	1334.27
1623.92	1087.92
1625.45	1032.45
1626.98	1004.88
1628.51	962.882
1630.04	907.278
1631.56	888.586
1633.09	839.35
1634.62	820.565
1636.15	787.642
1637.68	752.482
1639.21	732.831
1640.74	689.315
1642.27	659.835
1643.79	644.325
1645.32	618.131
1646.85	593.854
1648.38	578.838
1649.91	558.623
1651.44	535.956
1652.97	515.649
1654.5	493.717
1656.03	479.805
1657.55	453.904
1659.08	456.344
1660.61	442.608
1662.14	423.526
1663.67	407.261
1665.2	400.019
1666.73	384.833
1668.26	376.995
1669.78	362.059
1671.31	353.152
1672.84	342.92
1674.37	332.647
1675.9	324.626
1677.43	312.974
1678.96	315.668
1680.49	303.323
1682.01	306.312
1683.54	298.822
1685.07	292.719
1686.6	286.078
1688.13	281.441
1689.66	277.476
1691.19	272.12
1692.72	267.295
1694.24	266.643
1695.77	258.03
1697.3	261.978
1698.83	254.982
1700.36	256.613
1701.89	250.368
1703.42	244.539
1704.95	245.627
1706.47	241.5
1708	238.687
1709.53	245.193
1711.06	232.545
1712.59	234.455
1714.12	238.122
1715.65	227.852
1717.18	219.325
1718.71	230.339
1720.23	226.848
1721.76	223.202
1723.29	218.627
1724.82	222.938
1726.35	216.074
1727.88	216.556
1729.41	216.52
1730.94	212.472
1732.46	209.987
1733.99	218.283
1735.52	213.857
1737.05	212.53
1738.58	209.123
1740.11	217.093
1741.64	204.447
1743.17	204.145
1744.69	206.015
1746.22	211.42
1747.75	213.401
1749.28	210.871
1750.81	201.943
1752.34	200.39
1753.87	202.221
1755.4	194.381
1756.92	200.149
1758.45	199.839
1759.98	205.957
1761.51	202.013
1763.04	198.175
1764.57	198.185
1766.1	199.564
1767.63	183.256
1769.15	198.705
1770.68	202.616
1772.21	201.669
1773.74	200.277
1775.27	193.438
1776.8	192.825
1778.33	199.969
1779.86	193.943
1781.38	196.63
1782.91	193.825
1784.44	188.345
1785.97	193.085
1787.5	202.319
1789.03	190.742
1790.56	199.877
1792.09	196.259
1793.62	189.926
1795.14	184.604
1796.67	184.026
1798.2	192.032
1799.73	194.91
1801.26	189.042
1802.79	195.734
1804.32	188.547
1805.85	187.525
1807.37	186.691
1808.9	183.481
1810.43	195.608
1811.96	189.525
1813.49	186.772
1815.02	182.103
1816.55	191.074
1818.08	189.311
1819.6	179.918
1821.13	188.747
1822.66	190.451
1824.19	190.5
1825.72	186.951
1827.25	187.948
1828.78	178.597
1830.31	174.77
1831.83	188.092
1833.36	186.223
1834.89	181.225
1836.42	186.673
1837.95	188.656
1839.48	193.335
1841.01	188.827
1842.54	191.542
1844.06	181.88
1845.59	184.447
1847.12	186.179
1848.65	184.162
1850.18	185.785
1851.71	185.522
1853.24	185.822
1854.77	181.419
1856.29	186.833
1857.82	188.419
1859.35	176.736
1860.88	172.972
1862.41	185.59
1863.94	174.421
1865.47	185.642
1867	182.959
1868.53	189.839
1870.05	178.751
1871.58	177.411
1873.11	175.899
1874.64	176.559
1876.17	182.07
1877.7	184.576
1879.23	186.475
1880.76	182.203
1882.28	176.811
1883.81	184.053
1885.34	184.787
1886.87	185.357
1888.4	184.94
1889.93	183.975
1891.46	183.906
1892.99	187.619
1894.51	184.692
1896.04	176.422
1897.57	187.005
1899.1	178.621
1900.63	182.784
1902.16	186.811
1903.69	178.474
1905.22	171.524
1906.74	171.612
1908.27	177.549
1909.8	182.376
1911.33	185.396
1912.86	178.899
1914.39	182.869
1915.92	178.769
1917.45	173.122
1918.97	181.601
1920.5	172.246
1922.03	182.206
1923.56	177.922
1925.09	183.402
1926.62	178.435
1928.15	177.846
1929.68	178.458
1931.21	177.307
1932.73	167.045
1934.26	184.899
1935.79	177.637
1937.32	178.738
1938.85	172.101
1940.38	184.81
1941.91	168.413
1943.44	171.971
1944.96	173.969
1946.49	182.44
1948.02	186.261
1949.55	174.078
1951.08	175.18
1952.61	173.251
1954.14	175.377
1955.67	172.44
1957.19	182.962
1958.72	173.908
1960.25	181.941
1961.78	175.066
1963.31	175.041
1964.84	181.427
1966.37	172.561
1967.9	178.313
1969.42	179.576
1970.95	179.145
1972.48	180.213
1974.01	179.653
1975.54	182.222
1977.07	169.248
1978.6	175.734
1980.13	183.998
1981.65	175.938
1983.18	175.122
1984.71	180.371
1986.24	179.225
1987.77	179.867
1989.3	179.556
1990.83	178.93
1992.36	185.975
1993.88	182.474
1995.41	180.079
1996.94	185.444
1998.47	173.768
2000	170.415