File: Example Data/Raman/CNT - TIM/Raytheon/Microwave/Test 2 - From Anu/LPCVD-Tc-700 - 5min - C_Micro-5min - bottom.txt
300	356.455
301.529	336.863
303.058	354.131
304.586	348.269
306.115	361.199
307.644	348.136
309.173	338.272
310.701	345.458
312.23	345.718
313.759	344.612
315.288	352.317
316.817	342.816
318.345	349.666
319.874	346.25
321.403	345.049
322.932	341.549
324.46	347.644
325.989	339.425
327.518	335.988
329.047	337.335
330.576	348.897
332.104	333.971
333.633	342.816
335.162	343.026
336.691	347.096
338.219	335.44
339.748	347.718
341.277	337.735
342.806	352.302
344.335	338.672
345.863	342.442
347.392	330.551
348.921	315.184
350.45	345.484
351.978	335.749
353.507	334.32
355.036	333.276
356.565	339.072
358.094	338.068
359.622	341.467
361.151	329.605
362.68	340.481
364.209	330.785
365.737	337.15
367.266	310.861
368.795	323.662
370.324	327.246
371.853	324.006
373.381	329.141
374.91	315.257
376.439	321.129
377.968	322.182
379.496	321.692
381.025	314.979
382.554	312.792
384.083	318.596
385.612	326.644
387.14	316.084
388.669	322.505
390.198	324.941
391.727	316.208
393.255	316.776
394.784	322.695
396.313	315.336
397.842	326.138
399.371	316.539
400.899	333.359
402.428	321.764
403.957	330.516
405.486	314.021
407.014	318.603
408.543	323.941
410.072	321.088
411.601	314.662
413.129	315.78
414.658	323.381
416.187	306.253
417.716	320.961
419.245	320.806
420.773	316.42
422.302	322.259
423.831	311.649
425.36	320.206
426.888	312.279
428.417	318.872
429.946	318.884
431.475	321.222
433.004	309.705
434.532	314.208
436.061	308.411
437.59	310.43
439.119	314.053
440.647	313.133
442.176	303.591
443.705	300.753
445.234	302.38
446.763	308.986
448.291	296.747
449.82	315.499
451.349	317.146
452.878	301.885
454.406	288.062
455.935	304.697
457.464	286.187
458.993	283.48
460.522	300.878
462.05	299.592
463.579	295.816
465.108	304.794
466.637	308.627
468.165	299.657
469.694	289.076
471.223	292.598
472.752	287.896
474.281	287.649
475.809	294.656
477.338	304.092
478.867	297.547
480.396	325.015
481.924	295.396
483.453	294.489
484.982	293.383
486.511	280.147
488.04	278.112
489.568	280.503
491.097	275.568
492.626	272.223
494.155	279.461
495.683	276.187
497.212	268.643
498.741	266.225
500.27	266.197
501.799	275.948
503.327	273.775
504.856	275.416
506.385	266.806
507.914	268.212
509.442	271.052
510.971	271.353
512.5	268.913
514.029	257.646
515.558	268.039
517.086	269.251
518.615	261.765
520.144	258.353
521.673	258.566
523.201	268.327
524.73	268.309
526.259	266.837
527.788	263.975
529.317	265.012
530.845	263.791
532.374	270.514
533.903	271.174
535.432	257.277
536.96	274.566
538.489	272.552
540.018	273.587
541.547	276.948
543.076	267.282
544.604	273.122
546.133	261.348
547.662	267.288
549.191	277.563
550.719	277.102
552.248	277.982
553.777	270.736
555.306	269.074
556.835	285.153
558.363	272.64
559.892	281.307
561.421	277.189
562.95	268.5
564.478	274.786
566.007	275.786
567.536	278.905
569.065	264.344
570.594	278.788
572.122	273.797
573.651	285.439
575.18	280.617
576.709	290.534
578.237	269.726
579.766	277.771
581.295	280.324
582.824	288.964
584.353	278.471
585.881	273.248
587.41	272.118
588.939	287.252
590.468	282.074
591.996	284.652
593.525	276.328
595.054	276.163
596.583	283.48
598.112	269.271
599.64	282.093
601.169	280.991
602.698	271.907
604.227	280.308
605.755	275.943
607.284	291.044
608.813	287.533
610.342	280.932
611.87	283.353
613.399	281.538
614.928	285.649
616.457	289.624
617.986	290.099
619.514	286.455
621.043	284.722
622.572	290.257
624.101	284.495
625.63	294.091
627.158	287.836
628.687	286.728
630.216	291.881
631.745	291.233
633.273	292.506
634.802	291.71
636.331	293.903
637.86	289.771
639.388	296.999
640.917	300.336
642.446	286.95
643.975	306.933
645.504	291.625
647.032	296.699
648.561	296.917
650.09	296.695
651.619	302.402
653.147	300.453
654.676	292.486
656.205	299.553
657.734	302.485
659.263	295.091
660.791	302.598
662.32	301.624
663.849	293.175
665.378	296.443
666.906	298.779
668.435	299.537
669.964	293.203
671.493	303.607
673.022	311.5
674.55	309.34
676.079	311.316
677.608	305.929
679.137	299.536
680.665	291.34
682.194	297.58
683.723	298.773
685.252	299.45
686.781	313.42
688.309	296.508
689.838	308.938
691.367	314.501
692.896	307.744
694.424	315.482
695.953	312.83
697.482	311.745
699.011	300.931
700.54	302.433
702.068	311.309
703.597	318.999
705.126	305.277
706.655	311.174
708.183	319.761
709.712	318.234
711.241	318.725
712.77	318.354
714.299	310.957
715.827	310.637
717.356	323.499
718.885	332.526
720.414	315.839
721.942	330.076
723.471	309.964
725	328.595
726.529	313.558
728.058	313.814
729.586	337.885
731.115	343.334
732.644	339.586
734.173	326.307
735.701	333.175
737.23	334.349
738.759	342.964
740.288	336.06
741.817	325.81
743.345	339.241
744.874	343.363
746.403	336.169
747.932	349.452
749.46	343.762
750.989	343.462
752.518	332.577
754.047	332.802
755.576	342.801
757.104	353.642
758.633	338.66
760.162	352.55
761.691	348.704
763.219	342.212
764.748	353.961
766.277	337.297
767.806	356.428
769.335	353.126
770.863	349.117
772.392	346.932
773.921	361.345
775.45	347.566
776.978	345.142
778.507	351.211
780.036	356.14
781.565	361.033
783.094	346.859
784.622	354.667
786.151	353.04
787.68	366.078
789.209	346.226
790.737	360.949
792.266	360.543
793.795	363.227
795.324	355.607
796.853	354.212
798.381	364.336
799.91	374.811
801.439	357.991
802.968	366.527
804.496	379.23
806.025	374.289
807.554	362.446
809.083	376.734
810.612	371.159
812.14	373.82
813.669	374.569
815.198	375.923
816.727	390.569
818.255	376.894
819.784	384.647
821.313	375.091
822.842	380.8
824.37	388.822
825.899	369.474
827.428	388.064
828.957	380.607
830.486	395.88
832.014	373.419
833.543	387.048
835.072	398.018
836.601	376.52
838.13	381.428
839.658	397.132
841.187	393.819
842.716	380.518
844.245	393.811
845.773	399.684
847.302	384.347
848.831	382.647
850.36	383.856
851.888	397.566
853.417	397.473
854.946	390.71
856.475	396.812
858.004	391.348
859.532	392.077
861.061	389.43
862.59	391.122
864.119	371.903
865.647	370.926
867.176	382.312
868.705	365.138
870.234	360.526
871.763	363.573
873.291	370.569
874.82	352.621
876.349	360.34
877.878	354.122
879.406	361.314
880.935	362.874
882.464	351.134
883.993	346.744
885.522	353.935
887.05	353.757
888.579	339.482
890.108	346.682
891.637	351.348
893.165	345.724
894.694	343.76
896.223	349.346
897.752	347.183
899.281	336.966
900.809	346.173
902.338	339.469
903.867	343.842
905.396	336.866
906.924	346.255
908.453	352.397
909.982	326.014
911.511	331.893
913.04	345.288
914.568	342.116
916.097	334.762
917.626	343.719
919.155	347.783
920.683	338.429
922.212	336.607
923.741	335.43
925.27	332.806
926.799	346.993
928.327	334.646
929.856	345.519
931.385	342.859
932.914	331.577
934.442	340.711
935.971	337.943
937.5	344.444
939.029	334.303
940.558	333.989
942.086	340.947
943.615	338.598
945.144	329.804
946.673	342.486
948.201	341.202
949.73	339.262
951.259	338.838
952.788	337.48
954.317	345.65
955.845	344.306
957.374	337.092
958.903	343.382
960.432	337.228
961.96	344.181
963.489	336.896
965.018	333.641
966.547	331.889
968.076	340.388
969.604	350.893
971.133	352.258
972.662	347.286
974.191	349.223
975.719	352.448
977.248	371.736
978.777	357.812
980.306	358.595
981.835	361.678
983.363	353.895
984.892	357.966
986.421	354.288
987.95	351.853
989.478	368.986
991.007	365.216
992.536	354.741
994.065	365.617
995.594	374.62
997.122	379.091
998.651	386.839
1000.18	380.668
1001.71	385.162
1003.24	394.822
1004.77	389.645
1006.29	386.786
1007.82	392.975
1009.35	412.088
1010.88	393.423
1012.41	413.984
1013.94	406.533
1015.47	406.957
1017	411.457
1018.53	403.003
1020.05	426.255
1021.58	419.023
1023.11	414.823
1024.64	418.362
1026.17	420.492
1027.7	428.028
1029.23	432.061
1030.76	434.933
1032.28	437.604
1033.81	457.873
1035.34	453.363
1036.87	454.883
1038.4	433.709
1039.93	464.382
1041.46	476.825
1042.99	461.197
1044.51	450.201
1046.04	464.892
1047.57	474.119
1049.1	467.62
1050.63	467.735
1052.16	466.3
1053.69	477.414
1055.22	481.18
1056.74	477.738
1058.27	473.392
1059.8	486.721
1061.33	475.349
1062.86	502.488
1064.39	488.449
1065.92	501.916
1067.45	488.042
1068.97	512.045
1070.5	498.491
1072.03	501.111
1073.56	522.041
1075.09	497.173
1076.62	515.846
1078.15	532.541
1079.68	522.813
1081.21	531.688
1082.73	531.071
1084.26	535.126
1085.79	528.168
1087.32	544.4375
1088.85	536.495
1090.38	544.14
1091.91	551.723
1093.44	552.774
1094.96	556.398
1096.49	552.061
1098.02	569.393
1099.55	567.457
1101.08	578.626
1102.61	576.599
1104.14	581.716
1105.67	582.219
1107.19	589.904
1108.72	591.359
1110.25	586.617
1111.78	592.249
1113.31	603.487
1114.84	608.565
1116.37	594.174
1117.9	611.366
1119.42	606.037
1120.95	610.268
1122.48	614.968
1124.01	631.834
1125.54	620.981
1127.07	641.691
1128.6	629.357
1130.13	647.449
1131.65	632.392
1133.18	615.948
1134.71	631.986
1136.24	655.862
1137.77	650.129
1139.3	655.867
1140.83	668.156
1142.36	677.148
1143.88	674.832
1145.41	692.538
1146.94	669.79
1148.47	691.697
1150	708.53
1151.53	702.767
1153.06	712.989
1154.59	733.923
1156.12	720.714
1157.64	743.027
1159.17	732.784
1160.7	726.992
1162.23	718.174
1163.76	751.89
1165.29	750.111
1166.82	749.246
1168.35	732.914
1169.87	763.85
1171.4	752.034
1172.93	751.647
1174.46	774.973
1175.99	771.052
1177.52	775.264
1179.05	756.728
1180.58	758.422
1182.1	765.417
1183.63	763.312
1185.16	780.565
1186.69	761.026
1188.22	780.736
1189.75	799.253
1191.28	800.077
1192.81	800.013
1194.33	809.738
1195.86	818.464
1197.39	803.923
1198.92	822.366
1200.45	836.553
1201.98	812.476
1203.51	828.033
1205.04	829.537
1206.56	841.909
1208.09	833.489
1209.62	839.586
1211.15	852.382
1212.68	849.932
1214.21	871.224
1215.74	866.478
1217.27	875.394
1218.79	871.233
1220.32	870.453
1221.85	888.405
1223.38	899.307
1224.91	898.628
1226.44	908.035
1227.97	928.425
1229.5	924.216
1231.03	932.226
1232.55	942.889
1234.08	956.46
1235.61	982.904
1237.14	969.865
1238.67	985.299
1240.2	991.116
1241.73	996.611
1243.26	999.091
1244.78	1032.02
1246.31	1012.97
1247.84	1049.86
1249.37	1052.93
1250.9	1059.49
1252.43	1070.82
1253.96	1092.11
1255.49	1103.75
1257.01	1103.79
1258.54	1147.43
1260.07	1109.41
1261.6	1160.73
1263.13	1162.96
1264.66	1188.04
1266.19	1205.55
1267.72	1229.92
1269.24	1223.82
1270.77	1272.88
1272.3	1283.26
1273.83	1307.97
1275.36	1284.07
1276.89	1332.24
1278.42	1345.97
1279.95	1371.69
1281.47	1369.81
1283	1391.71
1284.53	1427.13
1286.06	1457.04
1287.59	1488.28
1289.12	1495.15
1290.65	1535.23
1292.18	1561.03
1293.71	1589.25
1295.23	1603.42
1296.76	1641.47
1298.29	1686.65
1299.82	1708.9
1301.35	1747.94
1302.88	1789.14
1304.41	1850.29
1305.94	1829.69
1307.46	1868.38
1308.99	1961.6
1310.52	2000.86
1312.05	2017.98
1313.58	2043.27
1315.11	2100.42
1316.64	2132.44
1318.17	2165.84
1319.69	2273.98
1321.22	2266.53
1322.75	2333.52
1324.28	2424.85
1325.81	2458.55
1327.34	2475.84
1328.87	2527.99
1330.4	2555.73
1331.92	2601.02
1333.45	2611.41
1334.98	2646.68
1336.51	2661.68
1338.04	2684.59
1339.57	2724.17
1341.1	2727.89
1342.63	2729.75
1344.15	2752
1345.68	2694.28
1347.21	2689.13
1348.74	2702.75
1350.27	2692.42
1351.8	2661.2
1353.33	2648.92
1354.86	2609.62
1356.38	2603.24
1357.91	2539.34
1359.44	2498.81
1360.97	2455.11
1362.5	2416.3
1364.03	2397.31
1365.56	2358.82
1367.09	2276.61
1368.62	2260.47
1370.14	2214.57
1371.67	2188.89
1373.2	2148.74
1374.73	2105.76
1376.26	2058.24
1377.79	2032.63
1379.32	1979.08
1380.85	1928.62
1382.37	1888.48
1383.9	1875.22
1385.43	1827.81
1386.96	1792.82
1388.49	1802.38
1390.02	1765.41
1391.55	1728.41
1393.08	1705.63
1394.6	1632.82
1396.13	1617.84
1397.66	1612.26
1399.19	1569.84
1400.72	1578.06
1402.25	1536.54
1403.78	1532.75
1405.31	1507.85
1406.83	1502.54
1408.36	1517.57
1409.89	1470.25
1411.42	1438.09
1412.95	1429.14
1414.48	1414.68
1416.01	1406.12
1417.54	1415.77
1419.06	1375.33
1420.59	1355.6
1422.12	1372.69
1423.65	1374.6
1425.18	1343.77
1426.71	1335.14
1428.24	1325.34
1429.77	1318.43
1431.29	1318.48
1432.82	1313.66
1434.35	1290.78
1435.88	1270.98
1437.41	1287.72
1438.94	1266.19
1440.47	1275.41
1442	1271.98
1443.53	1254.9
1445.05	1242.52
1446.58	1261.33
1448.11	1244.45
1449.64	1248.32
1451.17	1253.95
1452.7	1247.35
1454.23	1243.06
1455.76	1229.1
1457.28	1211.36
1458.81	1242.68
1460.34	1235.12
1461.87	1246.58
1463.4	1241.29
1464.93	1216.07
1466.46	1241.59
1467.99	1226.14
1469.51	1230.95
1471.04	1199.69
1472.57	1203.09
1474.1	1204.29
1475.63	1226.2
1477.16	1229.87
1478.69	1227.54
1480.22	1229.63
1481.74	1237.34
1483.27	1212.1
1484.8	1198.51
1486.33	1227.76
1487.86	1253.72
1489.39	1203.55
1490.92	1234.62
1492.45	1254.82
1493.97	1235.7
1495.5	1237.8
1497.03	1228.67
1498.56	1258.89
1500.09	1242.54
1501.62	1218.94
1503.15	1222.76
1504.68	1230.05
1506.21	1233.66
1507.73	1264.77
1509.26	1257.35
1510.79	1263.17
1512.32	1276.96
1513.85	1277.56
1515.38	1276.94
1516.91	1273.03
1518.44	1271.29
1519.96	1285.66
1521.49	1292.05
1523.02	1308.32
1524.55	1320.33
1526.08	1317.24
1527.61	1328.84
1529.14	1361.01
1530.67	1339.83
1532.19	1380.21
1533.72	1361.84
1535.25	1383.93
1536.78	1402.11
1538.31	1428.34
1539.84	1465.01
1541.37	1459.75
1542.9	1490.76
1544.42	1506.54
1545.95	1554.99
1547.48	1569.13
1549.01	1582.17
1550.54	1628.12
1552.07	1694.97
1553.6	1730.42
1555.13	1756.96
1556.65	1765.42
1558.18	1806.59
1559.71	1831.37
1561.24	1869.58
1562.77	1906.47
1564.3	1939.32
1565.83	2013.54
1567.36	2049
1568.88	2081.21
1570.41	2119.51
1571.94	2175.92
1573.47	2212.97
1575	2254.8
1576.53	2292.19
1578.06	2311.2
1579.59	2392.54
1581.12	2376.4
1582.64	2404.51
1584.17	2464.04
1585.7	2467.11
1587.23	2481.22
1588.76	2487.83
1590.29	2511.51
1591.82	2533.66
1593.35	2517.7
1594.87	2539.85
1596.4	2511.16
1597.93	2529.07
1599.46	2490.14
1600.99	2463.78
1602.52	2450.15
1604.05	2442.22
1605.58	2411.51
1607.1	2398.33
1608.63	2344.86
1610.16	2308.59
1611.69	2293.39
1613.22	2202.51
1614.75	2173.69
1616.28	2111.12
1617.81	2052.33
1619.33	1993.29
1620.86	1940.65
1622.39	1875.01
1623.92	1806.04
1625.45	1744.11
1626.98	1685.13
1628.51	1604.92
1630.04	1543.77
1631.56	1489.42
1633.09	1424.65
1634.62	1372.67
1636.15	1307.34
1637.68	1278.18
1639.21	1211.62
1640.74	1169.75
1642.27	1106.05
1643.79	1091.22
1645.32	1037.29
1646.85	997.737
1648.38	963.14
1649.91	930.816
1651.44	893.896
1652.97	872.453
1654.5	836.934
1656.03	797.723
1657.55	803.847
1659.08	758.628
1660.61	720.036
1662.14	706.944
1663.67	680.434
1665.2	662.088
1666.73	623.693
1668.26	626.455
1669.78	584.909
1671.31	594.512
1672.84	561.907
1674.37	545.854
1675.9	536.412
1677.43	522.153
1678.96	515.344
1680.49	488.244
1682.01	487.063
1683.54	472.583
1685.07	464.407
1686.6	458.798
1688.13	455.907
1689.66	439.93
1691.19	439.359
1692.72	422.165
1694.24	424.479
1695.77	414.121
1697.3	416.812
1698.83	400.61
1700.36	408.593
1701.89	399.145
1703.42	411.724
1704.95	424.46
1706.47	379.578
1708	377.744
1709.53	381.574
1711.06	365.495
1712.59	379.379
1714.12	361.886
1715.65	364.976
1717.18	360.202
1718.71	365.264
1720.23	363.473
1721.76	356.371
1723.29	356.345
1724.82	348.196
1726.35	341.865
1727.88	344.407
1729.41	343.732
1730.94	343.961
1732.46	336.047
1733.99	338.391
1735.52	326.763
1737.05	331.496
1738.58	333.718
1740.11	333.257
1741.64	331.51
1743.17	328.992
1744.69	333.076
1746.22	327.866
1747.75	317.777
1749.28	332.484
1750.81	327.506
1752.34	330.218
1753.87	329.867
1755.4	307.671
1756.92	322.31
1758.45	315.327
1759.98	310.413
1761.51	318.473
1763.04	324.959
1764.57	323.241
1766.1	321.085
1767.63	320.861
1769.15	320.199
1770.68	319.99
1772.21	317.288
1773.74	312.142
1775.27	316.586
1776.8	317.372
1778.33	317.437
1779.86	307.813
1781.38	325.105
1782.91	308.688
1784.44	314.452
1785.97	307.85
1787.5	316.185
1789.03	310.723
1790.56	306.678
1792.09	320.508
1793.62	317.051
1795.14	313.52
1796.67	311.397
1798.2	314.496
1799.73	311.67
1801.26	319.536
1802.79	322.676
1804.32	308.435
1805.85	299.903
1807.37	302.114
1808.9	315.227
1810.43	307.699
1811.96	313.042
1813.49	316.236
1815.02	304.207
1816.55	310.376
1818.08	309.953
1819.6	309.151
1821.13	314.859
1822.66	319.253
1824.19	304.921
1825.72	314.706
1827.25	310.835
1828.78	322.148
1830.31	313.962
1831.83	308.696
1833.36	314.615
1834.89	306.729
1836.42	299.018
1837.95	307.39
1839.48	313.623
1841.01	315.206
1842.54	302.541
1844.06	301.93
1845.59	314.004
1847.12	313.443
1848.65	302.592
1850.18	303.263
1851.71	320.614
1853.24	309.232
1854.77	300.637
1856.29	316.641
1857.82	307.823
1859.35	310.192
1860.88	322.027
1862.41	308.577
1863.94	306.587
1865.47	301.041
1867	305.262
1868.53	301.504
1870.05	313.434
1871.58	311.875
1873.11	315.963
1874.64	305.232
1876.17	314.09
1877.7	318.44
1879.23	318.955
1880.76	317.906
1882.28	323.632
1883.81	308.635
1885.34	306.875
1886.87	302.85
1888.4	308.371
1889.93	295.02
1891.46	301.042
1892.99	311.687
1894.51	306.742
1896.04	308.341
1897.57	309.319
1899.1	308.166
1900.63	304.055
1902.16	306.981
1903.69	302.343
1905.22	292.683
1906.74	319.755
1908.27	308.96
1909.8	305.478
1911.33	319.781
1912.86	315.623
1914.39	301.906
1915.92	310.862
1917.45	304.181
1918.97	314.606
1920.5	301.364
1922.03	311.982
1923.56	305.655
1925.09	315.683
1926.62	294.119
1928.15	304.516
1929.68	301.067
1931.21	313.292
1932.73	309.337
1934.26	308.663
1935.79	298.075
1937.32	312.33
1938.85	313.032
1940.38	306.777
1941.91	300.464
1943.44	309.89
1944.96	305.624
1946.49	306.443
1948.02	302.396
1949.55	309.638
1951.08	307.93
1952.61	319.115
1954.14	307.461
1955.67	294.357
1957.19	308.585
1958.72	310.166
1960.25	302.358
1961.78	307.009
1963.31	310.234
1964.84	296.623
1966.37	303.893
1967.9	304.559
1969.42	303.517
1970.95	309.227
1972.48	303.412
1974.01	303.84
1975.54	305.826
1977.07	307.795
1978.6	316.248
1980.13	311.82
1981.65	307.651
1983.18	305.47
1984.71	311.15
1986.24	307.006
1987.77	305.717
1989.3	303.463
1990.83	321.983
1992.36	306.457
1993.88	307.056
1995.41	315.695
1996.94	306.711
1998.47	303.08
2000	315.399