File: Example Data/Raman/CNT - TIM/Raytheon/Microwave/Test 2 - From Anu/LPCVD-Tc-700 - 5min - C_noMW - bottom.txt
300	372.874
301.529	380.282
303.058	415.932
304.586	397.29
306.115	389.936
307.644	401.143
309.173	393.799
310.701	390.199
312.23	387.782
313.759	391.789
315.288	395.758
316.817	399.046
318.345	394.91
319.874	380.612
321.403	389.117
322.932	387.098
324.46	382.96
325.989	385.014
327.518	393.838
329.047	373.683
330.576	391.434
332.104	375.638
333.633	381.781
335.162	378.546
336.691	386.38
338.219	375.975
339.748	388.186
341.277	381.938
342.806	378.082
344.335	387.871
345.863	370.837
347.392	378.072
348.921	379.125
350.45	376.187
351.978	371.83
353.507	379.501
355.036	382.07
356.565	382.658
358.094	377.002
359.622	378.11
361.151	379.762
362.68	374.453
364.209	371.658
365.737	363.802
367.266	369.527
368.795	367.209
370.324	379.112
371.853	368.552
373.381	368.728
374.91	358.761
376.439	355.016
377.968	356.403
379.496	351.008
381.025	366.228
382.554	368.993
384.083	359.511
385.612	370.283
387.14	361.333
388.669	366.484
390.198	359.589
391.727	361.729
393.255	345.163
394.784	354.118
396.313	359.888
397.842	356.045
399.371	348.64
400.899	357.637
402.428	347.568
403.957	359.516
405.486	356.902
407.014	361.346
408.543	359.202
410.072	346.141
411.601	341.327
413.129	350.081
414.658	346.576
416.187	374.497
417.716	361.467
419.245	363.052
420.773	344.596
422.302	349.171
423.831	336.248
425.36	352.872
426.888	353.25
428.417	356.329
429.946	356.925
431.475	351.014
433.004	348.551
434.532	353.059
436.061	344.814
437.59	346.727
439.119	346.023
440.647	345.937
442.176	341.583
443.705	344.089
445.234	353.479
446.763	351.276
448.291	337.814
449.82	337.207
451.349	349.797
452.878	337.741
454.406	342.238
455.935	335.944
457.464	335.087
458.993	317.633
460.522	329.992
462.05	338.241
463.579	330.854
465.108	345.951
466.637	324.775
468.165	335.846
469.694	330.75
471.223	324.376
472.752	332.051
474.281	330.276
475.809	315.968
477.338	316.805
478.867	315.153
480.396	323.32
481.924	313.308
483.453	318.459
484.982	317.403
486.511	310.653
488.04	317.506
489.568	291.593
491.097	307.1
492.626	325.253
494.155	302.715
495.683	296.367
497.212	296.603
498.741	304.108
500.27	306.76
501.799	305.136
503.327	300.921
504.856	298.983
506.385	296.888
507.914	295.443
509.442	308.209
510.971	296.534
512.5	303.653
514.029	290.912
515.558	300.131
517.086	287.758
518.615	307.606
520.144	303.275
521.673	292.891
523.201	288.968
524.73	304.683
526.259	294.856
527.788	288.738
529.317	298.947
530.845	299.619
532.374	296.894
533.903	293.828
535.432	298.722
536.96	306.319
538.489	300.873
540.018	305.701
541.547	304.613
543.076	292.96
544.604	301.75
546.133	308.249
547.662	291.464
549.191	317.773
550.719	1759.09
552.248	304.886
553.777	300.003
555.306	304.903
556.835	305.881
558.363	307.758
559.892	298.377
561.421	292.591
562.95	306.437
564.478	300.356
566.007	301.015
567.536	310.092
569.065	301.881
570.594	321.587
572.122	315.474
573.651	308.928
575.18	318.706
576.709	317.879
578.237	325.748
579.766	305.147
581.295	310.102
582.824	312.763
584.353	306.036
585.881	326.7
587.41	304.826
588.939	298.659
590.468	311.027
591.996	307.418
593.525	316.071
595.054	308.943
596.583	304.992
598.112	317.478
599.64	315.061
601.169	306.172
602.698	308.31
604.227	309.477
605.755	307.756
607.284	313.531
608.813	312.359
610.342	314.866
611.87	318.671
613.399	312.729
614.928	312.079
616.457	318.549
617.986	315.657
619.514	323.84
621.043	331.139
622.572	326.136
624.101	308.498
625.63	323.704
627.158	316.937
628.687	325.441
630.216	326.811
631.745	323.916
633.273	329.714
634.802	330.811
636.331	323.812
637.86	313.944
639.388	314.829
640.917	331.938
642.446	323.016
643.975	325.914
645.504	325.597
647.032	320.84
648.561	326.462
650.09	338.953
651.619	321.485
653.147	343.022
654.676	335.453
656.205	335.539
657.734	315.734
659.263	325.76
660.791	334.575
662.32	330.305
663.849	329.847
665.378	332.009
666.906	326.157
668.435	330.335
669.964	318.994
671.493	345.219
673.022	325.588
674.55	345.768
676.079	333.762
677.608	335.529
679.137	327.167
680.665	326.89
682.194	342.867
683.723	334.276
685.252	328.571
686.781	343.693
688.309	327.228
689.838	330.451
691.367	339.783
692.896	313.036
694.424	339.756
695.953	337.329
697.482	329.206
699.011	340.923
700.54	334.48
702.068	341.968
703.597	343.938
705.126	337.946
706.655	341.202
708.183	329.685
709.712	351.691
711.241	336.953
712.77	333.934
714.299	355.758
715.827	336.337
717.356	341.599
718.885	338.967
720.414	345.981
721.942	343.03
723.471	343.639
725	350.937
726.529	333.99
728.058	368.889
729.586	350.77
731.115	358.165
732.644	357.087
734.173	361.934
735.701	366.787
737.23	376.857
738.759	363.464
740.288	365.574
741.817	362.357
743.345	365.472
744.874	364.716
746.403	351.665
747.932	368.742
749.46	376.865
750.989	361.303
752.518	368.263
754.047	363.529
755.576	364.623
757.104	368.712
758.633	376.511
760.162	375.472
761.691	375.856
763.219	383.625
764.748	368.612
766.277	391.058
767.806	372.733
769.335	366.001
770.863	373.44
772.392	383.468
773.921	363.881
775.45	385.368
776.978	382.492
778.507	395.735
780.036	379.864
781.565	381.244
783.094	386.769
784.622	376.419
786.151	389.48
787.68	391.235
789.209	383.206
790.737	396.278
792.266	384.151
793.795	389.17
795.324	398.334
796.853	388.713
798.381	390.248
799.91	392.75
801.439	383.159
802.968	387.933
804.496	399.218
806.025	388.025
807.554	404.879
809.083	382.952
810.612	396.051
812.14	401.115
813.669	412.836
815.198	401
816.727	404.632
818.255	405.02
819.784	409.437
821.313	407.673
822.842	411.027
824.37	406.956
825.899	422.046
827.428	407.623
828.957	403.783
830.486	406.963
832.014	406.056
833.543	431.813
835.072	417.057
836.601	400.328
838.13	415.303
839.658	416.528
841.187	413.577
842.716	402.517
844.245	425.469
845.773	414.941
847.302	427.59
848.831	424.115
850.36	404.555
851.888	410.403
853.417	411.687
854.946	426.681
856.475	425.463
858.004	412.701
859.532	407.01
861.061	392.947
862.59	404.88
864.119	391.908
865.647	402.519
867.176	397.191
868.705	388
870.234	399.566
871.763	396.132
873.291	394.591
874.82	394.345
876.349	394.328
877.878	385.341
879.406	378.547
880.935	373.751
882.464	382.558
883.993	383.954
885.522	383.409
887.05	383.888
888.579	382.608
890.108	383.419
891.637	377.169
893.165	385.254
894.694	374.25
896.223	380.086
897.752	378.377
899.281	382.141
900.809	375.148
902.338	378.623
903.867	374.611
905.396	367.725
906.924	365.159
908.453	383.575
909.982	350.999
911.511	365.279
913.04	372.894
914.568	383.841
916.097	362.832
917.626	372.85
919.155	364.832
920.683	369.023
922.212	363.538
923.741	365.066
925.27	364.117
926.799	365.762
928.327	355.904
929.856	362.362
931.385	373.016
932.914	358.93
934.442	361.55
935.971	391.02
937.5	373.743
939.029	377
940.558	382.22
942.086	368.472
943.615	376.094
945.144	363.816
946.673	365.5
948.201	381.677
949.73	376.405
951.259	374.581
952.788	376.816
954.317	373.019
955.845	363.179
957.374	375.633
958.903	374.021
960.432	366.034
961.96	368.832
963.489	361.922
965.018	379.173
966.547	377.5
968.076	381.282
969.604	382.907
971.133	382.474
972.662	387.496
974.191	387.682
975.719	390.832
977.248	387.785
978.777	385.613
980.306	390.904
981.835	392.507
983.363	379.741
984.892	397.129
986.421	398.675
987.95	401.349
989.478	402.402
991.007	401.401
992.536	408.411
994.065	402.04
995.594	416.787
997.122	418.649
998.651	416.873
1000.18	422.1
1001.71	430.046
1003.24	435.396
1004.77	433.104
1006.29	435.045
1007.82	430.929
1009.35	446.976
1010.88	434.768
1012.41	447.94
1013.94	439.817
1015.47	454.276
1017	457.093
1018.53	453.785
1020.05	460.047
1021.58	466.568
1023.11	460.522
1024.64	467.893
1026.17	495.932
1027.7	475.725
1029.23	467.263
1030.76	489.879
1032.28	489.407
1033.81	485.896
1035.34	469.662
1036.87	505.526
1038.4	500.884
1039.93	505.289
1041.46	519.265
1042.99	516.375
1044.51	501.878
1046.04	512.658
1047.57	503.147
1049.1	519.896
1050.63	521.485
1052.16	520.108
1053.69	525.352
1055.22	526.008
1056.74	548.524
1058.27	536.919
1059.8	522.981
1061.33	535.752
1062.86	545.543
1064.39	522.741
1065.92	550.41
1067.45	541.076
1068.97	550.687
1070.5	553.436
1072.03	553.403
1073.56	558.641
1075.09	564.879
1076.62	561.299
1078.15	568.264
1079.68	565.28
1081.21	584.527
1082.73	576.992
1084.26	584.205
1085.79	580.061
1087.32	582.633
1088.85	584.116
1090.38	602.737
1091.91	590.32
1093.44	592.807
1094.96	605.303
1096.49	610.221
1098.02	612.466
1099.55	605.218
1101.08	609.764
1102.61	631.344
1104.14	642.07
1105.67	642.623
1107.19	637.583
1108.72	631.294
1110.25	642.198
1111.78	648.898
1113.31	645.778
1114.84	657.746
1116.37	661.942
1117.9	659.276
1119.42	662.84
1120.95	668.58
1122.48	674.774
1124.01	683.955
1125.54	677.166
1127.07	707.877
1128.6	703.806
1130.13	699.224
1131.65	685.135
1133.18	713.128
1134.71	710.777
1136.24	706.467
1137.77	737.739
1139.3	748.155
1140.83	742.078
1142.36	751.311
1143.88	751.386
1145.41	769.085
1146.94	789.334
1148.47	760.195
1150	771.521
1151.53	770.271
1153.06	796.551
1154.59	801.352
1156.12	813.21
1157.64	810.081
1159.17	810.778
1160.7	821.09
1162.23	816.565
1163.76	832.621
1165.29	825.982
1166.82	835.334
1168.35	830.854
1169.87	846.767
1171.4	840.398
1172.93	843.073
1174.46	864.034
1175.99	841.178
1177.52	863.295
1179.05	842.714
1180.58	851.143
1182.1	874.675
1183.63	847.992
1185.16	876.993
1186.69	878.18
1188.22	870.71
1189.75	884.818
1191.28	917.907
1192.81	885.849
1194.33	909.972
1195.86	915.644
1197.39	886.623
1198.92	896.379
1200.45	921.977
1201.98	916.474
1203.51	936.639
1205.04	917.38
1206.56	930.941
1208.09	964.456
1209.62	966.523
1211.15	953.268
1212.68	955.626
1214.21	989.236
1215.74	981.23
1217.27	982.894
1218.79	997.571
1220.32	1026.95
1221.85	1013.55
1223.38	1021.88
1224.91	1040.78
1226.44	1037
1227.97	1049.57
1229.5	1045.17
1231.03	1071.63
1232.55	1060.59
1234.08	1085.76
1235.61	1100.59
1237.14	1117.57
1238.67	1130.69
1240.2	1125.28
1241.73	1132.71
1243.26	1152.82
1244.78	1185.34
1246.31	1178.27
1247.84	1183.67
1249.37	1212.4
1250.9	1209.87
1252.43	1205.37
1253.96	1241.4
1255.49	1256.64
1257.01	1267.48
1258.54	1285.37
1260.07	1291.81
1261.6	1310.37
1263.13	1308.68
1264.66	1345.6
1266.19	1358.9
1267.72	1381.77
1269.24	1393.96
1270.77	1403.19
1272.3	1430.88
1273.83	1462.74
1275.36	1462.6
1276.89	1489.39
1278.42	1501.04
1279.95	1531.18
1281.47	1567.11
1283	1573.9
1284.53	1623.46
1286.06	1614.37
1287.59	1644.23
1289.12	1664.66
1290.65	1710.18
1292.18	1713.2
1293.71	1732.46
1295.23	1782.92
1296.76	1803.79
1298.29	1798.72
1299.82	1858.28
1301.35	1850.11
1302.88	1875.06
1304.41	1920.71
1305.94	1970.11
1307.46	2003.64
1308.99	2036.77
1310.52	2034.23
1312.05	2066.13
1313.58	2114.54
1315.11	2130.01
1316.64	2162.18
1318.17	2190.7
1319.69	2227.75
1321.22	2252.79
1322.75	2235.07
1324.28	2265.84
1325.81	2272.7
1327.34	2253.48
1328.87	2353.35
1330.4	2339.5
1331.92	2339.91
1333.45	2325.68
1334.98	2361.87
1336.51	2391.35
1338.04	2393.43
1339.57	2380.81
1341.1	2353.46
1342.63	2346.17
1344.15	2331.79
1345.68	2350.55
1347.21	2368.43
1348.74	2320.96
1350.27	2319.52
1351.8	2288.24
1353.33	2305.12
1354.86	2280.8
1356.38	2229.12
1357.91	2218.89
1359.44	2210.19
1360.97	2199.31
1362.5	2145.45
1364.03	2112.74
1365.56	2132.21
1367.09	2091.87
1368.62	2062.91
1370.14	2041.59
1371.67	2012.66
1373.2	1974.53
1374.73	1939.42
1376.26	1944.6
1377.79	1926.84
1379.32	1862.2
1380.85	1879.9
1382.37	1839.7
1383.9	1810.39
1385.43	1773.12
1386.96	1767.5
1388.49	1763.22
1390.02	1715.88
1391.55	1705.32
1393.08	1700.39
1394.6	1689.2
1396.13	1667.28
1397.66	1672.57
1399.19	1629.6
1400.72	1634.16
1402.25	1585.25
1403.78	1555.11
1405.31	1576.45
1406.83	1533.15
1408.36	1529.92
1409.89	1494.48
1411.42	1517.78
1412.95	1479.05
1414.48	1482.27
1416.01	1463.8
1417.54	1450.05
1419.06	1424.5
1420.59	1459.84
1422.12	1429.29
1423.65	1424.01
1425.18	1399.42
1426.71	1438.93
1428.24	1378.04
1429.77	1389.53
1431.29	1378.44
1432.82	1362.69
1434.35	1360.57
1435.88	1366.5
1437.41	1368.33
1438.94	1358.46
1440.47	1339.11
1442	1349.23
1443.53	1349.26
1445.05	1340.5
1446.58	1324.83
1448.11	1333.19
1449.64	1326.86
1451.17	1309.58
1452.7	1320.2
1454.23	1318.3
1455.76	1331.89
1457.28	1327.77
1458.81	1321.01
1460.34	1315.27
1461.87	1309.17
1463.4	1298.92
1464.93	1308.64
1466.46	1322.15
1467.99	1284.65
1469.51	1304.6
1471.04	1314.76
1472.57	1302.06
1474.1	1337.28
1475.63	1299.72
1477.16	1309.43
1478.69	1309.83
1480.22	1313.56
1481.74	1305.22
1483.27	1286.3
1484.8	1308.64
1486.33	1299.15
1487.86	1314.11
1489.39	1317.69
1490.92	1333.98
1492.45	1305
1493.97	1335.9
1495.5	1310.48
1497.03	1280.07
1498.56	1317.61
1500.09	1303.25
1501.62	1341.15
1503.15	1320.32
1504.68	1334.43
1506.21	1317.03
1507.73	1336.89
1509.26	1304.56
1510.79	1338.71
1512.32	1316.33
1513.85	1345.26
1515.38	1364.9
1516.91	1342.72
1518.44	1374.59
1519.96	1368.25
1521.49	1402.08
1523.02	1394.98
1524.55	1398.25
1526.08	1397.96
1527.61	1422.54
1529.14	1397.04
1530.67	1429.71
1532.19	1426.59
1533.72	1441.97
1535.25	1466.07
1536.78	1496.55
1538.31	1510.21
1539.84	1507.28
1541.37	1531.54
1542.9	1539.6
1544.42	1555.3
1545.95	1556.04
1547.48	1594.23
1549.01	1632.01
1550.54	1665.09
1552.07	1704.75
1553.6	1690.62
1555.13	1746.73
1556.65	1736.55
1558.18	1771.45
1559.71	1803.59
1561.24	1828.38
1562.77	1862.65
1564.3	1875.78
1565.83	1948.32
1567.36	1966.73
1568.88	1969.26
1570.41	2055.01
1571.94	2069.28
1573.47	2104.33
1575	2138.16
1576.53	2170.49
1578.06	2183.51
1579.59	2199.33
1581.12	2266.6
1582.64	2266.51
1584.17	2275.76
1585.7	2308.07
1587.23	2305.52
1588.76	2307.22
1590.29	2312.6
1591.82	2317.28
1593.35	2335.25
1594.87	2327.1
1596.4	2298.67
1597.93	2291.22
1599.46	2261.54
1600.99	2242.96
1602.52	2233.47
1604.05	2170.45
1605.58	2174.39
1607.1	2115.39
1608.63	2052.91
1610.16	2014.7
1611.69	1973.22
1613.22	1896.36
1614.75	1833.53
1616.28	1791.6
1617.81	1726.11
1619.33	1653.6
1620.86	1601.49
1622.39	1543.28
1623.92	1467.18
1625.45	1433.5
1626.98	1380.2
1628.51	1347.05
1630.04	1312.11
1631.56	1245.77
1633.09	1182.83
1634.62	1153.69
1636.15	1113.11
1637.68	1071.32
1639.21	1041.96
1640.74	998.089
1642.27	979.585
1643.79	942.167
1645.32	909.954
1646.85	882.52
1648.38	851.632
1649.91	821.366
1651.44	805.939
1652.97	767.154
1654.5	755.306
1656.03	720.869
1657.55	707.544
1659.08	685.526
1660.61	651.008
1662.14	631.268
1663.67	625.262
1665.2	595.633
1666.73	611.253
1668.26	588.54
1669.78	545.774
1671.31	530.973
1672.84	522.698
1674.37	519.535
1675.9	497.215
1677.43	532.793
1678.96	636.732
1680.49	469.926
1682.01	458.954
1683.54	454.914
1685.07	437.998
1686.6	430.254
1688.13	428.359
1689.66	423.566
1691.19	420.469
1692.72	397.737
1694.24	398.613
1695.77	399.941
1697.3	389.169
1698.83	393.164
1700.36	384.568
1701.89	374.013
1703.42	374.053
1704.95	379.448
1706.47	367.49
1708	362.628
1709.53	362.806
1711.06	358.166
1712.59	352.539
1714.12	355.145
1715.65	353.6
1717.18	349.285
1718.71	342.097
1720.23	343.984
1721.76	339.187
1723.29	338.079
1724.82	337.522
1726.35	321.776
1727.88	316.511
1729.41	332.678
1730.94	322.251
1732.46	320.392
1733.99	322.561
1735.52	316.858
1737.05	325.558
1738.58	313.027
1740.11	307.809
1741.64	319.638
1743.17	314.684
1744.69	320.478
1746.22	307.492
1747.75	300.419
1749.28	306.739
1750.81	307.053
1752.34	308.677
1753.87	306.404
1755.4	312.453
1756.92	300.941
1758.45	317.505
1759.98	301.035
1761.51	293.374
1763.04	303.556
1764.57	294.648
1766.1	300.763
1767.63	301.349
1769.15	294.364
1770.68	299.116
1772.21	301.511
1773.74	301.853
1775.27	285.722
1776.8	303.846
1778.33	290.781
1779.86	287.148
1781.38	295.949
1782.91	285.347
1784.44	287.808
1785.97	300.689
1787.5	294.717
1789.03	294.341
1790.56	289.944
1792.09	285.379
1793.62	292.178
1795.14	292.239
1796.67	284.274
1798.2	286.63
1799.73	289.011
1801.26	285.053
1802.79	278.437
1804.32	274.708
1805.85	285.628
1807.37	285.816
1808.9	286.441
1810.43	274.265
1811.96	288.449
1813.49	293.218
1815.02	277.355
1816.55	282.269
1818.08	286.218
1819.6	290.751
1821.13	290.358
1822.66	279.568
1824.19	288.925
1825.72	276.054
1827.25	282.326
1828.78	268.75
1830.31	279.944
1831.83	281.129
1833.36	270.973
1834.89	278.913
1836.42	278.842
1837.95	275.963
1839.48	276.643
1841.01	277.813
1842.54	283.515
1844.06	272.119
1845.59	276.404
1847.12	262.887
1848.65	276.269
1850.18	280.944
1851.71	278.961
1853.24	270.089
1854.77	264.635
1856.29	282.06
1857.82	279.306
1859.35	283.197
1860.88	275.05
1862.41	272.96
1863.94	274.69
1865.47	273.98
1867	255.243
1868.53	268.492
1870.05	284.198
1871.58	263.348
1873.11	275.821
1874.64	271.644
1876.17	264.568
1877.7	278.77
1879.23	278.548
1880.76	272.501
1882.28	263.32
1883.81	264.979
1885.34	264.641
1886.87	263.628
1888.4	270.709
1889.93	273.809
1891.46	277.825
1892.99	263.533
1894.51	263.293
1896.04	258.189
1897.57	260.546
1899.1	266.789
1900.63	269.143
1902.16	265.55
1903.69	264.187
1905.22	266.417
1906.74	265.346
1908.27	266.466
1909.8	262.101
1911.33	259.078
1912.86	277.492
1914.39	271.691
1915.92	259.722
1917.45	267.512
1918.97	271.437
1920.5	260.473
1922.03	260.294
1923.56	262.301
1925.09	260.907
1926.62	268.505
1928.15	262.213
1929.68	265.653
1931.21	273.176
1932.73	257.688
1934.26	265.677
1935.79	262.53
1937.32	264.157
1938.85	262.833
1940.38	265.989
1941.91	267.071
1943.44	271.632
1944.96	265.504
1946.49	261.936
1948.02	259.747
1949.55	256.953
1951.08	265.982
1952.61	264.862
1954.14	253.949
1955.67	262.509
1957.19	261.864
1958.72	258.377
1960.25	270.925
1961.78	261.171
1963.31	261.485
1964.84	268.861
1966.37	269.748
1967.9	263.291
1969.42	269.474
1970.95	272.411
1972.48	260.122
1974.01	263.97
1975.54	271.3
1977.07	261.954
1978.6	274.295
1980.13	257.972
1981.65	266.047
1983.18	258.226
1984.71	260.885
1986.24	255.784
1987.77	259.384
1989.3	257.683
1990.83	247.91
1992.36	270.739
1993.88	280.29
1995.41	258.392
1996.94	270.031
1998.47	260.971
2000	270.403