File: Example Data/Raman/CNT - TIM/Raytheon/Microwave/Test 2 - From Anu/LPCVD-Tc-700 - 5min - C_Micro-5min - _2.txt
200	324.591
201.488	322.24
202.977	358.897
204.465	1333.8
205.954	1022.89
207.442	337.671
208.931	351.062
210.419	350.915
211.908	339.572
213.396	351.39
214.885	336.362
216.373	333.629
217.862	338.758
219.35	333.063
220.839	336.46
222.327	347.211
223.816	345.318
225.304	342.565
226.793	349.043
228.281	362.539
229.77	335.267
231.258	346.5
232.747	351.567
234.235	329.536
235.724	349.921
237.212	330.747
238.701	343.485
240.189	338.419
241.678	342.844
243.166	346.093
244.655	336.52
246.143	348.414
247.632	339.55
249.12	344.614
250.609	348.296
252.097	347.518
253.586	337.821
255.074	335.776
256.563	341.077
258.051	335.413
259.54	333.896
261.028	341.024
262.517	358.12
264.005	339.704
265.494	346.586
266.982	346.67
268.471	330.925
269.959	327.663
271.448	326.56
272.936	330.082
274.425	338.03
275.913	329.513
277.402	324.484
278.89	337.264
280.379	317.441
281.867	322.524
283.356	329.248
284.844	323.481
286.333	328.852
287.821	331.216
289.31	319.282
290.798	312.093
292.287	317.947
293.775	322.759
295.264	316.279
296.752	315.689
298.241	311.07
299.729	320.085
301.218	328.473
302.706	318.242
304.195	320.285
305.683	1198.51
307.172	1814.99
308.66	351.842
310.149	313.269
311.637	307.998
313.126	306.708
314.614	310.27
316.103	306.533
317.591	308.997
319.08	317.774
320.568	299.544
322.057	305.959
323.545	308.946
325.034	310.317
326.522	307.399
328.011	305.305
329.499	302.075
330.988	310.022
332.476	310.697
333.965	284.335
335.453	302.84
336.942	305.692
338.43	885.989
339.919	296.561
341.407	306.495
342.896	287.91
344.384	293.315
345.873	294.326
347.361	306.527
348.85	290.015
350.338	299.127
351.827	309.291
353.315	299.07
354.804	302.05
356.292	297.209
357.781	300.551
359.269	287.211
360.758	294.606
362.246	282.179
363.735	287.109
365.223	284.136
366.712	286.631
368.2	296.979
369.689	279.39
371.177	287.861
372.666	280.106
374.154	265.366
375.643	280.994
377.131	278.022
378.62	283.029
380.108	292.386
381.597	280.716
383.085	279.248
384.574	288.033
386.062	284.61
387.551	273.845
389.039	270.845
390.528	274.057
392.016	269.222
393.505	280.815
394.993	268.347
396.482	278.75
397.97	279.12
399.459	286.429
400.947	270.502
402.436	279.142
403.924	275.082
405.413	270.155
406.901	277.651
408.39	269.823
409.878	277.289
411.367	267.434
412.855	273.124
414.344	263.013
415.832	282.248
417.321	280.869
418.809	284.101
420.298	274.241
421.786	276.779
423.275	273.193
424.763	281.464
426.252	279.242
427.74	270.673
429.229	257.247
430.717	265.297
432.206	275.666
433.694	269.398
435.183	257.891
436.671	273.922
438.16	259.045
439.648	267.666
441.137	257.189
442.625	269.14
444.114	269.696
445.602	253.828
447.091	267.324
448.579	254.588
450.068	265.587
451.556	260.259
453.045	258.69
454.533	264.287
456.022	255.971
457.51	254.129
458.999	247.995
460.487	258.681
461.976	261.349
463.464	254
464.953	248.137
466.441	257.595
467.93	249.726
469.418	259.378
470.907	255.173
472.395	256.558
473.884	258.928
475.372	244.134
476.861	250.039
478.349	260.719
479.838	259.074
481.326	252.756
482.815	231.377
484.303	235.894
485.792	230.643
487.28	234.591
488.769	234.449
490.257	243.601
491.746	235.493
493.234	225.82
494.723	229.185
496.211	220.43
497.7	242.041
499.188	231.001
500.677	238.443
502.165	231.467
503.654	229.974
505.142	234.386
506.631	234.391
508.119	225.099
509.608	234.393
511.096	222.339
512.585	233.307
514.073	213.62
515.562	225.277
517.05	221.079
518.539	218.998
520.027	230.568
521.516	224.657
523.004	227.142
524.493	226.314
525.981	219.03
527.47	220.647
528.958	225.39
530.447	237.679
531.935	223.351
533.424	228.01
534.912	227.05
536.401	222.551
537.889	225.079
539.378	232.594
540.866	229.931
542.355	221.945
543.843	225.698
545.332	233.01
546.82	225.53
548.309	231.302
549.797	224.246
551.286	225.871
552.774	227.673
554.263	229.008
555.751	236.126
557.24	223.816
558.728	229.587
560.216	221.171
561.705	234.712
563.193	225.35
564.682	221.872
566.17	225.844
567.659	228.309
569.148	224.93
570.636	230.575
572.125	233.032
573.613	229.54
575.102	234.454
576.59	242.167
578.078	236.601
579.567	233.574
581.055	234.312
582.544	234.313
584.032	236.683
585.521	238.839
587.009	237.877
588.498	241.739
589.986	238.71
591.475	236.899
592.963	235.797
594.452	244.166
595.94	246.774
597.429	244.544
598.917	240.554
600.406	224.145
601.894	250.683
603.383	238.16
604.871	239.642
606.36	241.4
607.848	242.087
609.337	236.423
610.825	237.725
612.314	248.971
613.802	230.037
615.291	226.504
616.779	245.226
618.268	237.716
619.756	239.721
621.245	248.474
622.733	231.918
624.222	240.768
625.71	248.613
627.199	248.396
628.687	245.697
630.176	244.649
631.664	240.677
633.153	233.727
634.641	242.938
636.13	239.963
637.618	248.575
639.107	255.031
640.595	245.06
642.084	244.602
643.572	252.448
645.061	244.989
646.549	260.193
648.038	248.128
649.526	260.61
651.015	250.573
652.503	261.468
653.992	247.389
655.48	252.774
656.969	254.439
658.457	260.443
659.946	243
661.434	253.137
662.923	249.7
664.411	251.331
665.9	255.856
667.388	260.243
668.877	260.691
670.365	263.13
671.854	249.425
673.342	254.44
674.831	250.001
676.319	260.191
677.808	252.73
679.296	260.056
680.785	250.845
682.273	255.401
683.762	248.308
685.25	250.01
686.739	250.464
688.227	257.477
689.716	248.373
691.204	244.941
692.693	260.617
694.181	246.786
695.67	262.375
697.158	254.673
698.647	262.363
700.135	259.484
701.624	270.869
703.112	254.563
704.601	264.164
706.089	257.958
707.578	272.283
709.066	255.685
710.555	261.2
712.043	262.707
713.532	260.069
715.02	270.518
716.509	259.697
717.997	265.572
719.486	262.424
720.974	266.16
722.463	265.655
723.951	283.33
725.44	272.68
726.928	279.237
728.417	269.366
729.905	270.654
731.394	267.22
732.882	281.5
734.371	281.083
735.859	269.631
737.348	286.084
738.836	277.956
740.325	281.868
741.813	279.993
743.302	285.881
744.79	284.062
746.279	284.702
747.767	297.792
749.256	282.75
750.744	280.913
752.233	290.831
753.721	292.293
755.21	284.872
756.698	294.989
758.187	291.59
759.675	284.486
761.164	294.415
762.652	292.412
764.141	287.79
765.629	285.232
767.118	295.376
768.606	281.589
770.095	292.91
771.583	296.951
773.072	301.975
774.56	303.659
776.049	306.234
777.537	293.759
779.026	291.365
780.514	292.339
782.003	299.417
783.491	300.407
784.98	307.794
786.468	307.586
787.957	309.09
789.445	295.631
790.934	314.462
792.422	312.15
793.911	304.844
795.399	308.806
796.888	317.153
798.376	309.602
799.865	316.553
801.353	306.108
802.842	318.668
804.33	322.378
805.819	307.686
807.307	314.821
808.796	310.044
810.284	316.158
811.773	329.524
813.261	314.288
814.75	328.375
816.238	315.846
817.727	313.827
819.215	325.08
820.704	312.275
822.192	320.887
823.681	324.989
825.169	333.47
826.658	321.516
828.146	326.801
829.635	319.375
831.123	326.404
832.612	318.558
834.1	327.982
835.589	328.954
837.077	328.57
838.566	324.549
840.054	327.215
841.543	335.603
843.031	334.531
844.52	334.092
846.008	323.75
847.497	344.465
848.985	338.68
850.474	331.684
851.962	326.611
853.451	336.186
854.939	324.486
856.428	335.354
857.916	323.923
859.405	326.733
860.893	310.942
862.382	305.908
863.87	320.307
865.359	305.187
866.847	316.655
868.336	318.313
869.824	300.245
871.313	293.538
872.801	316.568
874.29	306.228
875.778	309.456
877.267	294.614
878.755	297.249
880.244	293.363
881.732	304.405
883.221	279.314
884.709	291.499
886.198	293.345
887.686	302.688
889.175	286.847
890.663	278.613
892.152	282.212
893.64	288.616
895.129	290.508
896.617	298.245
898.106	296.774
899.594	283.661
901.083	286.258
902.571	273.637
904.06	283.553
905.548	290.09
907.037	286.113
908.525	290.128
910.014	266.048
911.502	283.026
912.991	277.293
914.479	271.55
915.968	279.246
917.456	285.466
918.945	281.213
920.433	293.186
921.922	271.477
923.41	273.062
924.898	278.619
926.387	272.765
927.875	274.856
929.364	274.081
930.852	273.749
932.341	276.613
933.83	271.284
935.318	262.617
936.807	276.368
938.295	273.071
939.784	274.413
941.272	282.359
942.76	273.325
944.249	288.588
945.737	274.792
947.226	268.219
948.714	272.462
950.203	282.991
951.691	282.71
953.18	272.831
954.668	284.047
956.157	286.422
957.645	280.347
959.134	285
960.622	287.511
962.111	278.881
963.599	283.038
965.088	286.924
966.576	279.847
968.065	274.889
969.553	287.244
971.042	282.45
972.53	286.346
974.019	300.263
975.507	292.662
976.996	283.478
978.484	296.98
979.973	289.088
981.461	289.673
982.95	286.273
984.438	289.607
985.927	295.246
987.415	310.198
988.904	303.573
990.392	299.622
991.881	308.315
993.369	306.643
994.858	316.075
996.346	307.508
997.835	316.072
999.323	311.957
1000.81	317.022
1002.3	313.446
1003.79	323.724
1005.28	319.956
1006.77	324.989
1008.25	324.988
1009.74	327.441
1011.23	330.56
1012.72	333.31
1014.21	337.455
1015.7	335.924
1017.19	344.806
1018.67	341.243
1020.16	341.632
1021.65	333.93
1023.14	345.077
1024.63	350.472
1026.12	352.902
1027.6	353.535
1029.09	357.901
1030.58	363.494
1032.07	381.159
1033.56	366.333
1035.05	370.399
1036.54	372.383
1038.02	372.401
1039.51	364.043
1041	368.739
1042.49	372.446
1043.98	356.09
1045.47	366.338
1046.96	372.085
1048.44	374.692
1049.93	384.27
1051.42	388.965
1052.91	382.152
1054.4	382.473
1055.89	383.456
1057.37	392.487
1058.86	384.219
1060.35	386.719
1061.84	389.119
1063.33	386.094
1064.82	382.809
1066.31	390.417
1067.79	408.334
1069.28	395.232
1070.77	404.344
1072.26	398.513
1073.75	384.461
1075.24	403.463
1076.73	399.068
1078.21	392.345
1079.7	415.223
1081.19	411.938
1082.68	412.025
1084.17	417.981
1085.66	421.366
1087.14	414.062
1088.63	420.775
1090.12	416.708
1091.61	423.534
1093.1	435.842
1094.59	419.674
1096.08	442.904
1097.56	447.916
1099.05	447.266
1100.54	448.205
1102.03	451.87
1103.52	448.355
1105.01	453.175
1106.5	446.891
1107.98	454.287
1109.47	457.167
1110.96	450.456
1112.45	449.514
1113.94	472.053
1115.43	471.461
1116.91	462.369
1118.4	466.304
1119.89	453.534
1121.38	478.59
1122.87	482.83
1124.36	487.577
1125.85	477.92
1127.33	483.601
1128.82	481.454
1130.31	504.854
1131.8	509.647
1133.29	488.036
1134.78	495.063
1136.27	482.325
1137.75	505.938
1139.24	506.239
1140.73	509.136
1142.22	515.919
1143.71	515.889
1145.2	528.812
1146.68	521.235
1148.17	540.171
1149.66	531.197
1151.15	530.507
1152.64	544.307
1154.13	543.826
1155.62	535.387
1157.1	545.622
1158.59	563.388
1160.08	551.462
1161.57	562.576
1163.06	550.138
1164.55	550.777
1166.04	559.348
1167.52	574.358
1169.01	561.68
1170.5	545.159
1171.99	569.834
1173.48	569.24
1174.97	606.18
1176.45	588.396
1177.94	583.677
1179.43	596.085
1180.92	584.532
1182.41	587.506
1183.9	601.558
1185.39	591.277
1186.87	605.337
1188.36	617.35
1189.85	597.735
1191.34	614.014
1192.83	611.285
1194.32	614.474
1195.81	629.588
1197.29	610.375
1198.78	635.615
1200.27	629.825
1201.76	640.058
1203.25	634.416
1204.74	651.288
1206.22	640.895
1207.71	643.576
1209.2	639.686
1210.69	652.309
1212.18	642.302
1213.67	649.971
1215.16	660.742
1216.64	669.288
1218.13	696.212
1219.62	682.313
1221.11	694.51
1222.6	689.201
1224.09	715.684
1225.58	699.604
1227.06	721.404
1228.55	720.31
1230.04	715.652
1231.53	730.118
1233.02	736.894
1234.51	738.089
1235.99	746.684
1237.48	768.415
1238.97	764.562
1240.46	770.64
1241.95	794.945
1243.44	782.31
1244.93	806.818
1246.41	813.487
1247.9	799.52
1249.39	810.881
1250.88	834.606
1252.37	829.979
1253.86	835.166
1255.35	848.637
1256.83	854.692
1258.32	877.763
1259.81	886.758
1261.3	915.231
1262.79	910.355
1264.28	936.12
1265.76	944.64
1267.25	942.529
1268.74	956.966
1270.23	975.151
1271.72	980.943
1273.21	991.112
1274.7	1017.88
1276.18	1024.45
1277.67	1026.83
1279.16	1070.15
1280.65	1077.7
1282.14	1114.71
1283.63	1117.06
1285.11	1137.84
1286.6	1136.4
1288.09	1171.56
1289.58	1202.03
1291.07	1189.83
1292.56	1210.71
1294.05	1216.97
1295.53	1264.56
1297.02	1304.93
1298.51	1298.65
1300	1325.89
1301.49	1333.39
1302.98	1394.24
1304.47	1382.29
1305.95	1417.82
1307.44	1464.57
1308.93	1484.26
1310.42	1504.77
1311.91	1536.32
1313.4	1571.25
1314.89	1603.65
1316.37	1656.77
1317.86	1683.85
1319.35	1659.76
1320.84	1718.12
1322.33	1738.35
1323.82	1705.8
1325.3	1735.12
1326.79	1791.19
1328.28	1818.58
1329.77	1843.36
1331.26	1835.4
1332.75	1849.57
1334.24	1863.77
1335.72	1863.95
1337.21	1870.86
1338.7	1870.72
1340.19	1834.16
1341.68	1852.63
1343.17	1891.71
1344.65	1845.87
1346.14	1845.5
1347.63	1826.1
1349.12	1819.63
1350.61	1804.11
1352.1	1735.29
1353.59	1743.07
1355.07	1746.17
1356.56	1725.4
1358.05	1703.42
1359.54	1664.3
1361.03	1634.4
1362.52	1590.4
1364.01	1590.44
1365.49	1572.9
1366.98	1525.57
1368.47	1507.85
1369.96	1511.1
1371.45	1439.74
1372.94	1450.83
1374.42	1437.26
1375.91	1408.07
1377.4	1395.53
1378.89	1353.71
1380.38	1348
1381.87	1298.07
1383.36	1302.09
1384.84	1273.89
1386.33	1259.77
1387.82	1238.96
1389.31	1234.13
1390.8	1226.83
1392.29	1190.9
1393.78	1164.62
1395.26	1157.96
1396.75	1145.42
1398.24	1118.85
1399.73	1139.18
1401.22	1100.73
1402.71	1098.49
1404.19	1070.8
1405.68	1100.17
1407.17	1065.64
1408.66	1049.05
1410.15	1057.17
1411.64	1025.32
1413.13	1018.08
1414.61	1020.76
1416.1	1016.67
1417.59	990.36
1419.08	990.168
1420.57	991.268
1422.06	981.137
1423.55	966.771
1425.03	965.473
1426.52	970.802
1428.01	947.127
1429.5	951.809
1430.99	964.473
1432.48	940.063
1433.96	947.055
1435.45	926.216
1436.94	931.718
1438.43	940.935
1439.92	934.646
1441.41	914.267
1442.9	917.497
1444.38	924.981
1445.87	913.445
1447.36	903.046
1448.85	900.818
1450.34	897.467
1451.83	902.32
1453.32	887.835
1454.8	908.393
1456.29	921.921
1457.78	882.784
1459.27	903.36
1460.76	891.315
1462.25	902.722
1463.73	908.965
1465.22	885.38
1466.71	915.361
1468.2	894.302
1469.69	908.73
1471.18	891.78
1472.67	896.622
1474.15	907.814
1475.64	881.321
1477.13	902.361
1478.62	907.66
1480.11	891.005
1481.6	915.58
1483.09	891.044
1484.57	892.749
1486.06	897.149
1487.55	913.656
1489.04	891.982
1490.53	891.34
1492.02	941.971
1493.5	893.509
1494.99	916.88
1496.48	927.025
1497.97	910.203
1499.46	888.407
1500.95	912.022
1502.44	922.983
1503.92	907.286
1505.41	915.64
1506.9	912.987
1508.39	908.279
1509.88	904.091
1511.37	935.031
1512.86	934.054
1514.34	927.13
1515.83	916.143
1517.32	942.381
1518.81	951.202
1520.3	945.92
1521.79	960.683
1523.27	964.553
1524.76	965.682
1526.25	993.203
1527.74	1021.33
1529.23	984.629
1530.72	986.979
1532.21	1019.85
1533.69	1045.77
1535.18	1034.34
1536.67	1046.31
1538.16	1046.92
1539.65	1083.69
1541.14	1099.62
1542.63	1096.9
1544.11	1114.01
1545.6	1136.77
1547.09	1165.33
1548.58	1177.52
1550.07	1233.78
1551.56	1230.87
1553.04	1259.67
1554.53	1304.29
1556.02	1275.4
1557.51	1326.26
1559	1330.69
1560.49	1362.36
1561.98	1382.07
1563.46	1412.35
1564.95	1460.46
1566.44	1483.29
1567.93	1489
1569.42	1518.98
1570.91	1567.54
1572.4	1583.19
1573.88	1596.39
1575.37	1613.27
1576.86	1636.9
1578.35	1654.43
1579.84	1658.15
1581.33	1705.35
1582.81	1699.09
1584.3	1679.71
1585.79	1704.91
1587.28	1733.03
1588.77	1714.26
1590.26	1708.03
1591.75	1733.64
1593.23	1717.46
1594.72	1723.97
1596.21	1691.45
1597.7	1704.36
1599.19	1710.92
1600.68	1656.61
1602.17	1640.73
1603.65	1625.42
1605.14	1608.77
1606.63	1574.79
1608.12	1515.96
1609.61	1491.73
1611.1	1475.54
1612.58	1417.18
1614.07	1364.17
1615.56	1348.27
1617.05	1316.07
1618.54	1270.48
1620.03	1210.18
1621.52	1169.3
1623	1116.77
1624.49	1079.61
1625.98	1040.51
1627.47	993.469
1628.96	971.444
1630.45	927.614
1631.94	889.08
1633.42	862.879
1634.91	835.604
1636.4	834.154
1637.89	773.508
1639.38	746.945
1640.87	738.062
1642.35	687.328
1643.84	666.556
1645.33	659.711
1646.82	613.547
1648.31	587.768
1649.8	605.777
1651.29	577.071
1652.77	548.79
1654.26	525.991
1655.75	510.015
1657.24	483.1
1658.73	482.843
1660.22	475.134
1661.7	461.04
1663.19	432.942
1664.68	409.93
1666.17	417.15
1667.66	408.097
1669.15	396.667
1670.64	393.467
1672.12	375.116
1673.61	368.491
1675.1	360.857
1676.59	353.372
1678.08	352.368
1679.57	334.654
1681.06	331.57
1682.54	324.652
1684.03	325.556
1685.52	307.567
1687.01	307.035
1688.5	302.144
1689.99	301.798
1691.47	299.579
1692.96	290.626
1694.45	292.964
1695.94	287.279
1697.43	278.733
1698.92	282.103
1700.41	274.83
1701.89	278.121
1703.38	268.352
1704.87	266.888
1706.36	264.556
1707.85	261.284
1709.34	257.113
1710.83	248.039
1712.31	251.962
1713.8	256.569
1715.29	240.99
1716.78	249.733
1718.27	245.279
1719.76	247.575
1721.24	248.52
1722.73	239.914
1724.22	243.394
1725.71	238.507
1727.2	234.481
1728.69	223.246
1730.18	232.359
1731.66	233.736
1733.15	228.384
1734.64	224.365
1736.13	227.925
1737.62	232.041
1739.11	225.336
1740.6	223.399
1742.08	223.39
1743.57	222.356
1745.06	210.583
1746.55	222.667
1748.04	220.425
1749.53	211.442
1751.01	214.137
1752.5	231.44
1753.99	218.255
1755.48	216.257
1756.97	213.006
1758.46	214.057
1759.95	220.826
1761.43	220.997
1762.92	209.099
1764.41	208.587
1765.9	213.584
1767.39	219.835
1768.88	209.35
1770.37	211.844
1771.85	205.617
1773.34	217.676
1774.83	211.752
1776.32	215.267
1777.81	205.429
1779.3	215.023
1780.78	214.93
1782.27	202.281
1783.76	203.088
1785.25	209.213
1786.74	207.764
1788.23	207.509
1789.72	198.363
1791.2	201.03
1792.69	206.95
1794.18	204.021
1795.67	215.889
1797.16	196.984
1798.65	201.583
1800.14	199.162
1801.62	214.163
1803.11	200.22
1804.6	195.924
1806.09	197.833
1807.58	195.23
1809.07	197.542
1810.55	207.591
1812.04	193.578
1813.53	185.334
1815.02	201.537
1816.51	197.892
1818	194.821
1819.49	198.15
1820.97	191.159
1822.46	205.995
1823.95	199.575
1825.44	207.959
1826.93	192.941
1828.42	197.238
1829.91	199.654
1831.39	192.357
1832.88	207.336
1834.37	196.322
1835.86	196
1837.35	191.199
1838.84	197.891
1840.32	196.8
1841.81	196.465
1843.3	190.192
1844.79	202.902
1846.28	183.222
1847.77	189.612
1849.26	197.147
1850.74	203.048
1852.23	189.077
1853.72	196.623
1855.21	203.847
1856.7	190.755
1858.19	200.507
1859.68	188.71
1861.16	194.567
1862.65	183.491
1864.14	187.071
1865.63	193.053
1867.12	203.477
1868.61	187.593
1870.09	197.619
1871.58	186.622
1873.07	197.866
1874.56	191.989
1876.05	197.364
1877.54	198.12
1879.03	188.3
1880.51	189.213
1882	189.468
1883.49	194.273
1884.98	192.348
1886.47	191.053
1887.96	194.568
1889.45	196.499
1890.93	184.767
1892.42	202.518
1893.91	192.867
1895.4	191.991
1896.89	190.177
1898.38	196.817
1899.86	193.662
1901.35	195.992
1902.84	184.26
1904.33	192.545
1905.82	183.976
1907.31	187.056
1908.8	193.354
1910.28	189.017
1911.77	189.937
1913.26	188.834
1914.75	193.105
1916.24	180.88
1917.73	186.665
1919.22	188.545
1920.7	190.379
1922.19	191.177
1923.68	192.668
1925.17	191.315
1926.66	182.033
1928.15	182.725
1929.63	185.415
1931.12	195.445
1932.61	179.827
1934.1	189.354
1935.59	192.843
1937.08	181.686
1938.57	195.702
1940.05	188.617
1941.54	182.454
1943.03	198.633
1944.52	194.686
1946.01	187.869
1947.5	181.01
1948.99	187.791
1950.47	182.122
1951.96	187.729
1953.45	185.923
1954.94	187.476
1956.43	192.761
1957.92	185.656
1959.4	171.729
1960.89	185.804
1962.38	190.541
1963.87	187.511
1965.36	194.62
1966.85	188.769
1968.34	182.252
1969.82	187.724
1971.31	190.634
1972.8	187.742
1974.29	186.286
1975.78	185.713
1977.27	174.105
1978.76	189.944
1980.24	188.876
1981.73	186.104
1983.22	184.479
1984.71	183.128
1986.2	183.468
1987.69	191.344
1989.17	190.773
1990.66	180.915
1992.15	190.903
1993.64	190.307
1995.13	196.516
1996.62	194.533
1998.11	181.098
1999.59	186.578
2001.08	193.386
2002.57	193.406
2004.06	184.563
2005.55	188.178
2007.04	190.97
2008.53	178.345
2010.01	194.24
2011.5	188.606
2012.99	187.864
2014.48	188.908
2015.97	187.824
2017.46	186.813
2018.94	188.124
2020.43	185.68
2021.92	188.744
2023.41	182.391
2024.9	187.898
2026.39	184.268
2027.88	191.201
2029.36	181.076
2030.85	189.344
2032.34	185.409
2033.83	180.825
2035.32	189.54
2036.81	178.021
2038.3	178.5
2039.78	190.532
2041.27	189.403
2042.76	178.543
2044.25	200.245
2045.74	196.532
2047.23	185.018
2048.71	185.288
2050.2	188.547
2051.69	188.376
2053.18	180.419
2054.67	182.568
2056.16	188.685
2057.65	185.543
2059.13	189.981
2060.62	195.008
2062.11	186.299
2063.6	185.61
2065.09	187.007
2066.58	186.501
2068.06	187.726
2069.55	180.19
2071.04	179.911
2072.53	181.474
2074.02	183.772
2075.51	190.469
2077	186.598
2078.48	184.091
2079.97	187.154
2081.46	190.833
2082.95	184.111
2084.44	179.754
2085.93	191.997
2087.42	180.597
2088.9	181.551
2090.39	187.27
2091.88	185.784
2093.37	183.121
2094.86	184.777
2096.35	189.292
2097.83	183.285
2099.32	183.952
2100.81	193.482
2102.3	178.27
2103.79	186.498
2105.28	184.656
2106.77	181.515
2108.25	185.931
2109.74	184.389
2111.23	186.709
2112.72	191.007
2114.21	182.686
2115.7	182.219
2117.19	184.528
2118.67	190.193
2120.16	188.21
2121.65	186.691
2123.14	181.557
2124.63	185.436
2126.12	183.101
2127.6	184.784
2129.09	182.535
2130.58	185.939
2132.07	189.63
2133.56	190.503
2135.05	186.392
2136.54	185.137
2138.02	185.596
2139.51	192.179
2141	184.118
2142.49	194.154
2143.98	182.929
2145.47	182.575
2146.96	180.773
2148.44	186.527
2149.93	186.65
2151.42	185.837
2152.91	192.098
2154.4	190.025
2155.89	184.874
2157.37	186.801
2158.86	186.011
2160.35	190.139
2161.84	179.428
2163.33	189.898
2164.82	188.129
2166.31	187.821
2167.79	189.079
2169.28	191.224
2170.77	189.97
2172.26	181.121
2173.75	181.501
2175.24	184.145
2176.73	188.676
2178.21	195.542
2179.7	187.66
2181.19	181.074
2182.68	188.074
2184.17	194.094
2185.66	183.71
2187.14	190.73
2188.63	187.229
2190.12	189.56
2191.61	190.32
2193.1	186.695
2194.59	187.613
2196.08	191.412
2197.56	194.933
2199.05	183.807
2200.54	191.746
2202.03	192.099
2203.52	195.346
2205.01	196.585
2206.5	196.307
2207.98	191.335
2209.47	191.065
2210.96	180.021
2212.45	187.817
2213.94	194.666
2215.43	187.676
2216.91	187.869
2218.4	195.579
2219.89	192.596
2221.38	190.61
2222.87	185.465
2224.36	195.35
2225.85	187.478
2227.33	191.672
2228.82	187.116
2230.31	193.929
2231.8	192.948
2233.29	188.71
2234.78	183.373
2236.27	194.199
2237.75	203.572
2239.24	370.327
2240.73	180.342
2242.22	199.312
2243.71	194.739
2245.2	197.329
2246.68	194.954
2248.17	198.146
2249.66	198.88
2251.15	193.221
2252.64	193.571
2254.13	196.871
2255.62	190.08
2257.1	198.009
2258.59	208.846
2260.08	182.822
2261.57	194.096
2263.06	196.864
2264.55	202.452
2266.04	200.493
2267.52	201.871
2269.01	194.434
2270.5	199.029
2271.99	195.22
2273.48	205.455
2274.97	205.707
2276.45	197.793
2277.94	191.616
2279.43	192.37
2280.92	195.317
2282.41	204.314
2283.9	197.28
2285.39	200.936
2286.87	196.506
2288.36	202.919
2289.85	203.101
2291.34	206.231
2292.83	205.217
2294.32	196.351
2295.81	197.907
2297.29	203.615
2298.78	204.336
2300.27	203.879
2301.76	203.391
2303.25	211.007
2304.74	204.842
2306.22	202.298
2307.71	201.21
2309.2	211.207
2310.69	204.306
2312.18	209.965
2313.67	205.956
2315.16	203.293
2316.64	203.202
2318.13	205.958
2319.62	197.844
2321.11	216.627
2322.6	223.273
2324.09	221.982
2325.58	252.819
2327.06	296.793
2328.55	301.36
2330.04	240.852
2331.53	203.482
2333.02	211.18
2334.51	204.099
2335.99	207.746
2337.48	210.419
2338.97	208.167
2340.46	207.793
2341.95	208.896
2343.44	213.809
2344.93	213.324
2346.41	206.723
2347.9	209.374
2349.39	199.343
2350.88	208.706
2352.37	214.765
2353.86	207.258
2355.34	211.65
2356.83	214.956
2358.32	215.584
2359.81	211.995
2361.3	209.663
2362.79	218.009
2364.28	218.182
2365.76	215.998
2367.25	213.391
2368.74	220.05
2370.23	207.709
2371.72	207.805
2373.21	220.961
2374.7	219.882
2376.18	213.943
2377.67	216.271
2379.16	223.583
2380.65	218.033
2382.14	219.628
2383.63	222.824
2385.11	224.006
2386.6	231.203
2388.09	223.023
2389.58	222.815
2391.07	216.464
2392.56	219.754
2394.05	228.657
2395.53	227.044
2397.02	236.268
2398.51	220.069
2400	233.505