File: Example Data/Raman/CNT - TIM/Raytheon/Microwave/Test 2 - From Anu/LPCVD-Tc-700 - 5min - C_noMW - top.txt
300	268.132
301.529	263.916
303.058	277.209
304.586	279.225
306.115	273.236
307.644	274.878
309.173	272.4
310.701	274.391
312.23	274.711
313.759	268.511
315.288	270.706
316.817	272.522
318.345	274.429
319.874	282.526
321.403	263.22
322.932	283.445
324.46	279.197
325.989	266.114
327.518	260.32
329.047	277.981
330.576	280.089
332.104	264.659
333.633	278.946
335.162	267.742
336.691	273.02
338.219	278.546
339.748	268.071
341.277	264.223
342.806	271.119
344.335	270.56
345.863	262.221
347.392	265.785
348.921	265.412
350.45	266.996
351.978	261.827
353.507	263.538
355.036	251.942
356.565	254.682
358.094	254.07
359.622	262.87
361.151	249.97
362.68	256.816
364.209	259.301
365.737	268.934
367.266	251.546
368.795	257.651
370.324	255.352
371.853	258.301
373.381	252.907
374.91	259.876
376.439	254.224
377.968	251.406
379.496	248.242
381.025	243.331
382.554	258.543
384.083	256.601
385.612	252.251
387.14	250.108
388.669	255.344
390.198	264.413
391.727	249.466
393.255	251.679
394.784	244.505
396.313	250.81
397.842	254.012
399.371	249.485
400.899	252.072
402.428	253.255
403.957	243.343
405.486	253.623
407.014	248.854
408.543	243.313
410.072	239.968
411.601	246.75
413.129	252.474
414.658	248.788
416.187	250.5
417.716	241.762
419.245	240.707
420.773	243.629
422.302	239.121
423.831	247.128
425.36	235.104
426.888	241.111
428.417	238.839
429.946	247.871
431.475	244.868
433.004	233.193
434.532	247.973
436.061	246.596
437.59	229.682
439.119	243.832
440.647	238.65
442.176	240.924
443.705	235.178
445.234	242.584
446.763	241.56
448.291	231.514
449.82	228.883
451.349	230.201
452.878	241.661
454.406	237.946
455.935	234.833
457.464	230.111
458.993	227.007
460.522	233.933
462.05	225.566
463.579	225.268
465.108	228.03
466.637	229.486
468.165	231.837
469.694	234.371
471.223	230.031
472.752	230.673
474.281	226.147
475.809	230.626
477.338	215.101
478.867	224.953
480.396	225.132
481.924	221.365
483.453	223.8
484.982	225.959
486.511	217.294
488.04	231.392
489.568	212.427
491.097	206.254
492.626	217.045
494.155	211.58
495.683	214.464
497.212	213.731
498.741	209.219
500.27	206.799
501.799	211.27
503.327	221.931
504.856	221.377
506.385	208.053
507.914	203.895
509.442	204.384
510.971	196.152
512.5	204.75
514.029	210.49
515.558	202.487
517.086	215.672
518.615	203.54
520.144	209.845
521.673	201.419
523.201	205.087
524.73	206.874
526.259	210.456
527.788	217.182
529.317	205.186
530.845	199.76
532.374	200.957
533.903	204.901
535.432	205.361
536.96	213.761
538.489	211.797
540.018	210.46
541.547	218.75
543.076	204.411
544.604	219.201
546.133	210.997
547.662	203.306
549.191	207.75
550.719	208.006
552.248	205.497
553.777	211.86
555.306	215.531
556.835	218.611
558.363	205.14
559.892	217.616
561.421	201.188
562.95	210.751
564.478	214.856
566.007	207.677
567.536	213.382
569.065	225.903
570.594	210.121
572.122	212.871
573.651	210.624
575.18	219.08
576.709	212.037
578.237	219.524
579.766	216.021
581.295	224.991
582.824	211.573
584.353	215.927
585.881	209.249
587.41	217.465
588.939	215.293
590.468	222.827
591.996	217.722
593.525	221.046
595.054	202.786
596.583	223.634
598.112	223.115
599.64	230.827
601.169	215.706
602.698	216.178
604.227	230.302
605.755	219.026
607.284	226.731
608.813	220.852
610.342	227.512
611.87	222.19
613.399	229.659
614.928	215.851
616.457	219.498
617.986	223.949
619.514	223.555
621.043	230.323
622.572	223.867
624.101	231.094
625.63	233.912
627.158	219.517
628.687	224.887
630.216	232.906
631.745	228.95
633.273	228.95
634.802	225.872
636.331	230.037
637.86	234.709
639.388	231.18
640.917	229.88
642.446	221.199
643.975	228.786
645.504	222.763
647.032	231.935
648.561	236.271
650.09	233.122
651.619	231.131
653.147	232.603
654.676	237.089
656.205	233.342
657.734	241.03
659.263	233.444
660.791	230.776
662.32	240.479
663.849	240.993
665.378	238.797
666.906	232.749
668.435	232.5
669.964	238.029
671.493	248.494
673.022	239.574
674.55	232.992
676.079	245.98
677.608	239.68
679.137	232.96
680.665	235.603
682.194	235.864
683.723	247.767
685.252	231.824
686.781	250.428
688.309	234.213
689.838	232.954
691.367	248.894
692.896	240.638
694.424	236.512
695.953	231.658
697.482	242.668
699.011	228.601
700.54	241
702.068	242.001
703.597	241.433
705.126	242.868
706.655	243.323
708.183	244.758
709.712	241.707
711.241	250.337
712.77	253.594
714.299	250.971
715.827	245.5
717.356	244.413
718.885	250.683
720.414	254.502
721.942	247.879
723.471	247.72
725	255.411
726.529	250.208
728.058	254.328
729.586	250.339
731.115	260.808
732.644	261.413
734.173	252.967
735.701	259.849
737.23	263.254
738.759	259.144
740.288	257.988
741.817	261.483
743.345	264.201
744.874	259.905
746.403	270.485
747.932	269.737
749.46	274.709
750.989	263.89
752.518	267.571
754.047	261.666
755.576	261.958
757.104	267.942
758.633	269.523
760.162	275.411
761.691	275.16
763.219	273.875
764.748	273.641
766.277	278.719
767.806	286.987
769.335	274.672
770.863	275.761
772.392	283.246
773.921	273.976
775.45	273.493
776.978	276.568
778.507	272.117
780.036	269.32
781.565	266.967
783.094	274.999
784.622	286.952
786.151	284.893
787.68	282.597
789.209	282.869
790.737	289.698
792.266	294.914
793.795	291.135
795.324	292.884
796.853	290.77
798.381	283.706
799.91	288.668
801.439	298.967
802.968	288.604
804.496	284.01
806.025	298.5
807.554	298.263
809.083	300.312
810.612	288.091
812.14	305.38
813.669	290.279
815.198	295.583
816.727	299.126
818.255	299.668
819.784	303.658
821.313	306.647
822.842	306.882
824.37	291.385
825.899	296.136
827.428	291.603
828.957	303.222
830.486	305.387
832.014	302.939
833.543	301.994
835.072	309.722
836.601	311.39
838.13	308.886
839.658	296.703
841.187	316.25
842.716	303.83
844.245	314.414
845.773	307.267
847.302	299.653
848.831	303.129
850.36	301.303
851.888	311.093
853.417	328.136
854.946	305.416
856.475	308.437
858.004	313.545
859.532	299.301
861.061	292.325
862.59	283.374
864.119	295.819
865.647	291.078
867.176	293.477
868.705	293.087
870.234	292.184
871.763	296.362
873.291	287.025
874.82	296.966
876.349	272.07
877.878	288.949
879.406	275.988
880.935	280.123
882.464	281.395
883.993	285.236
885.522	277.911
887.05	270.81
888.579	273.082
890.108	270.756
891.637	262.23
893.165	267.407
894.694	266.163
896.223	279.718
897.752	268.694
899.281	255.533
900.809	274.105
902.338	263.241
903.867	260.446
905.396	255.474
906.924	260.852
908.453	249.197
909.982	266.586
911.511	260.243
913.04	265.894
914.568	252.461
916.097	253.938
917.626	252.612
919.155	252.696
920.683	264.481
922.212	255.326
923.741	261.03
925.27	266.069
926.799	242.077
928.327	256.397
929.856	249.082
931.385	254.639
932.914	242.563
934.442	245.193
935.971	259.192
937.5	256.431
939.029	262.248
940.558	257.803
942.086	256.506
943.615	244.434
945.144	259.276
946.673	262.388
948.201	254.427
949.73	252.798
951.259	263.824
952.788	259.996
954.317	252.007
955.845	258.096
957.374	261.188
958.903	264.347
960.432	263.348
961.96	250.328
963.489	254.705
965.018	258.957
966.547	261.75
968.076	264.525
969.604	255.377
971.133	260.925
972.662	262.15
974.191	267.028
975.719	264.028
977.248	269.752
978.777	264.616
980.306	276.154
981.835	272.625
983.363	274.195
984.892	273.37
986.421	277.894
987.95	283.003
989.478	273.917
991.007	275.281
992.536	294.211
994.065	290.59
995.594	285.785
997.122	286.219
998.651	290.401
1000.18	291.713
1001.71	288.458
1003.24	292.706
1004.77	297.855
1006.29	299.848
1007.82	303.899
1009.35	310.31
1010.88	301.916
1012.41	300.103
1013.94	300.707
1015.47	305.978
1017	312.643
1018.53	309.58
1020.05	321.151
1021.58	307.546
1023.11	327.915
1024.64	323.969
1026.17	333.278
1027.7	317.331
1029.23	324.807
1030.76	326.866
1032.28	337.984
1033.81	325.197
1035.34	351.884
1036.87	330.328
1038.4	340.407
1039.93	341.927
1041.46	346.404
1042.99	340.671
1044.51	341.084
1046.04	354.083
1047.57	369.726
1049.1	349.98
1050.63	353.868
1052.16	365.457
1053.69	376.109
1055.22	363.534
1056.74	354.696
1058.27	369.94
1059.8	370.142
1061.33	376.276
1062.86	363.869
1064.39	366.429
1065.92	365.995
1067.45	365.566
1068.97	385.672
1070.5	372.011
1072.03	382.15
1073.56	387.881
1075.09	375.039
1076.62	386.747
1078.15	388.111
1079.68	394.988
1081.21	400.957
1082.73	386.684
1084.26	390.306
1085.79	391.784
1087.32	400.434
1088.85	402.504
1090.38	404.243
1091.91	407.38
1093.44	408.176
1094.96	411.237
1096.49	407.559
1098.02	425.879
1099.55	423.83
1101.08	417.223
1102.61	415.868
1104.14	431.333
1105.67	436.646
1107.19	444.777
1108.72	434.827
1110.25	435.082
1111.78	439.605
1113.31	446.705
1114.84	450.175
1116.37	455.179
1117.9	453.767
1119.42	457.884
1120.95	453.756
1122.48	468.465
1124.01	472.638
1125.54	480.265
1127.07	486.705
1128.6	475.315
1130.13	476.453
1131.65	490.029
1133.18	512.625
1134.71	491.488
1136.24	514.618
1137.77	514.591
1139.3	517.566
1140.83	515.672
1142.36	536.394
1143.88	536.554
1145.41	525.65
1146.94	544.101
1148.47	554.578
1150	548.524
1151.53	542.413
1153.06	550.455
1154.59	556.548
1156.12	561.055
1157.64	567.948
1159.17	582.921
1160.7	589.51
1162.23	578.119
1163.76	585.959
1165.29	575.59
1166.82	585.061
1168.35	584.619
1169.87	604.81
1171.4	610.651
1172.93	615.662
1174.46	595.145
1175.99	593.413
1177.52	603.515
1179.05	607.469
1180.58	601.006
1182.1	597.009
1183.63	623.884
1185.16	620.438
1186.69	616.764
1188.22	616.964
1189.75	647.682
1191.28	624.162
1192.81	638.062
1194.33	633.929
1195.86	647.658
1197.39	658.9
1198.92	648.125
1200.45	644.686
1201.98	654.271
1203.51	649.62
1205.04	650.761
1206.56	659.406
1208.09	679.296
1209.62	674.281
1211.15	673.839
1212.68	685.323
1214.21	693.643
1215.74	708.166
1217.27	708.825
1218.79	702.612
1220.32	708.621
1221.85	709.787
1223.38	733.573
1224.91	738.133
1226.44	735.184
1227.97	739.499
1229.5	744.435
1231.03	748.766
1232.55	765.395
1234.08	779.703
1235.61	770.491
1237.14	783.015
1238.67	802.919
1240.2	779.874
1241.73	804.053
1243.26	817.107
1244.78	816.234
1246.31	823.949
1247.84	819.448
1249.37	835.901
1250.9	841.411
1252.43	863.09
1253.96	881.95
1255.49	887.32
1257.01	915.27
1258.54	910.047
1260.07	925.79
1261.6	928.042
1263.13	973.672
1264.66	956.339
1266.19	958.414
1267.72	970.894
1269.24	976.077
1270.77	1006.93
1272.3	1001.73
1273.83	1009.87
1275.36	1048.79
1276.89	1057.99
1278.42	1076.86
1279.95	1090.94
1281.47	1078.49
1283	1134.23
1284.53	1133.43
1286.06	1142.62
1287.59	1142.83
1289.12	1180.49
1290.65	1192.51
1292.18	1215.48
1293.71	1239.73
1295.23	1257.69
1296.76	1273.88
1298.29	1302.02
1299.82	1310.84
1301.35	1329.77
1302.88	1356.12
1304.41	1378.1
1305.94	1432.68
1307.46	1401.5
1308.99	1460.79
1310.52	1467.37
1312.05	1462.32
1313.58	1510.42
1315.11	1497.97
1316.64	1541.74
1318.17	1593.59
1319.69	1609.01
1321.22	1582
1322.75	1652.54
1324.28	1631.83
1325.81	1671.98
1327.34	1690.48
1328.87	1691.47
1330.4	1711.34
1331.92	1712.82
1333.45	1696.06
1334.98	1731.77
1336.51	1755.36
1338.04	1756.21
1339.57	1735.47
1341.1	1742.47
1342.63	1730.79
1344.15	1704.78
1345.68	1734.31
1347.21	1742.78
1348.74	1711.25
1350.27	1691.76
1351.8	1700.06
1353.33	1684.95
1354.86	1654.65
1356.38	1657.35
1357.91	1651.91
1359.44	1638.69
1360.97	1626.03
1362.5	1605.33
1364.03	1623.79
1365.56	1564.16
1367.09	1559.38
1368.62	1519.92
1370.14	1519.94
1371.67	1508.74
1373.2	1470.8
1374.73	1420.35
1376.26	1435.34
1377.79	1391.89
1379.32	1375.12
1380.85	1359.96
1382.37	1368.87
1383.9	1344.34
1385.43	1302.66
1386.96	1301.26
1388.49	1281.94
1390.02	1281.52
1391.55	1264.95
1393.08	1218.42
1394.6	1212.3
1396.13	1216.82
1397.66	1197.49
1399.19	1199.34
1400.72	1158.01
1402.25	1145.29
1403.78	1157.18
1405.31	1119.15
1406.83	1116.44
1408.36	1103.41
1409.89	1104.82
1411.42	1081.01
1412.95	1074.56
1414.48	1066.52
1416.01	1034.4
1417.54	1040.08
1419.06	1044.34
1420.59	1017.57
1422.12	1001.35
1423.65	998.084
1425.18	1007.2
1426.71	1018.44
1428.24	1022.1
1429.77	1001.84
1431.29	992.659
1432.82	972.905
1434.35	974.737
1435.88	955.017
1437.41	990.21
1438.94	970.437
1440.47	951.054
1442	959.254
1443.53	953.987
1445.05	958.851
1446.58	953.081
1448.11	944.687
1449.64	930.144
1451.17	928.661
1452.7	946.233
1454.23	958.106
1455.76	949.783
1457.28	928.774
1458.81	946.391
1460.34	938.5
1461.87	923.574
1463.4	931.788
1464.93	940.35
1466.46	934.228
1467.99	939.545
1469.51	934.97
1471.04	889.886
1472.57	927.046
1474.1	931.74
1475.63	900.749
1477.16	917.102
1478.69	920.45
1480.22	921.927
1481.74	919.107
1483.27	917.158
1484.8	919.777
1486.33	908.446
1487.86	931.354
1489.39	912.047
1490.92	899.871
1492.45	926.223
1493.97	924.763
1495.5	935.254
1497.03	911.018
1498.56	913.994
1500.09	909.639
1501.62	918.172
1503.15	912.937
1504.68	934.033
1506.21	899.767
1507.73	906.94
1509.26	926.115
1510.79	919.235
1512.32	943.936
1513.85	949.072
1515.38	958.024
1516.91	940.038
1518.44	960.864
1519.96	946.853
1521.49	948.989
1523.02	953.458
1524.55	976.617
1526.08	947.399
1527.61	975.23
1529.14	958.964
1530.67	979.071
1532.19	1001.81
1533.72	1007.07
1535.25	1006.55
1536.78	1014.92
1538.31	1039.09
1539.84	1033.41
1541.37	1038.19
1542.9	1050.35
1544.42	1068.73
1545.95	1090.07
1547.48	1090.96
1549.01	1121.71
1550.54	1135.38
1552.07	1141.95
1553.6	1181.34
1555.13	1226.91
1556.65	1225.87
1558.18	1219.94
1559.71	1237.89
1561.24	1261.81
1562.77	1288.66
1564.3	1298.5
1565.83	1351.61
1567.36	1345.99
1568.88	1368.15
1570.41	1410.4
1571.94	1440.93
1573.47	1438.42
1575	1483.38
1576.53	1526.7
1578.06	1525.97
1579.59	1536.43
1581.12	1602.78
1582.64	1613.32
1584.17	1645.71
1585.7	1648.9
1587.23	1683.76
1588.76	1690.54
1590.29	1698.65
1591.82	1707.2
1593.35	1725.38
1594.87	1728.53
1596.4	1720.82
1597.93	1727.08
1599.46	1700.9
1600.99	1681.6
1602.52	1694.04
1604.05	1653.98
1605.58	1649.35
1607.1	1611.05
1608.63	1573.55
1610.16	1525.67
1611.69	1515.71
1613.22	1466.72
1614.75	1428.64
1616.28	1366.52
1617.81	1344.75
1619.33	1283.21
1620.86	1221.61
1622.39	1193.22
1623.92	1147.02
1625.45	1096.06
1626.98	1052.65
1628.51	1018.49
1630.04	978.711
1631.56	930.556
1633.09	902.353
1634.62	873.35
1636.15	830.846
1637.68	796.289
1639.21	776.081
1640.74	746.428
1642.27	712.336
1643.79	702.771
1645.32	675.894
1646.85	635.689
1648.38	634.647
1649.91	614.45
1651.44	579.71
1652.97	564.247
1654.5	549.467
1656.03	529.163
1657.55	517.747
1659.08	488.189
1660.61	487.251
1662.14	468.185
1663.67	456.468
1665.2	423.973
1666.73	406.282
1668.26	403.517
1669.78	394.178
1671.31	375.965
1672.84	355.892
1674.37	351.343
1675.9	346.327
1677.43	329.435
1678.96	330.678
1680.49	315.049
1682.01	307.131
1683.54	305.133
1685.07	299.197
1686.6	297.045
1688.13	280.027
1689.66	281.922
1691.19	276.913
1692.72	264.856
1694.24	266.735
1695.77	265.923
1697.3	263.619
1698.83	254.479
1700.36	252.67
1701.89	248.408
1703.42	250.971
1704.95	246.374
1706.47	242.282
1708	239.615
1709.53	240.433
1711.06	228.553
1712.59	223.678
1714.12	227.439
1715.65	220.947
1717.18	223.172
1718.71	221.608
1720.23	213.901
1721.76	218.312
1723.29	209.635
1724.82	211.184
1726.35	205.22
1727.88	206.327
1729.41	211.563
1730.94	192.762
1732.46	210.946
1733.99	205.115
1735.52	204.849
1737.05	188.029
1738.58	193.64
1740.11	197.305
1741.64	197.831
1743.17	191.518
1744.69	202.733
1746.22	190.217
1747.75	191.056
1749.28	189.661
1750.81	192.4
1752.34	186.026
1753.87	188.285
1755.4	186.587
1756.92	184.592
1758.45	181.94
1759.98	187.084
1761.51	187.381
1763.04	184.886
1764.57	181.064
1766.1	181.74
1767.63	186.244
1769.15	185.038
1770.68	180.448
1772.21	183.809
1773.74	183.289
1775.27	173.995
1776.8	185.481
1778.33	182.762
1779.86	177.672
1781.38	173.604
1782.91	178.301
1784.44	175.765
1785.97	169.496
1787.5	180.124
1789.03	177.885
1790.56	179.187
1792.09	174.981
1793.62	169.007
1795.14	173.524
1796.67	194.425
1798.2	180.106
1799.73	176.537
1801.26	164.244
1802.79	168.712
1804.32	164.206
1805.85	167.054
1807.37	165.615
1808.9	177.447
1810.43	173.53
1811.96	190.95
1813.49	175.099
1815.02	174.561
1816.55	172.936
1818.08	171.017
1819.6	173.417
1821.13	178.76
1822.66	175.165
1824.19	170.131
1825.72	172.22
1827.25	179.906
1828.78	171.362
1830.31	171.176
1831.83	172.83
1833.36	173.956
1834.89	172.724
1836.42	166.543
1837.95	173.329
1839.48	166.553
1841.01	161.845
1842.54	173.755
1844.06	161.381
1845.59	163.118
1847.12	172.287
1848.65	166.758
1850.18	165.836
1851.71	169.484
1853.24	175.293
1854.77	159.928
1856.29	166.8
1857.82	170.801
1859.35	168.48
1860.88	163.253
1862.41	166.565
1863.94	165.784
1865.47	166.561
1867	169.229
1868.53	160.743
1870.05	164.093
1871.58	166.845
1873.11	162.459
1874.64	167.358
1876.17	164.634
1877.7	176.571
1879.23	161.597
1880.76	163.022
1882.28	164
1883.81	165.518
1885.34	167.24
1886.87	166.236
1888.4	169.763
1889.93	169.061
1891.46	169.97
1892.99	165.087
1894.51	161.491
1896.04	163.427
1897.57	163.916
1899.1	171.606
1900.63	163.901
1902.16	163.619
1903.69	160.853
1905.22	168.58
1906.74	161.781
1908.27	153.854
1909.8	156.567
1911.33	169.612
1912.86	155.987
1914.39	165.052
1915.92	161.644
1917.45	171.314
1918.97	162.391
1920.5	165.494
1922.03	162.425
1923.56	157.543
1925.09	166.689
1926.62	154.758
1928.15	154.987
1929.68	161.07
1931.21	161.225
1932.73	156.603
1934.26	161.613
1935.79	160.363
1937.32	162.637
1938.85	154.262
1940.38	161.787
1941.91	163.746
1943.44	162.25
1944.96	164.847
1946.49	168.855
1948.02	164.838
1949.55	165.825
1951.08	164.164
1952.61	169.257
1954.14	157.534
1955.67	170.392
1957.19	158.973
1958.72	163.739
1960.25	158.596
1961.78	152.656
1963.31	167.629
1964.84	154.288
1966.37	157.74
1967.9	161.516
1969.42	155.521
1970.95	161.588
1972.48	163.061
1974.01	157.475
1975.54	163.857
1977.07	165.751
1978.6	160.513
1980.13	162.288
1981.65	166.163
1983.18	166.88
1984.71	161.248
1986.24	167.447
1987.77	160.55
1989.3	165.945
1990.83	163.316
1992.36	161.287
1993.88	152.136
1995.41	161.124
1996.94	163.135
1998.47	164.318
2000	164.446