File: Example Data/Raman/CNT - TIM/Raytheon/Microwave/Test 2 - From Anu/LPCVD-Tc-650 - 5min - C_Micro-5min - top.txt
300	237.228
301.529	246.001
303.058	250.707
304.586	255.005
306.115	236.122
307.644	245.613
309.173	244.501
310.701	247.282
312.23	252.794
313.759	249.605
315.288	246.925
316.817	250.666
318.345	245.666
319.874	237.01
321.403	244.538
322.932	243.473
324.46	234.509
325.989	240.075
327.518	242.434
329.047	241.987
330.576	239.352
332.104	241.601
333.633	233.412
335.162	234.258
336.691	240.169
338.219	230.303
339.748	230.484
341.277	231.095
342.806	233.046
344.335	231.465
345.863	237.53
347.392	241.347
348.921	225.353
350.45	232.65
351.978	237.597
353.507	234.926
355.036	228.377
356.565	234.536
358.094	229.68
359.622	232.022
361.151	226.883
362.68	230.768
364.209	236.174
365.737	239.516
367.266	226.497
368.795	224.607
370.324	237.849
371.853	227.247
373.381	228.843
374.91	220.185
376.439	230.061
377.968	228.419
379.496	220.717
381.025	234.226
382.554	235.387
384.083	227.199
385.612	229.731
387.14	220.621
388.669	210.858
390.198	225.929
391.727	212.335
393.255	219.332
394.784	214.996
396.313	214.672
397.842	224.644
399.371	224.049
400.899	228.187
402.428	223.464
403.957	224.213
405.486	221.213
407.014	212.69
408.543	218.165
410.072	214.164
411.601	220.826
413.129	220.057
414.658	217.626
416.187	223.248
417.716	219.128
419.245	210.578
420.773	214.137
422.302	218.739
423.831	215.241
425.36	219.465
426.888	221.485
428.417	211.745
429.946	212.768
431.475	226.748
433.004	207.098
434.532	221.002
436.061	224.262
437.59	216.028
439.119	216.397
440.647	201.038
442.176	211.095
443.705	218.775
445.234	207.324
446.763	214.73
448.291	206.45
449.82	208.25
451.349	188.359
452.878	208.554
454.406	212.444
455.935	200.265
457.464	201.885
458.993	202.437
460.522	199.687
462.05	203.745
463.579	204.163
465.108	192.451
466.637	195.679
468.165	207.306
469.694	198.25
471.223	198.558
472.752	191.451
474.281	201.751
475.809	203.195
477.338	201.43
478.867	191.015
480.396	199.579
481.924	189.597
483.453	197.77
484.982	186.953
486.511	191.578
488.04	191.856
489.568	185.037
491.097	190.65
492.626	196.393
494.155	192.224
495.683	196.369
497.212	187.303
498.741	190.283
500.27	184.458
501.799	191.238
503.327	176.019
504.856	176.405
506.385	178.593
507.914	178.372
509.442	187.988
510.971	183.354
512.5	179
514.029	178.578
515.558	182.237
517.086	169.743
518.615	181.887
520.144	172.397
521.673	182.784
523.201	178.652
524.73	182.782
526.259	185.818
527.788	183.727
529.317	177.256
530.845	177.49
532.374	177.502
533.903	184.091
535.432	175.503
536.96	169.338
538.489	175.719
540.018	184.365
541.547	183.759
543.076	174.97
544.604	174.282
546.133	175.624
547.662	175.519
549.191	178.218
550.719	178.755
552.248	170.642
553.777	179.503
555.306	176.685
556.835	181.535
558.363	187.834
559.892	175.883
561.421	177.318
562.95	174
564.478	188.429
566.007	181.073
567.536	194.946
569.065	188.434
570.594	177.937
572.122	183.986
573.651	179.24
575.18	183.07
576.709	173.505
578.237	190.428
579.766	188.022
581.295	190.139
582.824	186.088
584.353	184.266
585.881	187.665
587.41	192.532
588.939	182.78
590.468	180.824
591.996	185.655
593.525	193.546
595.054	191.337
596.583	185.162
598.112	189.607
599.64	183.143
601.169	191.344
602.698	193.869
604.227	177.854
605.755	188.798
607.284	188.403
608.813	194.539
610.342	184.501
611.87	189.167
613.399	193.346
614.928	187.887
616.457	191.746
617.986	197.02
619.514	192.548
621.043	183.445
622.572	192.077
624.101	187.124
625.63	187.257
627.158	189.886
628.687	192.124
630.216	202.956
631.745	193.117
633.273	196.312
634.802	199.539
636.331	192.709
637.86	198.764
639.388	205.977
640.917	206.461
642.446	197.893
643.975	202.689
645.504	200.82
647.032	193.525
648.561	202.834
650.09	197.518
651.619	201.092
653.147	201.541
654.676	208.151
656.205	198.004
657.734	201.895
659.263	203.444
660.791	199.467
662.32	198.219
663.849	205.227
665.378	213.544
666.906	216.09
668.435	203.887
669.964	214.073
671.493	201.506
673.022	209.721
674.55	202.213
676.079	207.713
677.608	208.215
679.137	210.393
680.665	211.121
682.194	212.273
683.723	211.267
685.252	208.787
686.781	211.54
688.309	209.452
689.838	211.692
691.367	215.032
692.896	208.238
694.424	204.783
695.953	202.862
697.482	211.41
699.011	204.019
700.54	213.014
702.068	208.247
703.597	209.813
705.126	217.091
706.655	213.674
708.183	214.067
709.712	212.618
711.241	220.743
712.77	227.915
714.299	219.168
715.827	227.979
717.356	202.208
718.885	216.822
720.414	214.105
721.942	219.074
723.471	225.28
725	213.948
726.529	224.252
728.058	225.586
729.586	229.568
731.115	220.759
732.644	222.781
734.173	229.041
735.701	223.684
737.23	225.498
738.759	230.642
740.288	228.929
741.817	234.08
743.345	224.037
744.874	228.584
746.403	238.61
747.932	227.261
749.46	233.735
750.989	228.573
752.518	246.468
754.047	241.159
755.576	242.523
757.104	235.081
758.633	239.104
760.162	244.683
761.691	243.052
763.219	235.355
764.748	243.497
766.277	239.887
767.806	237.713
769.335	238.298
770.863	237.931
772.392	246.591
773.921	244.994
775.45	249.069
776.978	235.93
778.507	251.815
780.036	242.568
781.565	260.303
783.094	249.012
784.622	250.215
786.151	259.526
787.68	248.254
789.209	254.617
790.737	258.396
792.266	251.565
793.795	245.942
795.324	249.602
796.853	256.632
798.381	255.41
799.91	255.672
801.439	263.018
802.968	253.013
804.496	266.765
806.025	253.155
807.554	248.894
809.083	260.211
810.612	262.721
812.14	263.786
813.669	263.065
815.198	273.707
816.727	275.195
818.255	260.311
819.784	264.633
821.313	266.46
822.842	274.445
824.37	259.956
825.899	268.048
827.428	273.503
828.957	268.229
830.486	268.757
832.014	268.899
833.543	270.993
835.072	271.068
836.601	280.173
838.13	264.169
839.658	273.702
841.187	273.932
842.716	273.599
844.245	268.268
845.773	283.822
847.302	288.415
848.831	286.366
850.36	276.518
851.888	286.226
853.417	278.218
854.946	280.079
856.475	281.631
858.004	272.553
859.532	276.824
861.061	277.401
862.59	263.882
864.119	267.08
865.647	268.382
867.176	272.634
868.705	250.138
870.234	264.166
871.763	258.687
873.291	250.817
874.82	248.806
876.349	240.358
877.878	255.874
879.406	249.901
880.935	239.496
882.464	248.604
883.993	245.728
885.522	230.729
887.05	250.092
888.579	238.398
890.108	231.238
891.637	237.386
893.165	233.271
894.694	224.957
896.223	228.5
897.752	231.488
899.281	252.965
900.809	360.244
902.338	229.565
903.867	218.027
905.396	230.432
906.924	228.948
908.453	221.022
909.982	226.329
911.511	221.773
913.04	221.888
914.568	220.976
916.097	226.727
917.626	221.9
919.155	220.463
920.683	226.432
922.212	222.517
923.741	224.701
925.27	221.152
926.799	217.838
928.327	220.233
929.856	219.731
931.385	219.559
932.914	218.949
934.442	221.589
935.971	219.153
937.5	215.931
939.029	220.694
940.558	213.837
942.086	228.551
943.615	213.283
945.144	226.616
946.673	218.989
948.201	225.298
949.73	227.417
951.259	227.317
952.788	226.922
954.317	214.488
955.845	227.786
957.374	220.49
958.903	223.108
960.432	211.348
961.96	221.948
963.489	224.528
965.018	216.921
966.547	216.306
968.076	225.348
969.604	225.03
971.133	230.443
972.662	229.394
974.191	222.394
975.719	224.711
977.248	221.419
978.777	220.957
980.306	236.708
981.835	226.968
983.363	238.324
984.892	221.251
986.421	231.858
987.95	234.682
989.478	232.357
991.007	234.335
992.536	229.948
994.065	238.326
995.594	231.827
997.122	245.26
998.651	245.036
1000.18	243.664
1001.71	247.085
1003.24	252.227
1004.77	251.431
1006.29	243.49
1007.82	259.02
1009.35	240.357
1010.88	254.69
1012.41	253.907
1013.94	256.987
1015.47	267.797
1017	263.193
1018.53	259.365
1020.05	267.755
1021.58	261.921
1023.11	264.709
1024.64	269.987
1026.17	263.451
1027.7	275.938
1029.23	277.709
1030.76	281.562
1032.28	268.088
1033.81	294.662
1035.34	280.004
1036.87	280.737
1038.4	281.742
1039.93	291.234
1041.46	285.718
1042.99	290.697
1044.51	290.437
1046.04	289.33
1047.57	292.647
1049.1	290.793
1050.63	298.985
1052.16	298.62
1053.69	289.72
1055.22	297.282
1056.74	301.738
1058.27	292.399
1059.8	298.945
1061.33	305.628
1062.86	305.17
1064.39	307.476
1065.92	301.425
1067.45	309.113
1068.97	314.664
1070.5	320.194
1072.03	312.597
1073.56	316.541
1075.09	312.529
1076.62	321.946
1078.15	325.861
1079.68	330.446
1081.21	323.288
1082.73	335.192
1084.26	339.685
1085.79	331.963
1087.32	325.983
1088.85	344.692
1090.38	332.602
1091.91	338.935
1093.44	336.367
1094.96	341.091
1096.49	344.078
1098.02	355.936
1099.55	346.525
1101.08	344.203
1102.61	359.905
1104.14	360.061
1105.67	369.369
1107.19	371.852
1108.72	368.252
1110.25	380.385
1111.78	363.354
1113.31	380.579
1114.84	378.305
1116.37	377.039
1117.9	377.051
1119.42	373.151
1120.95	377.193
1122.48	382.393
1124.01	379.905
1125.54	367.651
1127.07	383.847
1128.6	391.762
1130.13	392.025
1131.65	383.167
1133.18	385.888
1134.71	396.133
1136.24	395.743
1137.77	421.286
1139.3	389.21
1140.83	402.033
1142.36	396.023
1143.88	407.701
1145.41	406.793
1146.94	391.944
1148.47	418.737
1150	409.757
1151.53	418.995
1153.06	422.824
1154.59	424.983
1156.12	429.75
1157.64	424.997
1159.17	420.861
1160.7	414.529
1162.23	434.947
1163.76	429.086
1165.29	420.281
1166.82	427.539
1168.35	418.828
1169.87	444.059
1171.4	438.129
1172.93	449.369
1174.46	444.976
1175.99	431.239
1177.52	445.455
1179.05	441.354
1180.58	449.839
1182.1	453.036
1183.63	437.412
1185.16	473.74
1186.69	455.091
1188.22	467.853
1189.75	470.204
1191.28	467.573
1192.81	461.116
1194.33	463.355
1195.86	468.278
1197.39	485.189
1198.92	493.143
1200.45	485.349
1201.98	475.253
1203.51	505.061
1205.04	507.63
1206.56	495.783
1208.09	513.531
1209.62	505.521
1211.15	525.942
1212.68	525.099
1214.21	519.729
1215.74	541.212
1217.27	532.408
1218.79	538.129
1220.32	551.216
1221.85	543.27
1223.38	548.183
1224.91	568.414
1226.44	550.393
1227.97	568.307
1229.5	580.068
1231.03	572.086
1232.55	591.056
1234.08	602.172
1235.61	575.833
1237.14	596.282
1238.67	618.386
1240.2	615.99
1241.73	623.081
1243.26	631.551
1244.78	631.569
1246.31	680.724
1247.84	658.261
1249.37	665.133
1250.9	677.605
1252.43	681.343
1253.96	694.628
1255.49	696.721
1257.01	713.745
1258.54	722.843
1260.07	720.453
1261.6	735.278
1263.13	764.746
1264.66	771.437
1266.19	763.801
1267.72	782.666
1269.24	783.785
1270.77	799.311
1272.3	828.414
1273.83	828.155
1275.36	850.075
1276.89	854.988
1278.42	879.783
1279.95	890.762
1281.47	927.857
1283	916.185
1284.53	939.366
1286.06	969.571
1287.59	986.989
1289.12	1024.77
1290.65	1019.42
1292.18	1070.05
1293.71	1072.1
1295.23	1072.12
1296.76	1107.36
1298.29	1159.17
1299.82	1182.08
1301.35	1210.94
1302.88	1242.25
1304.41	1257.06
1305.94	1333.81
1307.46	1354.38
1308.99	1389.53
1310.52	1442.77
1312.05	1488.19
1313.58	1528.28
1315.11	1548.48
1316.64	1609.55
1318.17	1655.5
1319.69	1714.02
1321.22	1790.62
1322.75	1779.72
1324.28	1860.08
1325.81	1896.66
1327.34	1965.04
1328.87	1994.66
1330.4	2071.26
1331.92	2069.13
1333.45	2140
1334.98	2177.49
1336.51	2199.83
1338.04	2206.09
1339.57	2267.93
1341.1	2230.48
1342.63	2288.77
1344.15	2246.27
1345.68	2255.53
1347.21	2230.11
1348.74	2194.52
1350.27	2176.34
1351.8	2142.5
1353.33	2111.33
1354.86	2091
1356.38	2043.82
1357.91	1986.92
1359.44	1959.68
1360.97	1901.08
1362.5	1872.75
1364.03	1791.21
1365.56	1764.47
1367.09	1788.99
1368.62	1821.85
1370.14	1613.4
1371.67	1625.63
1373.2	1564.72
1374.73	1541.93
1376.26	1469.71
1377.79	1456.65
1379.32	1396.75
1380.85	1395.88
1382.37	1351.68
1383.9	1345.27
1385.43	1260.28
1386.96	1252.61
1388.49	1207.15
1390.02	1209.97
1391.55	1172.47
1393.08	1151.59
1394.6	1107.48
1396.13	1103.26
1397.66	1095.44
1399.19	1087.1
1400.72	1045.3
1402.25	1036.71
1403.78	1004.29
1405.31	1030.02
1406.83	1005.72
1408.36	970.699
1409.89	963.018
1411.42	956.538
1412.95	935.034
1414.48	931.653
1416.01	910.351
1417.54	898.062
1419.06	909.588
1420.59	895.116
1422.12	892.917
1423.65	890.726
1425.18	856.307
1426.71	862.566
1428.24	849.336
1429.77	866.658
1431.29	839.402
1432.82	827.963
1434.35	808.461
1435.88	816.823
1437.41	820.197
1438.94	817.292
1440.47	824.085
1442	837.616
1443.53	793.931
1445.05	811.636
1446.58	792.811
1448.11	790.234
1449.64	796.134
1451.17	783.899
1452.7	779.633
1454.23	782.012
1455.76	775.788
1457.28	775.191
1458.81	780.229
1460.34	787.304
1461.87	798.253
1463.4	782.865
1464.93	800.772
1466.46	785.042
1467.99	787.454
1469.51	782.125
1471.04	770.98
1472.57	779.466
1474.1	788.489
1475.63	776.365
1477.16	776.415
1478.69	787.478
1480.22	772.972
1481.74	784.084
1483.27	760.155
1484.8	766.362
1486.33	783.862
1487.86	766.303
1489.39	769.464
1490.92	790.204
1492.45	787.034
1493.97	799.78
1495.5	784.364
1497.03	788.023
1498.56	775.771
1500.09	782.526
1501.62	798.355
1503.15	785.589
1504.68	790.286
1506.21	785.731
1507.73	801.984
1509.26	777.356
1510.79	814.29
1512.32	824.451
1513.85	821.732
1515.38	815.867
1516.91	803.445
1518.44	811.346
1519.96	815.026
1521.49	817.73
1523.02	812.711
1524.55	851.923
1526.08	826.395
1527.61	859.199
1529.14	851.648
1530.67	872.467
1532.19	888.083
1533.72	887.801
1535.25	894.071
1536.78	904.8
1538.31	930.744
1539.84	949.578
1541.37	952.449
1542.9	983.508
1544.42	983.14
1545.95	1015.39
1547.48	1034.55
1549.01	1062.61
1550.54	1081.76
1552.07	1133.53
1553.6	1146.04
1555.13	1169.91
1556.65	1170.05
1558.18	1216.21
1559.71	1233.23
1561.24	1281.28
1562.77	1298.15
1564.3	1328.35
1565.83	1374.48
1567.36	1413.53
1568.88	1455.16
1570.41	1462.7
1571.94	1536.19
1573.47	1563.01
1575	1580.69
1576.53	1639.57
1578.06	1656.03
1579.59	1689.61
1581.12	1737.87
1582.64	1767.1
1584.17	1754.46
1585.7	1772.29
1587.23	1801.03
1588.76	1800.76
1590.29	1812.86
1591.82	1813.8
1593.35	1799.48
1594.87	1806.73
1596.4	1780.73
1597.93	1765.13
1599.46	1770.91
1600.99	1754.06
1602.52	1775.2
1604.05	1754.03
1605.58	1691.88
1607.1	1718.21
1608.63	1676.38
1610.16	1644.17
1611.69	1642.5
1613.22	1608.68
1614.75	1593.61
1616.28	1557.06
1617.81	1496.63
1619.33	1476.38
1620.86	1415.99
1622.39	1355.99
1623.92	1306.97
1625.45	1254.77
1626.98	1186.92
1628.51	1147.94
1630.04	1094.5
1631.56	1039.15
1633.09	990.262
1634.62	950.466
1636.15	882.547
1637.68	841.594
1639.21	816.238
1640.74	771.564
1642.27	726.089
1643.79	698.631
1645.32	669.353
1646.85	640.489
1648.38	622.208
1649.91	590.813
1651.44	572.958
1652.97	539.458
1654.5	511.213
1656.03	492.118
1657.55	479.431
1659.08	453.551
1660.61	442.079
1662.14	430.922
1663.67	408.965
1665.2	391.771
1666.73	370.98
1668.26	372.263
1669.78	354.491
1671.31	347.349
1672.84	334.638
1674.37	313.939
1675.9	307.136
1677.43	307.827
1678.96	289.563
1680.49	287.516
1682.01	273.094
1683.54	270.509
1685.07	268.333
1686.6	259.572
1688.13	253.215
1689.66	254.013
1691.19	247.063
1692.72	244.054
1694.24	239.368
1695.77	233.264
1697.3	232.569
1698.83	229.579
1700.36	228.97
1701.89	215.823
1703.42	220.149
1704.95	217.148
1706.47	208.64
1708	210.629
1709.53	209.219
1711.06	207.978
1712.59	208.196
1714.12	204.126
1715.65	209.882
1717.18	190.815
1718.71	205.252
1720.23	200.193
1721.76	202.915
1723.29	196.019
1724.82	194.748
1726.35	195.774
1727.88	188.214
1729.41	185.233
1730.94	191.862
1732.46	190.348
1733.99	191.482
1735.52	190.622
1737.05	186.575
1738.58	187.666
1740.11	186.924
1741.64	184.314
1743.17	179.556
1744.69	178.337
1746.22	183.631
1747.75	178.904
1749.28	178.565
1750.81	175.509
1752.34	173.74
1753.87	181.62
1755.4	179.694
1756.92	186.24
1758.45	176.217
1759.98	165.954
1761.51	174.753
1763.04	174.142
1764.57	175.893
1766.1	178.002
1767.63	174.449
1769.15	169.727
1770.68	178.856
1772.21	174.996
1773.74	183.274
1775.27	178.091
1776.8	178.222
1778.33	178.14
1779.86	178.047
1781.38	178.279
1782.91	171.58
1784.44	174.048
1785.97	171.43
1787.5	170.767
1789.03	163.725
1790.56	172.293
1792.09	175.307
1793.62	177.999
1795.14	170.765
1796.67	167.381
1798.2	176.047
1799.73	167.781
1801.26	168.001
1802.79	170.306
1804.32	169.206
1805.85	175.066
1807.37	167.973
1808.9	171.57
1810.43	169.537
1811.96	163.914
1813.49	169.472
1815.02	170.672
1816.55	167.23
1818.08	166.258
1819.6	169.499
1821.13	164.987
1822.66	163.347
1824.19	175.258
1825.72	168.122
1827.25	167.171
1828.78	175.575
1830.31	165.389
1831.83	173.095
1833.36	160.927
1834.89	164.871
1836.42	166.807
1837.95	160.232
1839.48	165.493
1841.01	161.236
1842.54	164.407
1844.06	167.583
1845.59	156.067
1847.12	168.385
1848.65	161.183
1850.18	162.082
1851.71	166.774
1853.24	165.729
1854.77	160.366
1856.29	160.065
1857.82	164.476
1859.35	162.756
1860.88	157.509
1862.41	171.399
1863.94	165.871
1865.47	161.715
1867	161.379
1868.53	156.304
1870.05	163.94
1871.58	153.425
1873.11	159.054
1874.64	165.713
1876.17	164.463
1877.7	164.941
1879.23	161.34
1880.76	161.577
1882.28	167.112
1883.81	151.837
1885.34	161.937
1886.87	160.763
1888.4	159.947
1889.93	160.711
1891.46	154.897
1892.99	159.685
1894.51	158.949
1896.04	162.77
1897.57	163.407
1899.1	159.681
1900.63	160.746
1902.16	154.663
1903.69	157.041
1905.22	168.67
1906.74	149.346
1908.27	164.137
1909.8	161.982
1911.33	160.186
1912.86	164.051
1914.39	159.749
1915.92	162.079
1917.45	155.694
1918.97	154.85
1920.5	151.95
1922.03	161.191
1923.56	155.832
1925.09	161.21
1926.62	157.997
1928.15	152.285
1929.68	155.561
1931.21	157.418
1932.73	153.624
1934.26	153.486
1935.79	160.559
1937.32	158.317
1938.85	161.255
1940.38	164.075
1941.91	162.927
1943.44	155.283
1944.96	158.748
1946.49	151.602
1948.02	157.049
1949.55	146.682
1951.08	162.587
1952.61	153.235
1954.14	160.671
1955.67	156.518
1957.19	152.125
1958.72	157.701
1960.25	153.498
1961.78	161.312
1963.31	156.239
1964.84	153.484
1966.37	160.269
1967.9	158.265
1969.42	159.44
1970.95	160.292
1972.48	158.944
1974.01	161.634
1975.54	152.977
1977.07	154.505
1978.6	153.737
1980.13	154.717
1981.65	161.795
1983.18	163.016
1984.71	152.448
1986.24	160.931
1987.77	163.557
1989.3	160.419
1990.83	155.017
1992.36	160.49
1993.88	166.392
1995.41	162.187
1996.94	155.712
1998.47	160.902
2000	160.57