File: Example Data/Raman/CNT - TIM/Raytheon/Microwave/Test 2 - From Anu/LPCVD-Tc-650 - 5min - C_Micro-5min - bottom.txt
300	417.256
301.529	413.446
303.058	417.751
304.586	433.746
306.115	421.613
307.644	424.372
309.173	409.192
310.701	426.156
312.23	410.697
313.759	421.112
315.288	424.825
316.817	413.688
318.345	418.982
319.874	422.519
321.403	415.215
322.932	416.657
324.46	417.412
325.989	410.267
327.518	409.467
329.047	412.681
330.576	404.94
332.104	398.085
333.633	403.161
335.162	406.447
336.691	404.499
338.219	422.085
339.748	406.393
341.277	413.061
342.806	410.302
344.335	406.018
345.863	398.24
347.392	405.521
348.921	398.309
350.45	399.612
351.978	393.598
353.507	384.001
355.036	388.085
356.565	404.742
358.094	409.251
359.622	378.544
361.151	399.514
362.68	406.001
364.209	395.666
365.737	388.349
367.266	400.986
368.795	400.704
370.324	387.728
371.853	373.528
373.381	389.804
374.91	404.849
376.439	385.681
377.968	402.404
379.496	392.009
381.025	401.876
382.554	390.885
384.083	382.426
385.612	388.209
387.14	383.062
388.669	376.901
390.198	383.517
391.727	385.906
393.255	371.151
394.784	383.069
396.313	376.832
397.842	388.536
399.371	374.676
400.899	382.993
402.428	390.678
403.957	365.077
405.486	379.544
407.014	389.084
408.543	375.059
410.072	380.58
411.601	360.92
413.129	369.192
414.658	367.512
416.187	376.998
417.716	385.448
419.245	382.808
420.773	375.959
422.302	382
423.831	368.712
425.36	360.802
426.888	375.276
428.417	380.62
429.946	376.879
431.475	368.556
433.004	367.892
434.532	371.696
436.061	376.707
437.59	358.93
439.119	368.2
440.647	368.937
442.176	367.194
443.705	371.687
445.234	347.981
446.763	365.325
448.291	357.388
449.82	360.589
451.349	357.786
452.878	363.736
454.406	359.72
455.935	359.105
457.464	347.726
458.993	354.034
460.522	358.776
462.05	355.501
463.579	356.976
465.108	345.768
466.637	349.466
468.165	350.713
469.694	356.5
471.223	357.045
472.752	342.102
474.281	354.347
475.809	340.73
477.338	338.17
478.867	344.806
480.396	338.485
481.924	318.964
483.453	332.86
484.982	325.938
486.511	333.757
488.04	343.893
489.568	328.374
491.097	324.686
492.626	331.435
494.155	328.551
495.683	329.047
497.212	312.819
498.741	328.967
500.27	321.789
501.799	323.79
503.327	308.173
504.856	321.202
506.385	313.149
507.914	309.751
509.442	314.547
510.971	305.14
512.5	316.892
514.029	323.68
515.558	318.342
517.086	323.835
518.615	321.059
520.144	316.282
521.673	310.27
523.201	323.793
524.73	320.625
526.259	316
527.788	325.945
529.317	316.586
530.845	312.538
532.374	310.379
533.903	319.794
535.432	312.709
536.96	320.68
538.489	323.736
540.018	321.022
541.547	312.46
543.076	318.396
544.604	310.963
546.133	329.335
547.662	314.429
549.191	313.224
550.719	314.987
552.248	331.235
553.777	315.538
555.306	318.175
556.835	319.167
558.363	316.697
559.892	309.384
561.421	332.097
562.95	309.249
564.478	317.678
566.007	320.615
567.536	321.452
569.065	325.087
570.594	327.397
572.122	319.711
573.651	330.021
575.18	318.315
576.709	314.787
578.237	332.298
579.766	321.397
581.295	321.139
582.824	327.029
584.353	326.267
585.881	325.418
587.41	325.775
588.939	322.794
590.468	331.085
591.996	332.565
593.525	322.966
595.054	323.224
596.583	319.813
598.112	334.737
599.64	333.274
601.169	328.636
602.698	341.463
604.227	326.89
605.755	312.65
607.284	325.091
608.813	346.902
610.342	325.845
611.87	314.196
613.399	329.969
614.928	332.743
616.457	324.724
617.986	318.554
619.514	329.495
621.043	335.62
622.572	326.147
624.101	330.762
625.63	326.554
627.158	329.392
628.687	346.315
630.216	331.592
631.745	333.867
633.273	348.683
634.802	343.297
636.331	332.228
637.86	334.353
639.388	339.63
640.917	345.32
642.446	325.073
643.975	331.527
645.504	341.417
647.032	348.542
648.561	344.223
650.09	337.352
651.619	349.94
653.147	346.145
654.676	333.551
656.205	346.162
657.734	343.396
659.263	355.822
660.791	338.096
662.32	355.252
663.849	351.315
665.378	347.32
666.906	345.744
668.435	344.531
669.964	346.74
671.493	334.915
673.022	357.133
674.55	351.049
676.079	327.542
677.608	356.467
679.137	337.312
680.665	349.954
682.194	346.576
683.723	341.267
685.252	358.616
686.781	345.113
688.309	350.441
689.838	350.881
691.367	352.563
692.896	351.235
694.424	355.443
695.953	361.241
697.482	366.448
699.011	348.96
700.54	340.176
702.068	355.553
703.597	337.539
705.126	349.041
706.655	355.175
708.183	347.108
709.712	356.416
711.241	360.678
712.77	355.689
714.299	350.523
715.827	349.228
717.356	348.065
718.885	350.401
720.414	362.416
721.942	364.547
723.471	361.002
725	360.631
726.529	363.5
728.058	375.156
729.586	376.835
731.115	366.462
732.644	366.31
734.173	366.561
735.701	371.024
737.23	377.305
738.759	379
740.288	364.67
741.817	362.774
743.345	376.175
744.874	379.808
746.403	391.388
747.932	386.564
749.46	364.68
750.989	382.954
752.518	375.391
754.047	384.138
755.576	383.133
757.104	377.628
758.633	392.36
760.162	387.648
761.691	382.728
763.219	381.204
764.748	395.823
766.277	378.369
767.806	379.677
769.335	386.225
770.863	397.426
772.392	393.123
773.921	383.698
775.45	394.429
776.978	384.61
778.507	369.018
780.036	385.64
781.565	385.544
783.094	385.579
784.622	406.857
786.151	410.589
787.68	387.099
789.209	382.994
790.737	398.996
792.266	405.922
793.795	382.203
795.324	406.996
796.853	388.244
798.381	402.662
799.91	397.193
801.439	397.129
802.968	398.999
804.496	402.403
806.025	397.684
807.554	427.779
809.083	410.32
810.612	408.668
812.14	416.586
813.669	422.646
815.198	413.043
816.727	418.193
818.255	423.438
819.784	413.34
821.313	420.526
822.842	443.115
824.37	415.964
825.899	409.858
827.428	431.643
828.957	418.738
830.486	426.919
832.014	441.189
833.543	429.307
835.072	429.932
836.601	444.338
838.13	439.93
839.658	431.486
841.187	414.662
842.716	427.936
844.245	428.806
845.773	442.128
847.302	436.142
848.831	429.262
850.36	436.55
851.888	438.526
853.417	440.583
854.946	424.093
856.475	428.296
858.004	438.473
859.532	427.343
861.061	417.355
862.59	422.369
864.119	412.966
865.647	403.266
867.176	420.807
868.705	407.805
870.234	402.275
871.763	412.015
873.291	412.751
874.82	411.89
876.349	409.622
877.878	403.63
879.406	394.139
880.935	408.502
882.464	402.919
883.993	395.621
885.522	408.036
887.05	398.226
888.579	403.358
890.108	391.093
891.637	394.513
893.165	392.068
894.694	392.397
896.223	378.318
897.752	391.03
899.281	386.824
900.809	390.155
902.338	384.047
903.867	381.568
905.396	383.066
906.924	390.157
908.453	386.985
909.982	380.235
911.511	385.042
913.04	372.452
914.568	382.413
916.097	376.009
917.626	393.296
919.155	389.054
920.683	380.353
922.212	385.598
923.741	383.257
925.27	389.529
926.799	393.119
928.327	385.965
929.856	397.312
931.385	401.773
932.914	387.357
934.442	394.71
935.971	399.885
937.5	384.882
939.029	387.149
940.558	396.124
942.086	394.148
943.615	384.752
945.144	398.179
946.673	388.127
948.201	387.525
949.73	393.202
951.259	382.588
952.788	398.541
954.317	397.003
955.845	412.785
957.374	398.209
958.903	396.966
960.432	399.587
961.96	417.101
963.489	395.599
965.018	391.112
966.547	407.805
968.076	395.656
969.604	396.577
971.133	399.57
972.662	401.498
974.191	396.107
975.719	405.117
977.248	404.965
978.777	405.645
980.306	410.545
981.835	412
983.363	402.318
984.892	410.262
986.421	428.784
987.95	416.646
989.478	408.245
991.007	435.374
992.536	433.86
994.065	430.859
995.594	428.258
997.122	424.491
998.651	444.328
1000.18	439.246
1001.71	437.902
1003.24	440.684
1004.77	462.103
1006.29	461.628
1007.82	454.824
1009.35	449.291
1010.88	452.042
1012.41	462.252
1013.94	483.75
1015.47	469.707
1017	486.221
1018.53	471.141
1020.05	480.155
1021.58	498.587
1023.11	496.198
1024.64	487.119
1026.17	507.696
1027.7	500.941
1029.23	506.59
1030.76	493.927
1032.28	524.355
1033.81	511.053
1035.34	520.291
1036.87	518.932
1038.4	513.348
1039.93	530.075
1041.46	546.518
1042.99	524.214
1044.51	517.388
1046.04	545.198
1047.57	518.901
1049.1	538.781
1050.63	539.353
1052.16	545.923
1053.69	532.396
1055.22	544.215
1056.74	544.281
1058.27	555.495
1059.8	559.611
1061.33	556.283
1062.86	567.053
1064.39	573.753
1065.92	564.194
1067.45	560.772
1068.97	573.121
1070.5	590.682
1072.03	574.77
1073.56	596.277
1075.09	593.537
1076.62	582.485
1078.15	585.916
1079.68	594.734
1081.21	590.406
1082.73	599.268
1084.26	608.862
1085.79	749.596
1087.32	617.509
1088.85	626.103
1090.38	600.008
1091.91	622.037
1093.44	623.047
1094.96	628.949
1096.49	626.273
1098.02	627.938
1099.55	632.425
1101.08	641.713
1102.61	641.502
1104.14	647.038
1105.67	648.227
1107.19	646.634
1108.72	672.521
1110.25	660.163
1111.78	666.699
1113.31	666.946
1114.84	671.727
1116.37	686.769
1117.9	676.108
1119.42	689.503
1120.95	677.653
1122.48	684.233
1124.01	694.561
1125.54	705.129
1127.07	683.168
1128.6	718.33
1130.13	702.202
1131.65	730.398
1133.18	740.545
1134.71	759.016
1136.24	728.174
1137.77	723.334
1139.3	776.084
1140.83	758.581
1142.36	757.853
1143.88	749.625
1145.41	775.115
1146.94	775.889
1148.47	794.794
1150	794.163
1151.53	793.096
1153.06	791.342
1154.59	796.196
1156.12	797.955
1157.64	821.36
1159.17	813.128
1160.7	818.326
1162.23	829.828
1163.76	833.172
1165.29	837.517
1166.82	816.219
1168.35	852.901
1169.87	838.596
1171.4	828.405
1172.93	851.366
1174.46	847.474
1175.99	847.471
1177.52	851.47
1179.05	875.507
1180.58	891.122
1182.1	879.097
1183.63	836.577
1185.16	879.427
1186.69	885.487
1188.22	898.45
1189.75	895.107
1191.28	892.126
1192.81	913.616
1194.33	919.55
1195.86	944.878
1197.39	919.555
1198.92	926.092
1200.45	930.718
1201.98	961.872
1203.51	940.152
1205.04	963.349
1206.56	974.177
1208.09	1006.23
1209.62	992.462
1211.15	981.364
1212.68	1002.91
1214.21	1008.58
1215.74	995.922
1217.27	1005.95
1218.79	1025.7
1220.32	1029.4
1221.85	1027.92
1223.38	1061.22
1224.91	1063.32
1226.44	1093.93
1227.97	1085.54
1229.5	1101.14
1231.03	1102.78
1232.55	1114.87
1234.08	1121.82
1235.61	1139.61
1237.14	1161.43
1238.67	1144.75
1240.2	1196.23
1241.73	1212.9
1243.26	1185.49
1244.78	1196.25
1246.31	1243.97
1247.84	1263.55
1249.37	1241.67
1250.9	1271.6
1252.43	1291.95
1253.96	1305.72
1255.49	1315.98
1257.01	1336.4
1258.54	1344.73
1260.07	1378.23
1261.6	1385.74
1263.13	1419.54
1264.66	1444.02
1266.19	1420.73
1267.72	1476.22
1269.24	1497.34
1270.77	1505.03
1272.3	1526.61
1273.83	1552.2
1275.36	1615.35
1276.89	1603.3
1278.42	1631.59
1279.95	1670.89
1281.47	1685.77
1283	1700.38
1284.53	1747.18
1286.06	1737.52
1287.59	1840.28
1289.12	1810.44
1290.65	1862.03
1292.18	1861.9
1293.71	1932.88
1295.23	1947.6
1296.76	2011.69
1298.29	2037.59
1299.82	2063.06
1301.35	2136.98
1302.88	2156.89
1304.41	2179.08
1305.94	2227.03
1307.46	2243.45
1308.99	2332.92
1310.52	2355.95
1312.05	2414.23
1313.58	2430.66
1315.11	2488.24
1316.64	2505.33
1318.17	2567.77
1319.69	2612.68
1321.22	2688.39
1322.75	2688.77
1324.28	2742.34
1325.81	2767.05
1327.34	2805.77
1328.87	2843.34
1330.4	2839.74
1331.92	2848.33
1333.45	2886.34
1334.98	2890.16
1336.51	2861.71
1338.04	2862.28
1339.57	2870.68
1341.1	2888.34
1342.63	2858.39
1344.15	2842.49
1345.68	2847.24
1347.21	2820.4
1348.74	2764.77
1350.27	2718.27
1351.8	2879.77
1353.33	2679.51
1354.86	2665.95
1356.38	2640.27
1357.91	2563.62
1359.44	2538.93
1360.97	2497.59
1362.5	2439.15
1364.03	2451.84
1365.56	2401.37
1367.09	2370.54
1368.62	2297.48
1370.14	2307.98
1371.67	2195.81
1373.2	2160.08
1374.73	2165.02
1376.26	2112.24
1377.79	2101.29
1379.32	2080.25
1380.85	2020.07
1382.37	1973.57
1383.9	1985.62
1385.43	1932.22
1386.96	1894.63
1388.49	1874.78
1390.02	1876.36
1391.55	1850.44
1393.08	1807.76
1394.6	1785.47
1396.13	1759.85
1397.66	1744.82
1399.19	1735.51
1400.72	1700.76
1402.25	1704.31
1403.78	1638.81
1405.31	1643.47
1406.83	1618.59
1408.36	1609.49
1409.89	1594.66
1411.42	1590.55
1412.95	1568.23
1414.48	1561.52
1416.01	1567.52
1417.54	1525.1
1419.06	1528.69
1420.59	1500.11
1422.12	1480.72
1423.65	1487.48
1425.18	1465.9
1426.71	1470.27
1428.24	1460.94
1429.77	1467.38
1431.29	1423.61
1432.82	1427.73
1434.35	1434.51
1435.88	1412.51
1437.41	1407.68
1438.94	1404.84
1440.47	1418.42
1442	1385.16
1443.53	1387.25
1445.05	1391.72
1446.58	1390.32
1448.11	1402.05
1449.64	1384.72
1451.17	1357.05
1452.7	1414.61
1454.23	1384.62
1455.76	1380.17
1457.28	1370.94
1458.81	1391.54
1460.34	1382.74
1461.87	1367.86
1463.4	1396.89
1464.93	1383.73
1466.46	1380.46
1467.99	1363.39
1469.51	1372.37
1471.04	1387.23
1472.57	1378.87
1474.1	1374.89
1475.63	1376.1
1477.16	1362.65
1478.69	1364.07
1480.22	1372.98
1481.74	1378.17
1483.27	1388.99
1484.8	1378.3
1486.33	1396.55
1487.86	1419.25
1489.39	1369.69
1490.92	1398.51
1492.45	1370.43
1493.97	1401.93
1495.5	1404.88
1497.03	1370.85
1498.56	1386.51
1500.09	1399.14
1501.62	1390.75
1503.15	1421.67
1504.68	1406.5
1506.21	1438.57
1507.73	1443.19
1509.26	1443.88
1510.79	1442.34
1512.32	1426.08
1513.85	1434.18
1515.38	1472.57
1516.91	1467.81
1518.44	1473.3
1519.96	1503.61
1521.49	1511.98
1523.02	1529.01
1524.55	1541.53
1526.08	1515.36
1527.61	1582.41
1529.14	1583.93
1530.67	1581.87
1532.19	1609.63
1533.72	1626.04
1535.25	1666.54
1536.78	1650.49
1538.31	1721.64
1539.84	1745.42
1541.37	1741.13
1542.9	1764.06
1544.42	1820.51
1545.95	1842.5
1547.48	1897.21
1549.01	1924.71
1550.54	1963.01
1552.07	2023.82
1553.6	2076.23
1555.13	2074.73
1556.65	2132.67
1558.18	2161.93
1559.71	2179.83
1561.24	2230.19
1562.77	2263.42
1564.3	2329.94
1565.83	2357.35
1567.36	2415.95
1568.88	2453.63
1570.41	2476.93
1571.94	2524.52
1573.47	2568.92
1575	2569.03
1576.53	2593.95
1578.06	2633.35
1579.59	2715.31
1581.12	2683.6
1582.64	2711.81
1584.17	2695.69
1585.7	2704.66
1587.23	2722.09
1588.76	2694.78
1590.29	2683.85
1591.82	2654.98
1593.35	2668.62
1594.87	2658.63
1596.4	2643.25
1597.93	2604.01
1599.46	2596.25
1600.99	2561.4
1602.52	2506.35
1604.05	2483.72
1605.58	2404.63
1607.1	2360.16
1608.63	2294.02
1610.16	2249.29
1611.69	2167.99
1613.22	2122.17
1614.75	2034.17
1616.28	1959.97
1617.81	1895.9
1619.33	1807.88
1620.86	1739.78
1622.39	1670.15
1623.92	1625.34
1625.45	1540.25
1626.98	1470.25
1628.51	1421.16
1630.04	1369.2
1631.56	1327.72
1633.09	1272.38
1634.62	1218.63
1636.15	1172.92
1637.68	1149.73
1639.21	1094.69
1640.74	1049.29
1642.27	1007.16
1643.79	968.224
1645.32	938.013
1646.85	905.536
1648.38	884.169
1649.91	853.151
1651.44	816.156
1652.97	803.115
1654.5	764.019
1656.03	742.393
1657.55	708.393
1659.08	680.478
1660.61	676.88
1662.14	649.837
1663.67	633.025
1665.2	618.225
1666.73	591.464
1668.26	591.588
1669.78	562.015
1671.31	545.685
1672.84	537.825
1674.37	520.344
1675.9	512.796
1677.43	503.178
1678.96	495.376
1680.49	475.616
1682.01	468.794
1683.54	465.517
1685.07	451.853
1686.6	452.993
1688.13	443.879
1689.66	430.815
1691.19	428.661
1692.72	419.586
1694.24	415.36
1695.77	410.79
1697.3	403.732
1698.83	401.444
1700.36	397.527
1701.89	387.612
1703.42	392.481
1704.95	380.743
1706.47	379.036
1708	373.873
1709.53	372.804
1711.06	363.424
1712.59	365.905
1714.12	366.404
1715.65	367.11
1717.18	354.686
1718.71	361.866
1720.23	347.662
1721.76	345.395
1723.29	350.334
1724.82	345.513
1726.35	343.744
1727.88	340.185
1729.41	348.576
1730.94	335.013
1732.46	331.593
1733.99	325.805
1735.52	341.882
1737.05	329.863
1738.58	332.477
1740.11	315.705
1741.64	325.153
1743.17	324.678
1744.69	323.438
1746.22	325.934
1747.75	315.956
1749.28	321.43
1750.81	320.258
1752.34	322.711
1753.87	318.005
1755.4	316.518
1756.92	305.636
1758.45	320.821
1759.98	312.114
1761.51	310.892
1763.04	304.842
1764.57	305.978
1766.1	304.757
1767.63	314.921
1769.15	305.174
1770.68	304.559
1772.21	304.324
1773.74	307.531
1775.27	316.277
1776.8	321.509
1778.33	310.708
1779.86	308.678
1781.38	303.707
1782.91	301.858
1784.44	299.781
1785.97	316.993
1787.5	305.215
1789.03	308.244
1790.56	301.958
1792.09	301.788
1793.62	301.567
1795.14	288.825
1796.67	298.386
1798.2	297.008
1799.73	295.887
1801.26	295.865
1802.79	290.829
1804.32	293.953
1805.85	298.136
1807.37	305.565
1808.9	302.229
1810.43	301.509
1811.96	296.387
1813.49	307.298
1815.02	306.542
1816.55	290.424
1818.08	294.351
1819.6	294.161
1821.13	292.62
1822.66	288.279
1824.19	285.244
1825.72	293.065
1827.25	295.566
1828.78	302.872
1830.31	293.452
1831.83	293.634
1833.36	286.729
1834.89	284.593
1836.42	293.521
1837.95	290.639
1839.48	285.333
1841.01	286.234
1842.54	270.835
1844.06	291.306
1845.59	292.4
1847.12	277.723
1848.65	287.275
1850.18	284.62
1851.71	292.79
1853.24	286.062
1854.77	284.946
1856.29	289.668
1857.82	280.516
1859.35	290.183
1860.88	284.805
1862.41	289.47
1863.94	296.906
1865.47	285.64
1867	282.996
1868.53	282.753
1870.05	279.352
1871.58	289.102
1873.11	282.69
1874.64	286.188
1876.17	273.285
1877.7	282.275
1879.23	283.281
1880.76	284.248
1882.28	279.178
1883.81	275.069
1885.34	287.407
1886.87	278.197
1888.4	284.537
1889.93	270.739
1891.46	271.939
1892.99	277.451
1894.51	284.533
1896.04	278.201
1897.57	279.336
1899.1	284.089
1900.63	274.547
1902.16	271.116
1903.69	275.455
1905.22	269.905
1906.74	267.207
1908.27	284.533
1909.8	279.199
1911.33	282.798
1912.86	274.416
1914.39	285.169
1915.92	285.025
1917.45	281.402
1918.97	274.223
1920.5	273.618
1922.03	281.688
1923.56	280.447
1925.09	283.134
1926.62	279.792
1928.15	272.745
1929.68	268.339
1931.21	273.375
1932.73	274.16
1934.26	274.329
1935.79	269.817
1937.32	268.216
1938.85	275.25
1940.38	279.058
1941.91	278.429
1943.44	270.978
1944.96	276.143
1946.49	275.033
1948.02	268.223
1949.55	273.958
1951.08	288.362
1952.61	264.628
1954.14	281.798
1955.67	280.296
1957.19	289.12
1958.72	260.867
1960.25	278.288
1961.78	266.247
1963.31	277.338
1964.84	276.512
1966.37	270.416
1967.9	270.55
1969.42	278.568
1970.95	269.674
1972.48	282.92
1974.01	279.827
1975.54	271.428
1977.07	272.271
1978.6	277.114
1980.13	275.358
1981.65	282.404
1983.18	264.782
1984.71	263.541
1986.24	276.408
1987.77	264.952
1989.3	283.685
1990.83	266.769
1992.36	283.686
1993.88	273.633
1995.41	288.523
1996.94	272.863
1998.47	270.985
2000	281.111