File: Example Data/Raman/CNT - TIM/Raytheon/FeSi adhesion/Test 1 - 12-7-09/CNT spectrum 1.txt
200	89.1283
202.127	98.5126
204.254	99.5426
206.381	101.338
208.508	98.5524
210.636	101.323
212.763	97.9495
214.89	102.09
217.017	95.2596
219.144	93.336
221.271	106.713
223.398	104.142
225.525	104.921
227.653	104.528
229.78	103.092
231.907	108.332
234.034	109.059
236.161	104.171
238.288	107.416
240.415	111.807
242.542	108.218
244.67	108.736
246.797	108.709
248.924	100.84
251.051	104.016
253.178	106.75
255.305	111.582
257.432	107.632
259.559	104.411
261.686	106.457
263.814	100
265.941	99.4329
268.068	104.743
270.195	95.4073
272.322	103.93
274.449	100.911
276.576	101.795
278.703	96.9253
280.831	101.463
282.958	99.9593
285.085	99.1122
287.212	87.2847
289.339	95.4483
291.466	100.193
293.593	88.6929
295.72	90.4173
297.848	98.0036
299.975	89.4168
302.102	85.701
304.229	88.4386
306.356	90.2759
308.483	87.7248
310.61	88.0293
312.737	82.1797
314.865	87.1094
316.992	92.8927
319.119	89.8331
321.246	83.8695
323.373	87.138
325.5	74.2355
327.627	84.1316
329.754	84.506
331.882	78.0912
334.009	74.9792
336.136	88.7722
338.263	94.012
340.39	88.4212
342.517	78.8833
344.644	84.6652
346.771	80.8652
348.898	75.6107
351.026	86.8309
353.153	79.1511
355.28	81.5876
357.407	85.639
359.534	77.0286
361.661	79.4144
363.788	74.2397
365.915	76.9279
368.043	78.5987
370.17	80.5818
372.297	71.1521
374.424	73.5785
376.551	79.969
378.678	77.8194
380.805	71.341
382.932	82.2826
385.06	73.8495
387.187	77.7916
389.314	80.5343
391.441	74.7347
393.568	70.0032
395.695	69.6065
397.822	80.4815
399.949	71.0158
402.076	72.7625
404.204	68.8381
406.331	79.6992
408.458	79.9659
410.585	72.5889
412.712	78.5712
414.839	81.0435
416.966	72.5827
419.093	74.7603
421.221	78.9277
423.348	78.0035
425.475	75.5288
427.602	73.1743
429.729	67.2774
431.856	74.7873
433.983	76.0934
436.11	68.749
438.238	72.0258
440.365	69.4909
442.492	74.9337
444.619	73.942
446.746	71.4201
448.873	70.0634
451	72.8248
453.127	67.5
455.254	71.5277
457.382	68.8458
459.509	73.1503
461.636	68.08
463.763	66.5891
465.89	71.6957
468.017	68.4047
470.144	66.5846
472.271	68.431
474.399	62.2683
476.526	119.488
478.653	71.6546
480.78	63.8565
482.907	66.0402
485.034	64.0302
487.161	61.3451
489.288	63.1942
491.416	59.467
493.543	62.585
495.67	64.4
497.797	59.734
499.924	56.8628
502.051	61.7533
504.178	65.3159
506.305	65.3143
508.433	63.2681
510.56	57.0271
512.687	61.6386
514.814	58.1376
516.941	59.7752
519.068	56.5395
521.195	62.924
523.322	53.1694
525.449	58.0973
527.577	57.3028
529.704	60.2881
531.831	59.8084
533.958	55.5833
536.085	57.9118
538.212	54.9181
540.339	63.6977
542.466	58.3687
544.594	55.745
546.721	58.6544
548.848	57.3571
550.975	61.0291
553.102	53.9403
555.229	60.9641
557.356	56.5124
559.483	57.6915
561.611	57.8985
563.738	58.7277
565.865	57.3461
567.992	61.8437
570.119	54.7153
572.246	59.5916
574.373	61.0784
576.5	59.0963
578.628	63.2222
580.755	62.8166
582.882	59.5542
585.009	61.9457
587.136	59.015
589.263	61.9307
591.39	60.3629
593.517	53.9304
595.644	64.5749
597.772	63.0799
599.899	58.7944
602.026	56.5123
604.153	56.538
606.28	60.2151
608.407	60.4964
610.534	63.1896
612.661	62.9793
614.789	65.8326
616.916	66.3104
619.043	59.1179
621.17	59.0704
623.297	59.4342
625.424	59.3061
627.551	62.1824
629.678	66.2464
631.806	66.0981
633.933	62.352
636.06	58.3329
638.187	55.6104
640.314	60.157
642.441	62.2056
644.568	63.5533
646.695	59.8387
648.823	63.8219
650.95	60.7819
653.077	60.3214
655.204	61.6668
657.331	66.8719
659.458	62.453
661.585	64.7859
663.712	62.4094
665.839	66.2221
667.967	64.4107
670.094	57.4703
672.221	60.8639
674.348	60.459
676.475	65.0355
678.602	64.9872
680.729	65.4004
682.856	70.2068
684.984	60.579
687.111	60.9351
689.238	63.9578
691.365	64.3501
693.492	67.37
695.619	69.7112
697.746	67.7551
699.873	70.1686
702	69.2929
704.128	67.3484
706.255	64.1633
708.382	69.7481
710.509	74.87
712.636	61.7132
714.763	69.985
716.89	61.8319
719.017	64.1002
721.145	66.4749
723.272	62.6357
725.399	64.434
727.526	67.8978
729.653	77.3348
731.78	71.3625
733.907	68.9485
736.034	72.4301
738.162	71.0403
740.289	69.34
742.416	73.3195
744.543	74.8552
746.67	79.4304
748.797	75.1972
750.924	75.0634
753.051	72.9832
755.179	76.8782
757.306	80.4907
759.433	75.7689
761.56	72.4081
763.687	74.5988
765.814	78.11
767.941	78.2248
770.068	77.1505
772.195	70.2175
774.323	80.0039
776.45	81.1263
778.577	72.2994
780.704	71.4967
782.831	74.6728
784.958	73.6587
787.085	70.5572
789.212	80.064
791.34	80.3015
793.467	77.1405
795.594	76.9017
797.721	81.0888
799.848	83.7396
801.975	84.7836
804.102	82.7054
806.229	77.5974
808.357	73.2958
810.484	76.1449
812.611	79.0908
814.738	84.076
816.865	84.4883
818.992	84.3014
821.119	87.0759
823.246	88.25
825.374	86.3293
827.501	84.8878
829.628	75.0207
831.755	83.6804
833.882	80.9415
836.009	82.0853
838.136	83.1166
840.263	86.8087
842.391	82.5417
844.518	84.8308
846.645	82.013
848.772	84.6706
850.899	89.4579
853.026	80.2413
855.153	82.2713
857.28	87.583
859.407	81.6892
861.535	93.9367
863.662	84.8891
865.789	85.718
867.916	86.6813
870.043	80.6963
872.17	76.837
874.297	75.564
876.424	79.6269
878.552	81.2778
880.679	86.349
882.806	78.4268
884.933	74.2705
887.06	79.4388
889.187	73.5957
891.314	69.332
893.441	71.8856
895.568	73.1821
897.696	70.9285
899.823	75.0107
901.95	75.7983
904.077	74.9295
906.204	75.337
908.331	65.3376
910.458	69.2391
912.585	77.4054
914.713	67.6986
916.84	70.7248
918.967	61.7322
921.094	72.8592
923.221	68.7054
925.348	65.3519
927.475	71.9407
929.602	75.7323
931.73	70.3044
933.857	70.4114
935.984	65.9052
938.111	70.7279
940.238	67.387
942.365	69.2025
944.492	68.6551
946.619	69.9255
948.747	73.3681
950.874	69.5296
953.001	70.049
955.128	72.0867
957.255	73.5637
959.382	69.837
961.509	75.5569
963.636	68.3386
965.763	69.226
967.891	67.6485
970.018	71.7058
972.145	70.2077
974.272	71.9768
976.399	68.8083
978.526	70.5237
980.653	70.6003
982.78	68.9919
984.908	75.0626
987.035	66.4369
989.162	70.0121
991.289	69.9405
993.416	72.3567
995.543	72.8621
997.67	74.8109
999.797	73.5898
1001.92	71.0127
1004.05	73.3044
1006.18	75.9002
1008.31	74.8142
1010.43	72.0407
1012.56	79.3763
1014.69	79.9982
1016.81	81.9248
1018.94	81.992
1021.07	81.0705
1023.2	78.5163
1025.32	77.7741
1027.45	82.932
1029.58	80.8216
1031.7	84.5788
1033.83	82.9734
1035.96	83.0651
1038.09	78.1471
1040.21	83.0593
1042.34	85.4676
1044.47	89.7045
1046.59	86.7477
1048.72	87.6467
1050.85	91.4093
1052.98	86.2694
1055.1	87.3381
1057.23	92.4958
1059.36	94.3178
1061.48	89.2092
1063.61	99.2479
1065.74	90.8539
1067.87	91.4715
1069.99	100.407
1072.12	90.0826
1074.25	86.6489
1076.37	96.1032
1078.5	94.702
1080.63	91.939
1082.76	97.7175
1084.88	102.787
1087.01	99.6378
1089.14	101.217
1091.26	102.594
1093.39	101.495
1095.52	99.9815
1097.65	113.452
1099.77	102.614
1101.9	107.074
1104.03	103.642
1106.15	102.632
1108.28	103.676
1110.41	98.4217
1112.53	107.513
1114.66	102.197
1116.79	98.6396
1118.92	100.045
1121.04	97.896
1123.17	102.382
1125.3	106.981
1127.42	106.421
1129.55	109.41
1131.68	106.697
1133.81	100.158
1135.93	106.62
1138.06	101.047
1140.19	103.202
1142.31	103.992
1144.44	105.3
1146.57	112.089
1148.7	116.024
1150.82	105.837
1152.95	107.833
1155.08	105.628
1157.2	106.924
1159.33	110.003
1161.46	112.224
1163.59	112.985
1165.71	105.483
1167.84	111.767
1169.97	113.243
1172.09	118.103
1174.22	107.012
1176.35	118.69
1178.48	115.395
1180.6	112.251
1182.73	111.665
1184.86	123.315
1186.98	114.25
1189.11	124.217
1191.24	125.989
1193.37	122.618
1195.49	119.688
1197.62	126.336
1199.75	112.661
1201.87	121.126
1204	125.293
1206.13	125.962
1208.26	123.51
1210.38	135.457
1212.51	134.202
1214.64	136.564
1216.76	132.694
1218.89	131.643
1221.02	142.339
1223.15	140.375
1225.27	137.952
1227.4	144.972
1229.53	143.35
1231.65	157.097
1233.78	150.905
1235.91	152.736
1238.03	158.258
1240.16	156.572
1242.29	156.419
1244.42	161.533
1246.54	173.993
1248.67	169.718
1250.8	170.7
1252.92	178.577
1255.05	177.7
1257.18	180.296
1259.31	195.912
1261.43	182.092
1263.56	192.042
1265.69	196.482
1267.81	203.214
1269.94	208.619
1272.07	213.306
1274.2	212.019
1276.32	218.526
1278.45	221.045
1280.58	237.87
1282.7	243.461
1284.83	261.082
1286.96	268.071
1289.09	277.04
1291.21	287.5
1293.34	290.758
1295.47	306.895
1297.59	318.822
1299.72	332.904
1301.85	354.627
1303.98	376.263
1306.1	403.536
1308.23	423.325
1310.36	444.231
1312.48	480.367
1314.61	514.281
1316.74	535.258
1318.87	556.731
1320.99	586.848
1323.12	610.679
1325.25	658.339
1327.37	659.511
1329.5	682.859
1331.63	677.155
1333.76	693.222
1335.88	720.45
1338.01	712.791
1340.14	699.873
1342.26	704.672
1344.39	666.15
1346.52	646.204
1348.65	604.879
1350.77	609.7
1352.9	585.443
1355.03	545.479
1357.15	517.417
1359.28	501.103
1361.41	465.03
1363.54	440.64
1365.66	425.986
1367.79	388.681
1369.92	389.957
1372.04	373.002
1374.17	352.194
1376.3	334.16
1378.42	327.356
1380.55	312.831
1382.68	290.178
1384.81	277.361
1386.93	278.667
1389.06	268.969
1391.19	259.007
1393.31	258.428
1395.44	233.599
1397.57	231.321
1399.7	229.703
1401.82	215.138
1403.95	222.581
1406.08	218.513
1408.2	216.568
1410.33	212.85
1412.46	206.165
1414.59	194.38
1416.71	198.71
1418.84	197.751
1420.97	189.361
1423.09	200.089
1425.22	167.991
1427.35	193.127
1429.48	173.124
1431.6	183.541
1433.73	179.24
1435.86	185.593
1437.98	188.161
1440.11	182
1442.24	181.682
1444.37	185.343
1446.49	169.511
1448.62	180
1450.75	173.359
1452.87	180.82
1455	179.756
1457.13	177.252
1459.26	172.671
1461.38	183.899
1463.51	185.876
1465.64	184.739
1467.76	185.664
1469.89	175.061
1472.02	185.259
1474.15	170.8
1476.27	181.74
1478.4	185.544
1480.53	181.014
1482.65	185.479
1484.78	276.611
1486.91	189.564
1489.04	181.258
1491.16	177.734
1493.29	193.749
1495.42	190.86
1497.54	189.898
1499.67	190.631
1501.8	192.605
1503.93	192.996
1506.05	206.827
1508.18	207.626
1510.31	197.118
1512.43	209.675
1514.56	220.358
1516.69	212.957
1518.81	210.595
1520.94	240.824
1523.07	248.565
1525.2	248.919
1527.32	260.844
1529.45	261.781
1531.58	280.477
1533.7	302.78
1535.83	309.44
1537.96	329.299
1540.09	339.188
1542.21	353.079
1544.34	356.944
1546.47	401.426
1548.59	429.025
1550.72	461.342
1552.85	483.25
1554.98	520.552
1557.1	553.992
1559.23	559.401
1561.36	592.347
1563.48	621.421
1565.61	649.121
1567.74	655.566
1569.87	669.851
1571.99	655.591
1574.12	677.452
1576.25	669.339
1578.37	669.52
1580.5	648.142
1582.63	633.975
1584.76	599.415
1586.88	580.974
1589.01	570.318
1591.14	567.761
1593.26	567.539
1595.39	535.06
1597.52	536.027
1599.65	511.942
1601.77	506.686
1603.9	486.668
1606.03	482.057
1608.15	443.067
1610.28	442.752
1612.41	407.94
1614.54	390.774
1616.66	367.05
1618.79	339.542
1620.92	316.662
1623.04	288.692
1625.17	276.75
1627.3	254.997
1629.43	228.842
1631.55	218.357
1633.68	203.583
1635.81	179.694
1637.93	166.957
1640.06	168.067
1642.19	149.978
1644.32	147.096
1646.44	139.981
1648.57	136.12
1650.7	127.272
1652.82	120.552
1654.95	113.674
1657.08	114.114
1659.2	100.337
1661.33	98.1745
1663.46	99.7922
1665.59	92.1103
1667.71	92.6916
1669.84	92.7071
1671.97	90.5358
1674.09	85.0186
1676.22	82.5896
1678.35	81.3364
1680.48	81.4443
1682.6	76.4676
1684.73	79.0476
1686.86	76.5985
1688.98	71.1228
1691.11	71.86
1693.24	75.3589
1695.37	75.0398
1697.49	67.0296
1699.62	68.6877
1701.75	71.2734
1703.87	62.5528
1706	69.6682
1708.13	62.9337
1710.26	60.4729
1712.38	61.7823
1714.51	62.2171
1716.64	65.7665
1718.76	62.917
1720.89	62.2888
1723.02	64.9836
1725.15	63.1442
1727.27	56.3837
1729.4	56.8948
1731.53	58.2834
1733.65	60.5981
1735.78	65.6446
1737.91	62.4225
1740.04	63.6974
1742.16	63.9389
1744.29	60.5573
1746.42	62.0714
1748.54	61.7571
1750.67	62.4798
1752.8	57.0391
1754.93	56.4947
1757.05	56.5541
1759.18	57.924
1761.31	53.1682
1763.43	61.8898
1765.56	59.2696
1767.69	49.9279
1769.82	54.3517
1771.94	51.0287
1774.07	55.0851
1776.2	56.4124
1778.32	56.0908
1780.45	54.5272
1782.58	51.829
1784.7	55.1945
1786.83	56
1788.96	53.974
1791.09	53.0887
1793.21	56.4211
1795.34	54.9217
1797.47	50.4596
1799.59	50.8921
1801.72	53.3953
1803.85	55.3765
1805.98	56.5938
1808.1	53.6405
1810.23	53.9331
1812.36	54.7562
1814.48	56.2853
1816.61	52.3275
1818.74	53.0148
1820.87	53.9908
1822.99	58.4625
1825.12	56.4746
1827.25	55.7034
1829.37	53.2903
1831.5	56.7797
1833.63	55.533
1835.76	52.819
1837.88	53.7107
1840.01	53.9092
1842.14	59.8183
1844.26	58.9633
1846.39	57.8081
1848.52	49.1668
1850.65	53.7834
1852.77	55.4879
1854.9	55.4035
1857.03	51.5168
1859.15	54.2751
1861.28	52.0551
1863.41	51.0725
1865.54	50.4054
1867.66	52.3151
1869.79	53.6748
1871.92	51.6143
1874.04	48.0377
1876.17	56.6527
1878.3	45.7337
1880.43	52.6519
1882.55	49.5788
1884.68	55.3404
1886.81	51.2049
1888.93	56.8614
1891.06	53.7719
1893.19	52.6499
1895.32	58.0862
1897.44	48.061
1899.57	53.1735
1901.7	50.2507
1903.82	49.0659
1905.95	53.2037
1908.08	47.1636
1910.21	49.6054
1912.33	58.575
1914.46	53.5561
1916.59	53.2946
1918.71	45.594
1920.84	48.2974
1922.97	51.4142
1925.09	50.3371
1927.22	50.488
1929.35	55.6151
1931.48	48.3424
1933.6	51.9348
1935.73	49.43
1937.86	50.9435
1939.98	47.5756
1942.11	49.1948
1944.24	50.6933
1946.37	52.82
1948.49	50.5207
1950.62	50.6355
1952.75	52.8115
1954.87	51.0049
1957	52.3942
1959.13	51.5517
1961.26	55.7214
1963.38	45.7823
1965.51	50.2471
1967.64	51.2816
1969.76	51.2071
1971.89	50.0762
1974.02	50.0762
1976.15	46.2056
1978.27	50.1081
1980.4	53.8651
1982.53	54.0368
1984.65	51.0604
1986.78	52.6122
1988.91	51.312
1991.04	53.2462
1993.16	52.4264
1995.29	46.9207
1997.42	53.124
1999.54	53.4094
2001.67	54.778
2003.8	49.8231
2005.93	45.3866
2008.05	55.2875
2010.18	49.2673
2012.31	50.8019
2014.43	55.0848
2016.56	49.9056
2018.69	48.3443
2020.82	51.9136
2022.94	44.3931
2025.07	47.8356
2027.2	49.0893
2029.32	47.9377
2031.45	50.6707
2033.58	51.934
2035.71	52.3757
2037.83	53.6813
2039.96	50.8544
2042.09	46.4744
2044.21	50.7897
2046.34	48.9598
2048.47	50.1799
2050.59	45.8302
2052.72	52.2248
2054.85	45.1798
2056.98	46.4004
2059.1	54.5766
2061.23	47.0669
2063.36	50.2464
2065.48	48.4482
2067.61	50.035
2069.74	47.9739
2071.87	52.0138
2073.99	42.6952
2076.12	46.7384
2078.25	50.1794
2080.37	51.4062
2082.5	51.2506
2084.63	47.8612
2086.76	53.2381
2088.88	50.2471
2091.01	47.4704
2093.14	44.8582
2095.26	46.5752
2097.39	43.0021
2099.52	49.0003
2101.65	52.5825
2103.77	49.2783
2105.9	50.9993
2108.03	48.5243
2110.15	50.7729
2112.28	53.7157
2114.41	46.8962
2116.54	50.9147
2118.66	49.8859
2120.79	51.1004
2122.92	50.2106
2125.04	49.4154
2127.17	54.427
2129.3	42.8723
2131.43	50.2501
2133.55	48.6569
2135.68	50.3158
2137.81	51.0908
2139.93	50.7518
2142.06	47.7106
2144.19	46.8542
2146.32	52.7978
2148.44	51.0802
2150.57	48.1546
2152.7	48.8812
2154.82	51.3356
2156.95	52.6146
2159.08	57.3901
2161.21	47.8611
2163.33	48.8008
2165.46	47.9386
2167.59	51.6782
2169.71	45.7766
2171.84	48.8277
2173.97	56.6533
2176.1	48.2197
2178.22	46.3367
2180.35	50.0752
2182.48	50.4921
2184.6	51.8447
2186.73	50.5265
2188.86	54.1912
2190.99	47.2688
2193.11	51.6936
2195.24	48.9355
2197.37	50.6929
2199.49	48.4577
2201.62	48.7373
2203.75	49.0747
2205.875	47.5263
2208	54.7658
2210.13	53.3719
2212.26	50.0281
2214.38	47.9094
2216.51	57.165
2218.64	49.0166
2220.76	50.2366
2222.89	47.3
2225.02	50.3119
2227.15	45.6527
2229.27	52.8723
2231.4	47.3155
2233.53	51.4544
2235.65	46.0712
2237.78	50.4419
2239.91	47.8336
2242.04	55.9346
2244.16	51.3287
2246.29	56.2373
2248.42	49.4626
2250.54	54.4661
2252.67	52.5518
2254.8	48.0973
2256.93	52.2566
2259.05	56.8469
2261.18	55.5734
2263.31	53.4729
2265.43	50.8476
2267.56	53.2893
2269.69	52.7264
2271.82	51.0588
2273.94	52.1124
2276.07	55.5896
2278.2	51.7767
2280.32	56.8068
2282.45	56.759
2284.58	51.7376
2286.71	52.1192
2288.83	56.7024
2290.96	57.8759
2293.09	54.7744
2295.21	52.7193
2297.34	54.0973
2299.47	53.4431
2301.6	58.083
2303.72	55.0499
2305.85	52.9992
2307.98	55.0927
2310.1	52.1026
2312.23	53.6777
2314.36	56.502
2316.49	57.8126
2318.61	57.7906
2320.74	54.4013
2322.87	57.2064
2324.99	64.237
2327.12	77.9019
2329.25	76.4531
2331.375	56.7134
2333.5	54.8926
2335.63	56.6844
2337.76	54.569
2339.88	61.304
2342.01	55.3503
2344.14	57.3913
2346.26	52.3015
2348.39	58.5739
2350.52	54.1769
2352.65	61.4119
2354.77	59.8107
2356.9	57.9281
2359.03	56.8571
2361.15	55.46
2363.28	53.2534
2365.41	65.3806
2367.54	60.2167
2369.66	58.3449
2371.79	62.6468
2373.92	64.8818
2376.04	65.4028
2378.17	70.033
2380.3	62.4328
2382.43	63.667
2384.55	62.25
2386.68	67.171
2388.81	63.8092
2390.93	67.1404
2393.06	72.8307
2395.19	67.8367
2397.32	71.0726
2399.44	66.5237
2401.57	70.1168
2403.7	74.25
2405.82	72.7939
2407.95	72.2769
2410.08	73.6425
2412.21	75.1569
2414.33	75.996
2416.46	73.7083
2418.59	80.2776
2420.71	86.2025
2422.84	81.8644
2424.97	80.0525
2427.1	84.4524
2429.22	78
2431.35	80.1435
2433.48	83.6874
2435.6	85.431
2437.73	85.5597
2439.86	83.1425
2441.99	87.2899
2444.11	86.7998
2446.24	80.5687
2448.37	80.8225
2450.49	82.9608
2452.62	87.3166
2454.75	82.3815
2456.88	85.7622
2459	78.8712
2461.13	77.5081
2463.26	80.5087
2465.38	70.7092
2467.51	77.5878
2469.64	89.5204
2471.76	82.3202
2473.89	82.8068
2476.02	78.2139
2478.15	82.1938
2480.27	78.3393
2482.4	87.4161
2484.53	83.6087
2486.65	82.0722
2488.78	80.7268
2490.91	86.0196
2493.04	77.9182
2495.16	87.1946
2497.29	82.9862
2499.42	84.261
2501.54	90.1796
2503.67	87.6703
2505.8	83.5133
2507.93	85.7319
2510.05	85.0528
2512.18	83.3512
2514.31	80.6431
2516.43	79.8226
2518.56	88.76
2520.69	81.4941
2522.82	90.4117
2524.94	89.6
2527.07	87.2955
2529.2	87.3243
2531.32	84.7588
2533.45	90.3379
2535.58	97.2134
2537.71	95.925
2539.83	96.1221
2541.96	94.3835
2544.09	97.2081
2546.21	93.8887
2548.34	97.1981
2550.47	100.999
2552.6	96.2646
2554.72	98.2394
2556.85	102.653
2558.98	96.3953
2561.1	107.16
2563.23	109.641
2565.36	115.059
2567.49	110.255
2569.61	114.394
2571.74	119.107
2573.87	123.647
2575.99	123.372
2578.12	120.522
2580.25	132.563
2582.38	138.088
2584.5	124.782
2586.63	131.671
2588.76	142.984
2590.88	139.047
2593.01	142.766
2595.14	148.663
2597.27	151.12
2599.39	147.95
2601.52	166.157
2603.65	159.595
2605.77	171.76
2607.9	176.467
2610.03	186.827
2612.16	191.953
2614.28	196.51
2616.41	208.26
2618.54	208.096
2620.66	223.71
2622.79	226.343
2624.92	237
2627.04	241.119
2629.17	260.114
2631.3	268.563
2633.43	273.318
2635.55	299.321
2637.68	305.127
2639.81	317.857
2641.93	320.349
2644.06	324.53
2646.19	334.292
2648.32	340.891
2650.44	358.197
2652.57	354.673
2654.7	370.799
2656.82	375.536
2658.95	381.1
2661.08	378.303
2663.21	373.408
2665.33	385.532
2667.46	381.314
2669.59	376.625
2671.71	378.755
2673.84	380.46
2675.97	383.876
2678.1	381.418
2680.22	362.155
2682.35	368.055
2684.48	346.633
2686.6	344.628
2688.73	332.103
2690.86	330.648
2692.99	318.883
2695.11	308.366
2697.24	299.477
2699.37	292.576
2701.49	276.376
2703.62	276.513
2705.75	273.348
2707.88	248.681
2710	252.01
2712.13	240.671
2714.26	235.926
2716.38	220.892
2718.51	216.872
2720.64	208.037
2722.77	201.235
2724.89	194.365
2727.02	195.138
2729.15	186.162
2731.27	173.447
2733.4	181.173
2735.53	165.641
2737.66	163.582
2739.78	157.7
2741.91	151.423
2744.04	147.652
2746.16	145.394
2748.29	150.927
2750.42	142.33
2752.54	142.796
2754.67	133.974
2756.8	127.759
2758.93	124.987
2761.05	130.517
2763.18	450.093
2765.31	120.837
2767.43	121.637
2769.56	122.856
2771.69	119.727
2773.82	115.515
2775.94	113.91
2778.07	116.066
2780.2	113.484
2782.32	112.763
2784.45	107.531
2786.58	103.937
2788.71	105.258
2790.83	107.474
2792.96	108.931
2795.09	101.227
2797.21	108.408
2799.34	103.651
2801.47	97.1161
2803.6	99.1342
2805.72	104.506
2807.85	104.823
2809.98	98.8735
2812.1	98.0379
2814.23	101.728
2816.36	100.142
2818.49	100.807
2820.61	103.943
2822.74	98.7719
2824.87	102.345
2826.99	97.53
2829.12	103.769
2831.25	100.302
2833.38	101.495
2835.5	99.6567
2837.63	96.6949
2839.76	99.9949
2841.88	101.915
2844.01	96.0472
2846.14	97.7342
2848.27	105.938
2850.39	100.832
2852.52	105.839
2854.65	103.583
2856.77	105.581
2858.9	105.174
2861.03	104.498
2863.16	104.297
2865.28	110.842
2867.41	104.715
2869.54	109.055
2871.66	108.906
2873.79	110.907
2875.92	108.183
2878.05	107.476
2880.17	111.52
2882.3	106.144
2884.43	109.715
2886.55	113.602
2888.68	107.519
2890.81	108.483
2892.93	126.629
2895.06	121.531
2897.19	117.977
2899.32	118.389
2901.44	114.948
2903.57	122.33
2905.7	124.283
2907.82	116.206
2909.95	121.419
2912.08	126.211
2914.21	113.378
2916.33	121.232
2918.46	112.625
2920.59	119.58
2922.71	118.496
2924.84	120.252
2926.97	115.267
2929.1	112.337
2931.22	117.541
2933.35	113.024
2935.48	107.537
2937.6	110.022
2939.73	112.669
2941.86	108.174
2943.99	107.592
2946.11	103.85
2948.24	101.101
2950.37	100.284
2952.49	102.85
2954.62	99.9174
2956.75	96.3906
2958.88	101.842
2961	97.6613
2963.13	92.5156
2965.26	95.1065
2967.38	91.0888
2969.51	90.1874
2971.64	87.9332
2973.77	87.2123
2975.89	88.2237
2978.02	91.6301
2980.15	86.1853
2982.27	85.9322
2984.4	89.2655
2986.53	80.9088
2988.66	78.6357
2990.78	77.7965
2992.91	78.6051
2995.04	80.7266
2997.16	67.2209
2999.29	73.3758
3000	72.9846