File: Example Data/Raman/CNT - TIM/Raytheon/Al foil/2010/08-12-10/Al batch 15 - top.txt
300	41.4069
301.518	31.2824
303.037	37.0763
304.555	37.2174
306.073	42.09
307.592	31.3276
309.11	40.5493
310.628	29.9678
312.147	37.6125
313.665	34.5353
315.183	29.3171
316.702	36.6591
318.22	30.4132
319.738	33.654
321.257	32.5417
322.775	29.1655
324.294	31.5907
325.812	30.2953
327.33	25.9979
328.849	26.4045
330.367	26.8995
331.885	29.8647
333.404	30.2755
334.922	28.2552
336.44	27.7792
337.959	26.6638
339.477	27.8614
340.995	24.3597
342.514	34.2446
344.032	32.7113
345.55	29.0876
347.069	19.4342
348.587	26.349
350.105	27.6611
351.624	25.9644
353.142	22.5309
354.66	21.286
356.179	24.1466
357.697	28.2381
359.216	28.8642
360.734	34.7201
362.252	24.3018
363.771	18.207
365.289	25.8426
366.807	22.6567
368.326	26.3205
369.844	30.9812
371.362	26.8628
372.881	16.5191
374.399	25.3813
375.917	28.0801
377.436	27.1624
378.954	23.3901
380.472	25.5328
381.991	14.4108
383.509	22.7319
385.027	26.7911
386.546	19.4255
388.064	20.5736
389.582	27.004
391.101	18.138
392.619	22.4602
394.137	25.2625
395.656	19.3741
397.174	21.0316
398.693	17.8643
400.211	20.3789
401.729	19.1009
403.248	14.1541
404.766	17.7799
406.284	21.4392
407.803	22.0661
409.321	9.86333
410.839	22.2568
412.358	18.4032
413.876	26.7864
415.394	13.6076
416.913	13.9044
418.431	23.7105
419.949	9.72692
421.468	22.7211
422.986	12.0847
424.504	20.8123
426.023	18.2921
427.541	12.3625
429.059	15.3088
430.578	18.3457
432.096	15.3711
433.615	20.5488
435.133	22.0983
436.651	17.1354
438.17	12.2444
439.688	17.8036
441.206	8.21202
442.725	8.01251
444.243	11.3223
445.761	14.5735
447.28	17.1715
448.798	6.23804
450.316	14.6114
451.835	14.3976
453.353	8.84233
454.871	16.9699
456.39	6.89071
457.908	12.9527
459.426	12.0016
460.945	8.85441
462.463	6.32986
463.981	9.67202
465.5	12.3428
467.018	8.5232
468.536	16.0335
470.055	3.2625
471.573	5.46249
473.092	17.3883
474.61	5.60771
476.128	6.68722
477.647	9.23282
479.165	13.0958
480.683	11.2759
482.202	10.7144
483.72	2.43424
485.238	5.89551
486.757	2.98175
488.275	2.51969
489.793	-2.48937
491.312	1.43968
492.83	-3.62939
494.348	-0.386083
495.867	0.549615
497.385	2.68947
498.903	-5.51996
500.422	-7.39388
501.94	1.72434
503.458	3.7329
504.977	-2.88146
506.495	-4.31669
508.013	3.90653
509.532	-8.0193
511.05	-4.95548
512.569	-1.73133
514.087	0.912784
515.605	-4.81419
517.124	-0.825317
518.642	-8.82709
520.16	-3.56655
521.679	-9.15619
523.197	-7.44554
524.715	-5.61907
526.234	-3.373
527.752	-2.04117
529.27	-2.30319
530.789	-0.83522
532.307	-3.09879
533.825	-4.39953
535.344	-3.70985
536.862	-8.34975
538.38	-2.91938
539.899	-3.5686
541.417	-2.3703
542.935	-7.61418
544.454	-4.31587
545.972	-6.31824
547.491	-6.07151
549.009	-7.20145
550.527	-8.45472
552.046	-0.837274
553.564	-1.31014
555.082	2.5354
556.601	5.33341
558.119	0.388977
559.637	-2.70208
561.156	-5.34833
562.674	4.60336
564.192	-2.49961
565.711	11.2974
567.229	0.0197949
568.747	-0.645925
570.266	2.77727
571.784	-0.759797
573.302	-1.38101
574.821	3.86431
576.339	-0.575393
577.857	8.49727
579.376	2.04386
580.894	-2.54988
582.412	1.66695
583.931	10.1548
585.449	4.75717
586.968	-1.20657
588.486	-2.13373
590.004	-2.98967
591.523	5.60224
593.041	8.81512
594.559	3.54457
596.078	10.677
597.596	3.47553
599.114	-0.142028
600.633	4.29934
602.151	8.05728
603.669	-0.238616
605.188	-6.96461
606.706	6.1217
608.224	1.33687
609.743	8.53054
611.261	6.45544
612.779	1.1671
614.298	13.9674
615.816	-9.18929
617.334	2.44485
618.853	-1.1876
620.371	-1.98105
621.89	8.00011
623.408	1.86117
624.926	3.20532
626.445	5.79331
627.963	2.34115
629.481	6.15123
631	5.87182
632.518	0.607012
634.036	-2.79266
635.555	12.205
637.073	5.39907
638.591	7.6629
640.11	0.0741115
641.628	1.84093
643.146	4.28218
644.665	11.5237
646.183	9.31547
647.701	9.77159
649.22	7.48427
650.738	12.4041
652.256	7.98075
653.775	10.8013
655.293	11.5571
656.811	7.22031
658.33	6.10389
659.848	7.31811
661.367	10.6508
662.885	12.4578
664.403	13.1203
665.922	11.8518
667.44	9.11844
668.958	16.7266
670.477	2.45004
671.995	8.37842
673.513	11.3479
675.032	12.0212
676.55	8.5997
678.068	-0.673782
679.587	13.9779
681.105	8.87119
682.623	15.0077
684.142	13.0883
685.66	9.70802
687.178	-0.0441935
688.697	8.71733
690.215	23.6084
691.733	8.19617
693.252	10.1398
694.77	10.7665
696.289	9.17805
697.807	8.69088
699.325	7.9798
700.844	13.6858
702.362	11.5235
703.88	14.4718
705.399	8.76939
706.917	8.01098
708.435	9.85797
709.954	14.9712
711.472	9.7049
712.99	9.06815
714.509	10.8778
716.027	11.5852
717.545	16.4267
719.064	13.2207
720.582	13.9015
722.1	14.6017
723.619	22.9069
725.137	17.7681
726.655	19.5107
728.174	20.1591
729.692	12.3969
731.21	7.12417
732.729	22.5787
734.247	21.5113
735.766	19.8504
737.284	20.2969
738.802	14.7329
740.321	13.9866
741.839	13.1062
743.357	26.7586
744.876	17.3019
746.394	19.4931
747.912	24.102
749.431	18.5406
750.949	21.0723
752.467	22.542
753.986	19.3202
755.504	24.8234
757.022	25.8736
758.541	20.9832
760.059	27.338
761.577	19.0272
763.096	30.7054
764.614	24.9462
766.132	44.9012
767.651	32.0959
769.169	27.9272
770.6875	36.2411
772.206	24.6037
773.724	35.0012
775.242	41.2328
776.761	28.2799
778.279	33.9442
779.798	24.6042
781.316	36.5563
782.834	31.5988
784.353	26.3025
785.871	37.6166
787.389	29.3195
788.908	36.1843
790.426	28.5715
791.944	35.1663
793.463	31.354
794.981	38.6139
796.499	31.0485
798.018	33.4983
799.536	29.1566
801.054	31.805
802.573	36.0138
804.091	35.3784
805.609	37.9851
807.128	35.2674
808.646	28.296
810.164	39.2096
811.683	38.8636
813.201	42.3677
814.72	44.8
816.238	41.4853
817.756	37.9487
819.275	39.7957
820.793	55.5253
822.311	39.041
823.83	41.3697
825.348	38.4753
826.866	38.1176
828.385	42.3087
829.903	53.4358
831.421	38.5578
832.94	43.5086
834.458	44.1295
835.976	37.1125
837.495	56.3578
839.013	37.7502
840.531	39.7472
842.05	42.2323
843.568	37.291
845.086	37.8573
846.605	49.1701
848.123	43.0634
849.641	42.7704
851.16	47.659
852.678	41.8241
854.197	37.3516
855.715	50.4903
857.233	34.8703
858.752	40.871
860.27	42.9498
861.788	44.3394
863.307	41.2102
864.825	33.0192
866.343	28.3233
867.862	28.2564
869.38	26.4425
870.898	32.9669
872.417	32.6491
873.935	27.1553
875.453	35.063
876.972	23.7715
878.49	16.4549
880.008	24.9293
881.527	20.6772
883.045	20.1288
884.563	10.2727
886.082	12.8006
887.6	25.7394
889.119	21.8745
890.637	24.6375
892.155	5.88959
893.674	6.57709
895.192	11.7307
896.71	6.57841
898.229	20.07
899.747	13.1002
901.265	4.52975
902.784	-3.5159
904.302	4.72616
905.82	6.34812
907.339	6.41893
908.857	8.17415
910.375	1.26482
911.894	-1.87663
913.412	11.6783
914.93	-0.338924
916.449	-5.67305
917.967	3.0177
919.485	-8.22736
921.004	-5.06574
922.522	-5.16352
924.04	-0.15953
925.559	4.29474
927.077	8.70735
928.596	-5.39247
930.114	-7.33429
931.632	0.64487
933.151	-4.41449
934.669	-7.97783
936.187	-6.94143
937.706	-3.02609
939.224	-9.75408
940.742	-1.68766
942.261	-1.76914
943.779	2.68603
945.297	-10.0227
946.816	-3.89067
948.334	-9.817
949.852	2.13355
951.371	-8.69474
952.889	-6.14117
954.407	-0.404157
955.926	-3.94355
957.444	1.86523
958.962	-7.63483
960.481	2.2406
961.999	-6.66159
963.518	-15.6656
965.036	-1.7413
966.554	-6.1912
968.073	-9.2233
969.591	-6.99012
971.109	-13.439
972.628	0.41705
974.146	-10.4204
975.664	-4.80723
977.183	-13.3871
978.701	-11.1967
980.219	-4.2269
981.738	-5.99237
983.256	-12.0269
984.774	-5.45103
986.293	-0.723219
987.811	-3.31976
989.329	2.14822
990.848	-4.89797
992.366	-2.3697
993.884	-3.473
995.403	-10.469
996.921	-5.77645
998.439	-15.8911
999.958	-8.89234
1001.48	-3.86049
1002.99	-7.82621
1004.51	-10.4938
1006.03	1.77584
1007.55	-8.11478
1009.07	7.0677
1010.59	-3.30605
1012.1	-10.7719
1013.62	-2.07767
1015.14	-0.411015
1016.66	0.539061
1018.18	2.88957
1019.7	-4.54835
1021.21	1.70662
1022.73	-2.32556
1024.25	4.13033
1025.77	3.90669
1027.29	5.20365
1028.81	1.36659
1030.32	7.65026
1031.84	8.91025
1033.36	10.8381
1034.88	17.0533
1036.4	13.3415
1037.92	6.38802
1039.43	1.68305
1040.95	4.75199
1042.47	-0.773098
1043.99	7.87897
1045.51	16.0154
1047.03	13.9757
1048.54	24.3228
1050.06	5.55384
1051.58	9.41015
1053.1	0.543026
1054.62	8.36282
1056.14	11.3326
1057.66	14.4033
1059.17	17.6579
1060.69	12.0503
1062.21	19.8792
1063.73	18.0025
1065.25	3.74385
1066.77	11.4686
1068.28	17.3356
1069.8	12.3602
1071.32	10.2905
1072.84	15.6905
1074.36	13.1678
1075.88	13.9944
1077.39	12.3465
1078.91	3.24505
1080.43	10.5091
1081.95	11.5154
1083.47	14.5363
1084.99	6.58342
1086.5	16.7565
1088.02	5.65623
1089.54	12.551
1091.06	20.7044
1092.58	17.0953
1094.1	14.3706
1095.61	2.23623
1097.13	14.7979
1098.65	16.4687
1100.17	14.7682
1101.69	3.45272
1103.21	22.4733
1104.72	19.3449
1106.24	13.2517
1107.76	20.0046
1109.28	17.4712
1110.8	13.0324
1112.32	15.2074
1113.83	25.5171
1115.35	23.8949
1116.87	20.0038
1118.39	15.3179
1119.91	22.1949
1121.43	22.1806
1122.94	17.7533
1124.46	23.4831
1125.98	23.9735
1127.5	19.3608
1129.02	13.9424
1130.54	27.589
1132.05	22.7535
1133.57	33.4919
1135.09	24.9896
1136.61	18.9969
1138.13	39.1732
1139.65	32.0718
1141.16	24.3158
1142.68	32.3771
1144.2	36.1912
1145.72	28.2757
1147.24	41.7601
1148.76	31.7642
1150.27	32.2426
1151.79	45.9093
1153.31	37.197
1154.83	34.0435
1156.35	40.9367
1157.87	45.7802
1159.38	49.553
1160.9	44.7729
1162.42	50.9856
1163.94	44.9103
1165.46	45.7702
1166.98	48.8492
1168.49	54.1526
1170.01	50.881
1171.53	58.6516
1173.05	62.7643
1174.57	51.3782
1176.09	50.8012
1177.6	52.5751
1179.12	59.9838
1180.64	56.1517
1182.16	39.6615
1183.68	45.039
1185.2	53.8942
1186.71	49.9899
1188.23	53.6105
1189.75	54.4821
1191.27	68.651
1192.79	47.1413
1194.31	62.2084
1195.82	63.6748
1197.34	61.2566
1198.86	60.9596
1200.38	59.0431
1201.9	56.7261
1203.42	48.9146
1204.93	69.8435
1206.45	56.2838
1207.97	71.1786
1209.49	73.709
1211.01	66.9706
1212.53	71.4699
1214.04	69.3379
1215.56	67.8866
1217.08	71.0465
1218.6	77.655
1220.12	71.7997
1221.64	86.6489
1223.15	64.0287
1224.67	93.6979
1226.19	84.8774
1227.71	90.7522
1229.23	90.2391
1230.75	84.3898
1232.26	78.7854
1233.78	103.05
1235.3	87.301
1236.82	107.205
1238.34	105.178
1239.86	98.382
1241.375	117.684
1242.89	109.227
1244.41	121.12
1245.93	115.916
1247.45	118.274
1248.97	118.727
1250.48	149.676
1252	137.474
1253.52	146.556
1255.04	145.51
1256.56	153.362
1258.08	153.548
1259.6	150.681
1261.11	166.693
1262.63	170.782
1264.15	176.516
1265.67	194.705
1267.19	185.787
1268.71	206.219
1270.22	204.527
1271.74	218.662
1273.26	213.388
1274.78	226.782
1276.3	228.904
1277.82	256.299
1279.33	248.407
1280.85	265.405
1282.37	257.639
1283.89	278.42
1285.41	271.834
1286.93	296.362
1288.44	308.071
1289.96	305.709
1291.48	309.55
1293	313.781
1294.52	325.673
1296.04	342.296
1297.55	369.583
1299.07	383.462
1300.59	398.267
1302.11	403.22
1303.63	404.691
1305.15	454.161
1306.66	465.823
1308.18	474.669
1309.7	469.482
1311.22	509.527
1312.74	499.966
1314.26	526.261
1315.77	546.327
1317.29	576.514
1318.81	582.652
1320.33	571.998
1321.85	624.21
1323.37	588.748
1324.88	678.734
1326.4	673.182
1327.92	682.343
1329.44	687.909
1330.96	701.065
1332.48	740.056
1333.99	730.023
1335.51	717.153
1337.03	758.622
1338.55	757.083
1340.07	755.387
1341.59	789.069
1343.1	764.63
1344.62	782.229
1346.14	775.072
1347.66	804.06
1349.18	778.161
1350.7	762.158
1352.21	775.151
1353.73	769.978
1355.25	759.216
1356.77	743.206
1358.29	734.586
1359.81	734.982
1361.32	694.78
1362.84	678.241
1364.36	672.817
1365.88	641.916
1367.4	657.377
1368.92	611.693
1370.43	592.802
1371.95	587.094
1373.47	568.174
1374.99	543.285
1376.51	527.644
1378.03	501.135
1379.54	505.905
1381.06	474.783
1382.58	481.013
1384.1	463.154
1385.62	429.729
1387.14	410.781
1388.65	378.825
1390.17	395.128
1391.69	343.805
1393.21	374.864
1394.73	362.061
1396.25	315.866
1397.76	319.812
1399.28	298.378
1400.8	286.744
1402.32	278.441
1403.84	261.736
1405.36	258.371
1406.87	238.542
1408.39	242.587
1409.91	238.496
1411.43	220.299
1412.95	210.49
1414.47	195.321
1415.98	179.506
1417.5	188.571
1419.02	171.361
1420.54	146.896
1422.06	163.054
1423.58	150.377
1425.09	137.075
1426.61	138.188
1428.13	116.833
1429.65	122.96
1431.17	114.417
1432.69	118.213
1434.2	111.57
1435.72	94.1381
1437.24	94.1235
1438.76	75.8583
1440.28	77.0167
1441.8	82.4896
1443.32	79.7469
1444.83	70.3347
1446.35	66.0866
1447.87	61.2049
1449.39	68.3495
1450.91	77.3352
1452.43	58.5339
1453.94	55.5105
1455.46	55.8375
1456.98	41.618
1458.5	49.2488
1460.02	38.8869
1461.54	40.4351
1463.05	35.5489
1464.57	40.7768
1466.09	23.0934
1467.61	31.2173
1469.13	35.5253
1470.65	21.6464
1472.16	15.4822
1473.68	19.5533
1475.2	17.0028
1476.72	13.8298
1478.24	0.875972
1479.76	3.0973
1481.27	29.7746
1482.79	14.1174
1484.31	-0.530409
1485.83	27.368
1487.35	26.6622
1488.87	9.11924
1490.38	13.8196
1491.9	18.6876
1493.42	18.1641
1494.94	37.8866
1496.46	23.6727
1497.98	20.1061
1499.49	33.2846
1501.01	29.7078
1502.53	52.5168
1504.05	62.2242
1505.57	53.6781
1507.09	49.3037
1508.6	61.6304
1510.12	61.6304
1511.64	65.7598
1513.16	80.1947
1514.68	77.9115
1516.2	77.1987
1517.71	85.9907
1519.23	79.5676
1520.75	103.199
1522.27	96.4329
1523.79	117.747
1525.31	113.609
1526.82	133.919
1528.34	128.536
1529.86	138.771
1531.38	142.842
1532.9	147.27
1534.42	148.16
1535.93	163.954
1537.45	176.007
1538.97	198.946
1540.49	193.286
1542.01	206.457
1543.53	196.723
1545.04	200.529
1546.56	228.057
1548.08	240.612
1549.6	269.44
1551.12	254.381
1552.64	273.233
1554.15	290.031
1555.67	320.371
1557.19	352.185
1558.71	371.569
1560.23	340.919
1561.75	368.524
1563.26	389.525
1564.78	406.275
1566.3	433.057
1567.82	451.111
1569.34	468.409
1570.86	456.263
1572.37	501.022
1573.89	521.733
1575.41	548.102
1576.93	587.628
1578.45	589.914
1579.97	626.653
1581.48	645.657
1583	650.994
1584.52	694.174
1586.04	707.055
1587.56	735.996
1589.08	747.844
1590.59	754.486
1592.11	778.01
1593.63	820.86
1595.15	814.532
1596.67	814.096
1598.19	832.92
1599.7	830.57
1601.22	852.089
1602.74	827.765
1604.26	841.459
1605.78	845.779
1607.3	825.183
1608.81	823.242
1610.33	797.383
1611.85	782.681
1613.37	794.903
1614.89	764.994
1616.41	741.718
1617.92	718.251
1619.44	701.624
1620.96	673.579
1622.48	655.63
1624	617.695
1625.52	582.141
1627.04	549.372
1628.55	519.321
1630.07	495.228
1631.59	463.162
1633.11	445.105
1634.63	410.636
1636.15	395.247
1637.66	371.009
1639.18	354.981
1640.7	325.005
1642.22	300.872
1643.74	278.16
1645.26	279.414
1646.77	252.175
1648.29	235.472
1649.81	207.992
1651.33	199.775
1652.85	187.606
1654.37	175.897
1655.88	160.788
1657.4	147.97
1658.92	134.827
1660.44	126.268
1661.96	108.547
1663.48	103.885
1664.99	100.354
1666.51	88.594
1668.03	76.7733
1669.55	67.0681
1671.07	63.9308
1672.59	59.5587
1674.1	50.9422
1675.62	42.8178
1677.14	40.6412
1678.66	32.5135
1680.18	29.0945
1681.7	29.1009
1683.21	26.7246
1684.73	20.0884
1686.25	22.2709
1687.77	13.6371
1689.29	11.2117
1690.81	12.3554
1692.32	9.23715
1693.84	10.1532
1695.36	6.65196
1696.88	12.7014
1698.4	7.35483
1699.92	10.7436
1701.43	1.27231
1702.95	13.8714
1704.47	3.26992
1705.99	11.1424
1707.51	5.30065
1709.03	7.64313
1710.54	4.34624
1712.06	8.81272
1713.58	8.29303
1715.1	7.46417
1716.62	8.13195
1718.14	0.263385
1719.65	3.64174
1721.17	8.03485
1722.69	8.37481
1724.21	9.36747
1725.73	5.51157
1727.25	6.23381
1728.76	5.09867
1730.28	9.03411
1731.8	10.9686
1733.32	10.1554
1734.84	9.57299
1736.36	11.127
1737.87	12.1302
1739.39	1.77517
1740.91	0.630439
1742.43	6.128
1743.95	1.06003
1745.47	4.95134
1746.98	2.72133
1748.5	-0.973768
1750.02	3.99421
1751.54	-1.97812
1753.06	1.89507
1754.58	3.63124
1756.09	-1.45094
1757.61	-1.15335
1759.13	-5.5242
1760.65	-0.0388333
1762.17	-3.14522
1763.69	-0.807615
1765.2	-3.97224
1766.72	-6.23638
1768.24	-2.73768
1769.76	-8.67058
1771.28	-1.06158
1772.8	-4.80575
1774.31	-2.81133
1775.83	-6.9357
1777.35	-5.18722
1778.87	-5.1052
1780.39	-5.05674
1781.91	-15.6621
1783.42	-8.34862
1784.94	-8.5192
1786.46	-7.00631
1787.98	-7.29514
1789.5	-8.47359
1791.02	-10.4819
1792.53	-4.38454
1794.05	-8.39665
1795.57	-4.25469
1797.09	-10.4348
1798.61	-3.76295
1800.13	-2.13297
1801.64	-0.703817
1803.16	-5.37971
1804.68	-9.52201
1806.2	-12.55
1807.72	-6.36423
1809.24	-4.73394
1810.76	-6.20277
1812.27	-13.1653
1813.79	-10.5714
1815.31	-2.23436
1816.83	-6.34593
1818.35	-4.77369
1819.86	-3.85462
1821.38	-10.9319
1822.9	-7.93673
1824.42	-6.05067
1825.94	-6.31584
1827.46	-14.2237
1828.98	-11.2345
1830.49	-3.23145
1832.01	-10.5842
1833.53	-5.57286
1835.05	-2.10119
1836.57	-11.5507
1838.09	-7.91929
1839.6	-5.40263
1841.12	-9.86412
1842.64	-11.4146
1844.16	-5.21879
1845.68	-6.13951
1847.2	-3.8096
1848.71	-2.88426
1850.23	-5.75417
1851.75	-1.92304
1853.27	-2.83853
1854.79	-2.75722
1856.31	-4.88232
1857.82	-13.7707
1859.34	-0.897267
1860.86	-4.35308
1862.38	-7.59652
1863.9	-2.30575
1865.42	-7.82863
1866.93	-10.3427
1868.45	-1.14241
1869.97	-6.26225
1871.49	-7.19435
1873.01	-1.79174
1874.53	-0.572674
1876.04	1.62763
1877.56	0.600562
1879.08	0.613423
1880.6	-3.06824
1882.12	-9.14356
1883.64	-7.45742
1885.15	-1.38832
1886.67	-0.801114
1888.19	-6.43522
1889.71	-5.30435
1891.23	3.72295
1892.75	-0.834702
1894.26	-5.74346
1895.78	-6.96681
1897.3	1.32038
1898.82	-1.15088
1900.34	-5.94782
1901.86	0.738659
1903.37	0.663688
1904.89	-8.59004
1906.41	-6.68611
1907.93	-0.843834
1909.45	0.960601
1910.97	-2.51958
1912.48	-3.34935
1914	-3.06841
1915.52	-2.59769
1917.04	2.90462
1918.56	-1.04009
1920.08	1.52885
1921.59	-3.24193
1923.11	-3.18843
1924.63	-0.0991515
1926.15	1.44961
1927.67	4.8183
1929.19	-2.93793
1930.7	-1.8293
1932.22	0.643339
1933.74	5.71796
1935.26	-0.126515
1936.78	-2.24387
1938.3	6.54368
1939.81	4.39263
1941.33	0.12408
1942.85	4.47085
1944.37	2.99194
1945.89	-4.38814
1947.41	1.57865
1948.92	-1.06678
1950.44	3.58535
1951.96	7.12339
1953.48	3.97449
1955	-1.49559
1956.52	-0.845292
1958.03	2.2091
1959.55	4.68971
1961.07	1.9312
1962.59	3.93217
1964.11	4.25896
1965.63	0.563664
1967.14	3.20155
1968.66	2.9859
1970.18	-2.21792
1971.7	3.41603
1973.22	-3.04914
1974.74	-3.37491
1976.25	-5.55417
1977.77	2.25783
1979.29	-0.827368
1980.81	-1.24593
1982.33	-0.450065
1983.85	-2.30647
1985.36	-2.86225
1986.88	1.48011
1988.4	-1.44186
1989.92	2.30399
1991.44	-0.851755
1992.96	-3.06828
1994.47	-2.23097
1995.99	-2.14453
1997.51	1.4077
1999.03	-2.2115
2000.55	0.352977
2002.07	1.47782
2003.58	-5.20905
2005.1	-0.87901
2006.62	5.29184
2008.14	-0.81404
2009.66	-2.35509
2011.18	-4.30719
2012.7	0.973084
2014.21	-6.75991
2015.73	1.04002
2017.25	-5.38729
2018.77	-4.93926
2020.29	-3.79666
2021.81	-0.386248
2023.32	-4.54401
2024.84	-1.99296
2026.36	-3.4363
2027.88	-6.40485
2029.4	-3.18318
2030.92	-1.25339
2032.43	-0.0207985
2033.95	-1.61296
2035.47	7.22711
2036.99	-0.931857
2038.51	5.04914
2040.03	1.80412
2041.54	11.3459
2043.06	2.23203
2044.58	3.43641
2046.1	7.48838
2047.62	-1.40289
2049.14	4.38167
2050.65	-2.04452
2052.17	-4.62876
2053.69	10.0973
2055.21	3.46388
2056.73	0.165692
2058.25	-4.41266
2059.76	2.35115
2061.28	2.39574
2062.8	-0.0202876
2064.32	0.222767
2065.84	3.71727
2067.36	-4.61246
2068.87	-1.19626
2070.39	3.3983
2071.91	5.22302
2073.43	0.750763
2074.95	-0.61471
2076.47	7.11451
2077.98	4.5475
2079.5	-4.39985
2081.02	5.88361
2082.54	6.81275
2084.06	4.166
2085.58	7.69481
2087.09	1.32047
2088.61	8.31011
2090.13	7.48793
2091.65	6.52996
2093.17	6.72087
2094.69	3.11624
2096.2	9.79203
2097.72	9.95711
2099.24	10.2479
2100	9.22466