File: Example Data/Raman/CNT - TIM/Raytheon/Al foil/2010/08-12-10/Al batch 14 - bottom.txt
300	54.6338
301.518	76.8022
303.037	71.3809
304.555	62.1748
306.073	64.9785
307.592	64.5619
309.11	63.6786
310.628	56.3919
312.147	66.538
313.665	57.9924
315.183	60.8679
316.702	69.2633
318.22	61.7886
319.738	54.6953
321.257	57.4392
322.775	59.2498
324.294	61.3354
325.812	56.0509
327.33	55.4888
328.849	62.1458
330.367	45.354
331.885	52.2509
333.404	60.5842
334.922	58.315
336.44	51.5199
337.959	56.1823
339.477	49.3245
340.995	55.6147
342.514	51.1547
344.032	55.4471
345.55	56.9981
347.069	67.7609
348.587	54.7998
350.105	44.089
351.624	51.1895
353.142	47.7224
354.66	46.6942
356.179	43.4162
357.697	53.9361
359.216	42.2521
360.734	43.8897
362.252	43.9349
363.771	43.7988
365.289	51.0795
366.807	43.9857
368.326	49.4997
369.844	50.9624
371.362	51.7253
372.881	35.6456
374.399	47.5485
375.917	40.088
377.436	42.9973
378.954	36.643
380.472	44.871
381.991	40.2972
383.509	37.9738
385.027	35.9402
386.546	47.2379
388.064	43.6607
389.582	42.6974
391.101	41.4813
392.619	33.3421
394.137	35.8895
395.656	29.9343
397.174	28.6142
398.693	40.8773
400.211	36.3568
401.729	44.8133
403.248	40.5306
404.766	35.7552
406.284	37.179
407.803	30.7543
409.321	31.4984
410.839	40.0456
412.358	32.8587
413.876	41.4373
415.394	32.8203
416.913	43.2307
418.431	31.1194
419.949	35.4223
421.468	29.7222
422.986	39.5044
424.504	32.3816
426.023	27.2909
427.541	29.4564
429.059	28.8108
430.578	32.2426
432.096	28.6731
433.615	35.6822
435.133	24.1438
436.651	30.922
438.17	37.4304
439.688	26.0448
441.206	24.4063
442.725	32.2199
444.243	28.6807
445.761	25.0709
447.28	25.8581
448.798	30.1013
450.316	24.3381
451.835	19.5523
453.353	29.3376
454.871	25.4773
456.39	26.2538
457.908	25.1569
459.426	26.6804
460.945	27.0518
462.463	12.5154
463.981	16.3195
465.5	16.3788
467.018	24.0404
468.536	24.4313
470.055	20.2922
471.573	23.1401
473.092	17.7878
474.61	20.5209
476.128	19.0609
477.647	21.2861
479.165	9.5638
480.683	13.3547
482.202	20.348
483.72	14.1576
485.238	13.4186
486.757	14.0774
488.275	10.0908
489.793	2.01297
491.312	12.3984
492.83	10.7743
494.348	10.683
495.867	8.82462
497.385	4.23264
498.903	4.73173
500.422	4.60553
501.94	7.74999
503.458	4.59423
504.977	2.87037
506.495	7.70943
508.013	4.60107
509.532	-1.0593
511.05	2.97497
512.569	5.68525
514.087	2.51049
515.605	8.13166
517.124	7.15067
518.642	-4.7828
520.16	-0.570185
521.679	1.58524
523.197	2.90902
524.715	3.67526
526.234	6.68624
527.752	2.58686
529.27	10.2906
530.789	-5.27993
532.307	3.07293
533.825	-2.912
535.344	0.142815
536.862	-1.95505
538.38	-2.61483
539.899	2.0586
541.417	-5.62588
542.935	5.26689
544.454	3.65366
545.972	6.79054
547.491	-1.1204
549.009	2.71868
550.527	4.03888
552.046	2.56234
553.564	-2.64489
555.082	0.0829636
556.601	6.82485
558.119	1.79061
559.637	5.94185
561.156	2.89996
562.674	4.14539
564.192	1.58581
565.711	-0.949725
567.229	2.50029
568.747	1.10282
570.266	2.19093
571.784	5.7453
573.302	0.589064
574.821	-3.17839
576.339	3.23282
577.857	4.18977
579.376	2.55501
580.894	2.25555
582.412	0.263816
583.931	-2.00862
585.449	-0.31099
586.968	2.49207
588.486	1.24056
590.004	-1.0333
591.523	3.69234
593.041	3.32375
594.559	3.30247
596.078	-1.10713
597.596	6.45606
599.114	-1.43055
600.633	8.00131
602.151	3.83669
603.669	1.04816
605.188	6.31449
606.706	0.210514
608.224	1.97542
609.743	-3.84104
611.261	-4.26877
612.779	0.897251
614.298	0.577924
615.816	1.3577
617.334	0.561369
618.853	-0.71294
620.371	9.05358
621.89	5.46094
623.408	7.51871
624.926	9.02
626.445	-1.70712
627.963	7.97747
629.481	8.61258
631	6.80559
632.518	3.20888
634.036	7.30652
635.555	3.31939
637.073	4.4053
638.591	8.66133
640.11	13.934
641.628	7.94268
643.146	4.87279
644.665	6.58595
646.183	4.89031
647.701	10.8839
649.22	7.11067
650.738	20.2263
652.256	7.48189
653.775	8.02315
655.293	8.25737
656.811	11.5065
658.33	13.439
659.848	8.49657
661.367	13.7973
662.885	10.8894
664.403	15.1028
665.922	13.0028
667.44	9.90616
668.958	4.6947
670.477	13.4884
671.995	15.6337
673.513	9.38496
675.032	13.5543
676.55	17.1423
678.068	14.1684
679.587	0.932097
681.105	17.9855
682.623	11.8844
684.142	12.4316
685.66	8.55879
687.178	9.45674
688.697	12.9701
690.215	9.3592
691.733	13.4058
693.252	11.5719
694.77	9.14694
696.289	11.545
697.807	9.52859
699.325	0.872737
700.844	1.12492
702.362	8.56516
703.88	11.0954
705.399	9.2192
706.917	7.48857
708.435	16.2201
709.954	21.8066
711.472	7.56053
712.99	15.9019
714.509	8.03869
716.027	14.6971
717.545	10.7529
719.064	16.5889
720.582	17.4964
722.1	18.9713
723.619	16.5963
725.137	18.6036
726.655	16.9029
728.174	21.2554
729.692	32.1389
731.21	26.1585
732.729	22.6474
734.247	19.9011
735.766	29.2291
737.284	25.5961
738.802	10.7927
740.321	25.9862
741.839	23.2381
743.357	20.6211
744.876	26.9311
746.394	21.2451
747.912	26.1584
749.431	12.6029
750.949	26.1709
752.467	29.7413
753.986	22.0482
755.504	26.295
757.022	26.3884
758.541	20.775
760.059	22.6665
761.577	30.929
763.096	23.9487
764.614	32.0418
766.132	32.942
767.651	37.4684
769.169	29.0223
770.6875	27.0305
772.206	36.8374
773.724	33.9826
775.242	10.3128
776.761	30.1855
778.279	26.1969
779.798	34.4737
781.316	23.6731
782.834	25.5251
784.353	31.9576
785.871	36.6296
787.389	31.384
788.908	33.9072
790.426	34.9294
791.944	37.2177
793.463	33.2857
794.981	25.519
796.499	29.4049
798.018	38.9531
799.536	39.9657
801.054	43.1726
802.573	35.4806
804.091	44.4202
805.609	36.6938
807.128	38.0102
808.646	42.4004
810.164	40.9008
811.683	35.6158
813.201	34.0172
814.72	35.206
816.238	41.7697
817.756	42.3423
819.275	48.1609
820.793	42.9936
822.311	45.2559
823.83	32.862
825.348	50.762
826.866	38.9073
828.385	51.1187
829.903	46.5422
831.421	42.4312
832.94	46.4787
834.458	49.6319
835.976	51.6131
837.495	37.9797
839.013	43.0666
840.531	41.4425
842.05	44.4008
843.568	53.9118
845.086	44.5613
846.605	47.4878
848.123	42.722
849.641	52.8961
851.16	40.1571
852.678	39.0321
854.197	47.4921
855.715	55.1588
857.233	50.4709
858.752	45.8954
860.27	44.0562
861.788	49.9099
863.307	44.4501
864.825	40.8287
866.343	36.0767
867.862	29.9876
869.38	44.6733
870.898	24.3382
872.417	28.0522
873.935	33.8573
875.453	24.7586
876.972	24.4593
878.49	20.7573
880.008	26.5886
881.527	23.8556
883.045	27.5133
884.563	27.8458
886.082	18.9405
887.6	14.5983
889.119	20.1156
890.637	22.411
892.155	18.2003
893.674	18.2562
895.192	16.4172
896.71	21.3447
898.229	13.9766
899.747	11.104
901.265	8.78932
902.784	10.559
904.302	7.80986
905.82	16.7596
907.339	0.945248
908.857	2.70885
910.375	4.72503
911.894	3.48368
913.412	-0.450412
914.93	10.3309
916.449	0.259221
917.967	13.4524
919.485	5.05119
921.004	6.39094
922.522	-2.09978
924.04	-10.899
925.559	-2.82273
927.077	3.69245
928.596	0.66542
930.114	-5.89757
931.632	-1.45551
933.151	-4.31174
934.669	-2.36428
936.187	-5.32559
937.706	4.94829
939.224	-2.38129
940.742	-11.7737
942.261	-10.7612
943.779	1.31575
945.297	-5.32192
946.816	-1.58154
948.334	-11.5467
949.852	-8.15106
951.371	-8.33927
952.889	-6.55544
954.407	-6.79255
955.926	-11.028
957.444	-3.26445
958.962	-10.5069
960.481	-12.8926
961.999	-13.4153
963.518	-14.5256
965.036	-14.67
966.554	-6.07283
968.073	-21.4954
969.591	-10.8083
971.109	-20.8163
972.628	-26.1108
974.146	-24.1537
975.664	-18.3936
977.183	-24.9536
978.701	-26.7057
980.219	-18.1876
981.738	-26.2778
983.256	-29.0657
984.774	-17.3804
986.293	-22.6208
987.811	-22.5196
989.329	-24.8024
990.848	-31.8492
992.366	-33.645
993.884	-28.9037
995.403	-27.9066
996.921	-22.5564
998.439	-33.6694
999.958	-30.0274
1001.48	-30.2397
1002.99	-29.0505
1004.51	-33.0235
1006.03	-15.5627
1007.55	-21.8207
1009.07	-26.0623
1010.59	-28.9259
1012.1	-26.883
1013.62	-15.9808
1015.14	-25.4634
1016.66	-16.0085
1018.18	-18.1463
1019.7	-30.3257
1021.21	-19.2651
1022.73	-21.4055
1024.25	-20.4504
1025.77	-23.1252
1027.29	-33.0813
1028.81	-26.5495
1030.32	-20.7237
1031.84	-25.3447
1033.36	-17.6514
1034.88	-25.2408
1036.4	-21.2531
1037.92	-16.8245
1039.43	-20.8687
1040.95	-26.0234
1042.47	-21.3675
1043.99	-33.888
1045.51	-17.6565
1047.03	-17.9302
1048.54	-19.3549
1050.06	-22.5603
1051.58	-21.0514
1053.1	-25.8173
1054.62	-25.0122
1056.14	-21.7807
1057.66	-24.1024
1059.17	-22.0016
1060.69	-25.2422
1062.21	-16.7623
1063.73	-23.011
1065.25	-23.7554
1066.77	-20.9962
1068.28	-13.0376
1069.8	-22.2294
1071.32	-25.6615
1072.84	-23.0412
1074.36	-28.5264
1075.88	-18.6388
1077.39	-23.0473
1078.91	-20.3666
1080.43	-19.5008
1081.95	-21.8858
1083.47	-25.0623
1084.99	-17.8242
1086.5	-27.5557
1088.02	-22.3938
1089.54	-19.016
1091.06	-14.5573
1092.58	-26.1236
1094.1	-18.9596
1095.61	-18.491
1097.13	-24.4665
1098.65	-16.9917
1100.17	-13.3417
1101.69	-14.6868
1103.21	-17.2322
1104.72	-23.7477
1106.24	-18.3392
1107.76	-25.9483
1109.28	-20.8847
1110.8	-10.9401
1112.32	-15.071
1113.83	-11.6551
1115.35	-11.1593
1116.87	-7.65281
1118.39	-13.9302
1119.91	-15.824
1121.43	-5.78413
1122.94	-4.09191
1124.46	-11.7152
1125.98	-10.5185
1127.5	-3.97625
1129.02	-6.49054
1130.54	-0.202729
1132.05	-5.90867
1133.57	-1.68247
1135.09	-0.70292
1136.61	-4.31456
1138.13	-0.681993
1139.65	13.7734
1141.16	-1.72173
1142.68	-0.186762
1144.2	3.94059
1145.72	16.9792
1147.24	11.7933
1148.76	4.48104
1150.27	19.4832
1151.79	20.3133
1153.31	31.9832
1154.83	15.1457
1156.35	23.3686
1157.87	15.5461
1159.38	22.929
1160.9	14.849
1162.42	19.5827
1163.94	29.7266
1165.46	18.0843
1166.98	21.8928
1168.49	19.5116
1170.01	29.1389
1171.53	17.6627
1173.05	28.8471
1174.57	21.9778
1176.09	30.3525
1177.6	32.1927
1179.12	23.5508
1180.64	17.3788
1182.16	21.0903
1183.68	27.7432
1185.2	24.7778
1186.71	25.4889
1188.23	34.7733
1189.75	28.1379
1191.27	32.4552
1192.79	26.6535
1194.31	29.3996
1195.82	26.7668
1197.34	21.1912
1198.86	21.4715
1200.38	32.1038
1201.9	34.0849
1203.42	33.0053
1204.93	36.9322
1206.45	36.6622
1207.97	24.6477
1209.49	35.8209
1211.01	39.1652
1212.53	33.6091
1214.04	41.1718
1215.56	43.4194
1217.08	40.188
1218.6	49.0197
1220.12	34.0501
1221.64	44.5488
1223.15	43.5089
1224.67	58.0934
1226.19	67.0873
1227.71	50.8934
1229.23	50.7644
1230.75	60.8229
1232.26	53.9836
1233.78	68.5515
1235.3	67.8831
1236.82	95.9678
1238.34	71.6602
1239.86	63.1659
1241.375	75.3017
1242.89	86.1691
1244.41	81.9841
1245.93	84.6562
1247.45	98.7458
1248.97	88.6668
1250.48	103.352
1252	85.9854
1253.52	97.8386
1255.04	104.98
1256.56	93.8648
1258.08	125.184
1259.6	118.76
1261.11	123.866
1262.63	128.167
1264.15	136.93
1265.67	144.296
1267.19	142.003
1268.71	160.077
1270.22	170.211
1271.74	151.433
1273.26	169.302
1274.78	164.256
1276.3	169.146
1277.82	191.253
1279.33	204.761
1280.85	208.448
1282.37	208.948
1283.89	207.693
1285.41	225.901
1286.93	229.895
1288.44	231.999
1289.96	240.756
1291.48	265.677
1293	281.932
1294.52	275.597
1296.04	298.86
1297.55	280.85
1299.07	335.518
1300.59	338.597
1302.11	354.89
1303.63	327.594
1305.15	352.74
1306.66	365.833
1308.18	367.532
1309.7	405.426
1311.22	376.802
1312.74	414.359
1314.26	430.185
1315.77	464.02
1317.29	457.527
1318.81	452.125
1320.33	477.05
1321.85	481.336
1323.37	504.395
1324.88	498.267
1326.4	503.913
1327.92	562.856
1329.44	504.931
1330.96	552.977
1332.48	559.112
1333.99	533.247
1335.51	569.53
1337.03	558.402
1338.55	606.87
1340.07	578.393
1341.59	579.1
1343.1	598.125
1344.62	586.206
1346.14	582.068
1347.66	594.317
1349.18	585.143
1350.7	575.521
1352.21	600.498
1353.73	562.138
1355.25	557.998
1356.77	530.431
1358.29	545.174
1359.81	525.755
1361.32	530.581
1362.84	514.804
1364.36	511.423
1365.88	479.963
1367.4	494.695
1368.92	459.718
1370.43	451.413
1371.95	437.815
1373.47	426.997
1374.99	420.256
1376.51	399.636
1378.03	401.424
1379.54	384.903
1381.06	365.948
1382.58	355.904
1384.1	343.281
1385.62	343.597
1387.14	311.763
1388.65	302.585
1390.17	299.973
1391.69	272.524
1393.21	255.104
1394.73	268.382
1396.25	243.311
1397.76	236.405
1399.28	243.515
1400.8	231.47
1402.32	214.788
1403.84	188.193
1405.36	203.16
1406.87	187.024
1408.39	166.335
1409.91	169.627
1411.43	161.177
1412.95	152.025
1414.47	152.687
1415.98	140.332
1417.5	141.623
1419.02	136.781
1420.54	126.266
1422.06	108.799
1423.58	105.603
1425.09	119.225
1426.61	82.8116
1428.13	89.5831
1429.65	88.3712
1431.17	108.533
1432.69	88.8139
1434.2	66.2677
1435.72	65.8284
1437.24	51.3719
1438.76	69.0249
1440.28	65.2964
1441.8	50.1581
1443.32	59.5617
1444.83	42.0394
1446.35	49.1043
1447.87	50.4044
1449.39	32.1782
1450.91	49.7255
1452.43	34.1306
1453.94	50.5686
1455.46	35.0029
1456.98	27.5742
1458.5	25.4639
1460.02	3.46422
1461.54	30.5445
1463.05	21.1305
1464.57	25.0155
1466.09	17.9402
1467.61	22.8447
1469.13	30.9082
1470.65	16.8679
1472.16	3.58209
1473.68	14.8849
1475.2	-4.72468
1476.72	16.9778
1478.24	9.11146
1479.76	1.94261
1481.27	10.9637
1482.79	7.88996
1484.31	8.66868
1485.83	4.6976
1487.35	5.86596
1488.87	23.3934
1490.38	15.2395
1491.9	18.6502
1493.42	20.8485
1494.94	12.5165
1496.46	11.0113
1497.98	32.7566
1499.49	23.8335
1501.01	18.8428
1502.53	31.6507
1504.05	41.383
1505.57	32.6211
1507.09	34.0574
1508.6	35.0447
1510.12	48.648
1511.64	56.9711
1513.16	72.1561
1514.68	75.1933
1516.2	90.048
1517.71	76.9492
1519.23	66.9672
1520.75	108.552
1522.27	94.3118
1523.79	87.1288
1525.31	82.6878
1526.82	119.936
1528.34	118.356
1529.86	115.671
1531.38	136.664
1532.9	131.117
1534.42	129.592
1535.93	163.126
1537.45	147.725
1538.97	145.497
1540.49	167.208
1542.01	177.738
1543.53	185.134
1545.04	198.572
1546.56	190.724
1548.08	225.93
1549.6	214.721
1551.12	247.163
1552.64	259.578
1554.15	270.211
1555.67	297.81
1557.19	292.535
1558.71	323.183
1560.23	310.736
1561.75	318.173
1563.26	335.306
1564.78	360.375
1566.3	360.488
1567.82	384.117
1569.34	414.993
1570.86	432.756
1572.37	454.822
1573.89	454.799
1575.41	461.898
1576.93	486.349
1578.45	510.162
1579.97	541.02
1581.48	547.099
1583	571.512
1584.52	591.342
1586.04	593.702
1587.56	615.024
1589.08	631.684
1590.59	630.229
1592.11	634.405
1593.63	660.016
1595.15	651.309
1596.67	675.279
1598.19	697.58
1599.7	688.506
1601.22	706.7
1602.74	689.574
1604.26	694.983
1605.78	664.337
1607.3	671.973
1608.81	650.96
1610.33	633.58
1611.85	619.016
1613.37	626.828
1614.89	598.379
1616.41	570.05
1617.92	545.908
1619.44	536.672
1620.96	507.838
1622.48	485.082
1624	475.361
1625.52	432.115
1627.04	410.728
1628.55	392.55
1630.07	375.527
1631.59	349.495
1633.11	343.038
1634.63	319.005
1636.15	301.878
1637.66	279.522
1639.18	262.843
1640.7	245.81
1642.22	232.074
1643.74	221.884
1645.26	205.628
1646.77	204.602
1648.29	183.257
1649.81	171.34
1651.33	151.33
1652.85	144.847
1654.37	137.423
1655.88	125.129
1657.4	117.816
1658.92	107.902
1660.44	105.014
1661.96	86.0752
1663.48	81.9289
1664.99	66.4631
1666.51	62.3407
1668.03	60.631
1669.55	52.0961
1671.07	47.3702
1672.59	38.9296
1674.1	35.595
1675.62	42.4193
1677.14	25.5712
1678.66	22.2796
1680.18	15.3505
1681.7	26.6768
1683.21	21.1504
1684.73	14.5091
1686.25	22.134
1687.77	8.26863
1689.29	12.3882
1690.81	10.7343
1692.32	5.8433
1693.84	11.5812
1695.36	9.12589
1696.88	11.4832
1698.4	5.91123
1699.92	10.5967
1701.43	2.56008
1702.95	6.07096
1704.47	5.2278
1705.99	4.93932
1707.51	0.256103
1709.03	1.84994
1710.54	3.96768
1712.06	-5.53837
1713.58	3.79154
1715.1	-0.495811
1716.62	2.47476
1718.14	2.21853
1719.65	-2.67529
1721.17	-0.171922
1722.69	-2.49079
1724.21	-0.218361
1725.73	1.66398
1727.25	0.0892403
1728.76	-3.01178
1730.28	1.02168
1731.8	-1.8093
1733.32	-9.80105
1734.84	-3.31482
1736.36	-3.65259
1737.87	-10.9104
1739.39	-5.87659
1740.91	-8.58473
1742.43	-5.6639
1743.95	-2.4927
1745.47	-1.64833
1746.98	0.768364
1748.5	0.54308
1750.02	0.932017
1751.54	-3.08937
1753.06	-4.22867
1754.58	-1.6499
1756.09	1.22702
1757.61	-5.74252
1759.13	0.614556
1760.65	-2.39886
1762.17	-4.87688
1763.69	-4.47731
1765.2	-3.5373
1766.72	-3.65026
1768.24	-4.35778
1769.76	-2.36502
1771.28	-4.02276
1772.8	2.99241
1774.31	2.467
1775.83	-1.30666
1777.35	-7.04713
1778.87	-4.07994
1780.39	3.08044
1781.91	5.18144
1783.42	-2.79289
1784.94	-3.00614
1786.46	0.665041
1787.98	-9.59083
1789.5	-1.02968
1791.02	-1.59433
1792.53	-2.09948
1794.05	-3.99225
1795.57	0.402573
1797.09	-3.13141
1798.61	3.00385
1800.13	2.24583
1801.64	-0.375142
1803.16	-3.82786
1804.68	2.95494
1806.2	7.76549
1807.72	-1.00715
1809.24	-1.38555
1810.76	5.2884
1812.27	3.7557
1813.79	-3.55199
1815.31	3.40875
1816.83	-0.60701
1818.35	0.368674
1819.86	-0.732623
1821.38	-2.03277
1822.9	2.40639
1824.42	-1.82602
1825.94	-3.29729
1827.46	-2.97404
1828.98	-12.1602
1830.49	-3.10183
1832.01	-7.56995
1833.53	-1.75325
1835.05	-0.451453
1836.57	0.0802366
1838.09	-4.6809
1839.6	8.42083
1841.12	1.99724
1842.64	1.04545
1844.16	1.36068
1845.68	-0.443448
1847.2	-1.73228
1848.71	-9.94349
1850.23	-0.784121
1851.75	-5.16842
1853.27	4.16509
1854.79	2.02207
1856.31	-2.85989
1857.82	-1.26655
1859.34	-4.78022
1860.86	-0.0735246
1862.38	0.370282
1863.9	-0.188794
1865.42	1.12684
1866.93	3.54073
1868.45	-1.40524
1869.97	1.8482
1871.49	-3.99669
1873.01	-2.16238
1874.53	-1.37379
1876.04	-1.53367
1877.56	5.25318
1879.08	-10.5762
1880.6	-6.31659
1882.12	-0.198155
1883.64	3.05898
1885.15	0.746704
1886.67	-0.396165
1888.19	0.0509527
1889.71	-7.1459
1891.23	2.39317
1892.75	-1.33145
1894.26	-4.9665
1895.78	2.39106
1897.3	-6.26136
1898.82	4.71087
1900.34	1.81911
1901.86	1.98316
1903.37	11.3686
1904.89	5.30105
1906.41	-1.90929
1907.93	-2.67811
1909.45	-3.22369
1910.97	-5.76997
1912.48	-0.847559
1914	-2.26984
1915.52	-3.63309
1917.04	-5.77313
1918.56	-5.08476
1920.08	1.18524
1921.59	-2.19401
1923.11	-4.61328
1924.63	-0.104754
1926.15	-5.38602
1927.67	-3.15288
1929.19	-4.29318
1930.7	-1.80701
1932.22	-1.24736
1933.74	3.9657
1935.26	-3.86431
1936.78	-4.32678
1938.3	-0.937183
1939.81	-4.2728
1941.33	-5.68626
1942.85	-2.45412
1944.37	-3.07927
1945.89	-0.0789014
1947.41	-4.58221
1948.92	-7.4225
1950.44	-13.6672
1951.96	-4.20224
1953.48	-4.57821
1955	-3.09986
1956.52	0.963597
1958.03	5.47673
1959.55	1.01489
1961.07	-3.83738
1962.59	-7.08279
1964.11	-7.28851
1965.63	-2.68159
1967.14	-3.59044
1968.66	-2.58016
1970.18	-6.77086
1971.7	-5.78487
1973.22	-5.89635
1974.74	-0.546795
1976.25	-4.10908
1977.77	-3.38521
1979.29	-7.34285
1980.81	-3.755
1982.33	-6.39233
1983.85	-7.02357
1985.36	-4.44372
1986.88	-2.12487
1988.4	-4.09994
1989.92	-9.04116
1991.44	-3.54051
1992.96	-4.53586
1994.47	1.41799
1995.99	-2.213
1997.51	-2.34698
1999.03	-4.59486
2000.55	-2.49504
2002.07	0.778253
2003.58	-3.93599
2005.1	-4.41808
2006.62	-5.20588
2008.14	-6.90906
2009.66	-1.56243
2011.18	-3.25656
2012.7	-10.8192
2014.21	-5.06719
2015.73	-3.93041
2017.25	-11.0974
2018.77	1.07968
2020.29	0.632548
2021.81	-3.89737
2023.32	0.958449
2024.84	-3.92439
2026.36	-4.45763
2027.88	0.163872
2029.4	1.08867
2030.92	-4.18179
2032.43	-0.600546
2033.95	5.63476
2035.47	0.53514
2036.99	-3.50272
2038.51	-0.645452
2040.03	5.05801
2041.54	-4.06548
2043.06	1.44754
2044.58	-5.6739
2046.1	-0.937033
2047.62	0.876082
2049.14	-5.65873
2050.65	-10.5556
2052.17	-6.90142
2053.69	-1.26066
2055.21	-0.62842
2056.73	4.30897
2058.25	-1.77319
2059.76	-4.68244
2061.28	1.36988
2062.8	-4.10196
2064.32	-3.72536
2065.84	-0.0218811
2067.36	-5.39485
2068.87	-6.34703
2070.39	0.861771
2071.91	-5.95907
2073.43	-1.18975
2074.95	-6.14416
2076.47	-0.695386
2077.98	-7.74116
2079.5	-3.90695
2081.02	-3.31611
2082.54	-2.90889
2084.06	-0.623497
2085.58	-4.85864
2087.09	-6.03253
2088.61	-2.51109
2090.13	2.79809
2091.65	-0.814181
2093.17	-5.73585
2094.69	-2.53282
2096.2	-4.56646
2097.72	-5.63459
2099.24	0.146597
2100	4.75259