File: Example Data/Raman/CNT - TIM/Raytheon/Al foil/2010/08-12-10/Al batch 14 - top_1.txt
300	-14.2873
301.518	5.83186
303.037	6.00293
304.555	1.13911
306.073	-3.86872
307.592	5.56102
309.11	-2.68997
310.628	0.0542172
312.147	9.49091
313.665	1.60579
315.183	-4.51599
316.702	-4.88911
318.22	-1.79842
319.738	-3.79764
321.257	-8.08602
322.775	0.311489
324.294	3.83705
325.812	-5.39892
327.33	-1.58644
328.849	-3.263
330.367	-2.70314
331.885	-1.44894
333.404	-5.58976
334.922	-2.21862
336.44	-0.957953
337.959	-4.489
339.477	2.40515
340.995	-8.92678
342.514	-0.87973
344.032	5.02693
345.55	8.18692
347.069	2.60079
348.587	2.92597
350.105	-0.318185
351.624	-0.602684
353.142	-5.01499
354.66	-3.96975
356.179	6.22189
357.697	2.24476
359.216	1.42224
360.734	8.89452
362.252	-0.630494
363.771	4.23045
365.289	13.8886
366.807	4.11934
368.326	2.09901
369.844	2.62377
371.362	2.87147
372.881	-4.65888
374.399	-2.21462
375.917	1.22781
377.436	0.31465
378.954	-6.41354
380.472	-4.42271
381.991	0.64716
383.509	0.777333
385.027	-2.96209
386.546	-2.69212
388.064	-3.72433
389.582	5.45486
391.101	-0.0492457
392.619	1.01702
394.137	-5.12395
395.656	15.6301
397.174	-1.8073
398.693	2.44794
400.211	3.72167
401.729	0.13425
403.248	8.23018
404.766	-8.76544
406.284	0.655785
407.803	-2.51525
409.321	0.229639
410.839	8.09575
412.358	7.69915
413.876	0.526534
415.394	12.0828
416.913	5.99416
418.431	3.66837
419.949	-0.00852428
421.468	8.18491
422.986	-1.73295
424.504	2.93342
426.023	3.33764
427.541	1.63209
429.059	9.79376
430.578	5.2129
432.096	3.0751
433.615	-1.36971
435.133	12.5356
436.651	1.22472
438.17	-3.94836
439.688	3.9623
441.206	10.9643
442.725	7.53411
444.243	2.56639
445.761	6.01547
447.28	5.45268
448.798	-2.17304
450.316	-6.03889
451.835	2.88275
453.353	2.99007
454.871	3.04517
456.39	7.94497
457.908	1.36753
459.426	3.17489
460.945	2.67021
462.463	-2.05091
463.981	6.87919
465.5	2.53436
467.018	0.157363
468.536	3.96957
470.055	7.81026
471.573	11.9509
473.092	-4.28581
474.61	5.7258
476.128	3.0588
477.647	3.58402
479.165	1.11828
480.683	6.92509
482.202	2.22415
483.72	-0.558886
485.238	2.37659
486.757	3.17623
488.275	-3.28402
489.793	3.32186
491.312	1.28434
492.83	-0.0205784
494.348	2.20585
495.867	-1.98728
497.385	2.78791
498.903	-4.76282
500.422	1.83204
501.94	-0.0852363
503.458	1.94542
504.977	-3.57953
506.495	-1.25007
508.013	2.01636
509.532	-3.32518
511.05	-12.4606
512.569	2.89681
514.087	-6.77303
515.605	4.15814
517.124	-5.38768
518.642	-0.782961
520.16	-4.05891
521.679	-5.21957
523.197	-6.13225
524.715	-3.03936
526.234	-6.5821
527.752	-4.7839
529.27	4.37102
530.789	0.334085
532.307	1.33343
533.825	-7.72173
535.344	2.10586
536.862	-3.42125
538.38	-0.503357
539.899	2.03789
541.417	8.08222
542.935	1.13665
544.454	2.88758
545.972	-3.06403
547.491	0.712879
549.009	1.85034
550.527	1.57725
552.046	9.55156
553.564	-0.749199
555.082	5.20897
556.601	6.70615
558.119	4.8174
559.637	1.55364
561.156	2.40983
562.674	1.63967
564.192	-3.98107
565.711	-0.1384
567.229	4.99634
568.747	6.9327
570.266	5.43972
571.784	6.04552
573.302	0.566319
574.821	6.39726
576.339	-1.23386
577.857	-0.372494
579.376	-0.947274
580.894	-1.00542
582.412	7.14656
583.931	-5.0772
585.449	2.4307
586.968	0.213378
588.486	-2.97078
590.004	9.18838
591.523	0.470502
593.041	2.41091
594.559	3.97407
596.078	4.54609
597.596	2.40854
599.114	1.41713
600.633	-2.8422
602.151	3.65462
603.669	-0.0341002
605.188	4.06187
606.706	-4.33902
608.224	-2.9404
609.743	-8.10719
611.261	-5.00412
612.779	-6.9467
614.298	0.748874
615.816	-1.906
617.334	5.12521
618.853	-0.791044
620.371	1.08251
621.89	3.24848
623.408	-6.9471
624.926	-6.2684
626.445	1.83033
627.963	-0.767427
629.481	-1.07852
631	-6.54612
632.518	-4.40233
634.036	-3.37727
635.555	1.11524
637.073	-2.67894
638.591	-3.43585
640.11	4.07012
641.628	2.41048
643.146	-6.3527
644.665	-8.09195
646.183	-6.59933
647.701	1.48548
649.22	6.49996
650.738	5.40115
652.256	-4.2171
653.775	5.4973
655.293	3.46028
656.811	1.74115
658.33	2.40851
659.848	-4.35719
661.367	-2.87217
662.885	3.98718
664.403	4.85151
665.922	1.16915
667.44	8.90889
668.958	2.72988
670.477	-8.88403
671.995	-3.31087
673.513	4.4485
675.032	5.70687
676.55	3.62535
678.068	17.6111
679.587	6.79518
681.105	5.25665
682.623	10.4759
684.142	4.69271
685.66	2.04366
687.178	4.37035
688.697	5.12273
690.215	8.95394
691.733	8.64993
693.252	5.55551
694.77	5.34628
696.289	6.09188
697.807	-0.0481715
699.325	-1.27432
700.844	4.81087
702.362	6.67159
703.88	2.30848
705.399	7.02526
706.917	12.0014
708.435	8.76429
709.954	10.0724
711.472	13.8596
712.99	0.839827
714.509	13.8015
716.027	10.1608
717.545	9.71525
719.064	11.3654
720.582	25.615
722.1	20.1956
723.619	22.0522
725.137	16.8394
726.655	12.8492
728.174	16.0074
729.692	11.5136
731.21	15.8912
732.729	19.3506
734.247	6.13611
735.766	14.8773
737.284	19.3841
738.802	15.5493
740.321	19.5254
741.839	13.078
743.357	15.1793
744.876	22.4586
746.394	23.6924
747.912	22.5484
749.431	22.3722
750.949	26.5574
752.467	25.4898
753.986	32.5693
755.504	26.291
757.022	33.0914
758.541	20.2112
760.059	19.3286
761.577	31.0369
763.096	28.0715
764.614	26.5969
766.132	22.0363
767.651	20.9957
769.169	26.6086
770.6875	23.5047
772.206	32.4329
773.724	26.8172
775.242	29.6674
776.761	30.115
778.279	31.8943
779.798	31.2289
781.316	30.6912
782.834	38.1984
784.353	33.8587
785.871	32.4176
787.389	44.2731
788.908	34.3693
790.426	35.2282
791.944	31.1966
793.463	42.9364
794.981	34.1631
796.499	38.2079
798.018	36.6288
799.536	38.5754
801.054	42.7465
802.573	33.7256
804.091	40.3169
805.609	37.3639
807.128	37.1503
808.646	36.5882
810.164	49.1529
811.683	50.0471
813.201	38.6566
814.72	50.6847
816.238	40.4658
817.756	49.1692
819.275	45.3377
820.793	46.082
822.311	44.2104
823.83	44.0378
825.348	51.2081
826.866	48.5863
828.385	52.8649
829.903	43.5813
831.421	46.282
832.94	52.9766
834.458	45.6885
835.976	55.4062
837.495	56.4263
839.013	45.1398
840.531	36.5497
842.05	44.2691
843.568	54.4054
845.086	42.469
846.605	46.8591
848.123	54.3388
849.641	49.2926
851.16	52.7923
852.678	51.4802
854.197	51.9266
855.715	50.2337
857.233	51.3198
858.752	51.8093
860.27	57.5328
861.788	51.7661
863.307	52.8886
864.825	47.9664
866.343	52.5399
867.862	44.1528
869.38	45.9496
870.898	34.7524
872.417	34.2012
873.935	33.6757
875.453	32.0307
876.972	27.011
878.49	35.5173
880.008	20.469
881.527	25.932
883.045	27.7733
884.563	34.1252
886.082	25.5169
887.6	21.5205
889.119	25.8035
890.637	27.9065
892.155	34.8793
893.674	23.5908
895.192	22.549
896.71	16.2058
898.229	21.0444
899.747	14.4762
901.265	21.1563
902.784	27.267
904.302	22.6727
905.82	7.43063
907.339	16.6593
908.857	13.1296
910.375	15.3465
911.894	13.8735
913.412	8.79818
914.93	4.53892
916.449	10.8108
917.967	11.2612
919.485	16.9275
921.004	11.4944
922.522	16.553
924.04	3.07989
925.559	14.6422
927.077	11.7567
928.596	9.90395
930.114	13.4078
931.632	0.850114
933.151	-0.197389
934.669	10.4862
936.187	7.10076
937.706	0.657631
939.224	4.48194
940.742	-1.98446
942.261	-7.93457
943.779	13.7596
945.297	0.247054
946.816	6.0175
948.334	6.36881
949.852	4.04245
951.371	0.756172
952.889	1.87152
954.407	1.25986
955.926	-11.9517
957.444	6.91315
958.962	-2.14815
960.481	5.66027
961.999	-0.797795
963.518	-8.73588
965.036	-16.9665
966.554	-12.4673
968.073	-19.1041
969.591	-5.87788
971.109	-11.2048
972.628	-6.88044
974.146	-8.43861
975.664	-14.2673
977.183	-21.7265
978.701	-7.18914
980.219	-12.9415
981.738	-15.15
983.256	-16.9337
984.774	-10.9139
986.293	-22.3438
987.811	-23.7736
989.329	-8.1082
990.848	-17.9908
992.366	-23.4933
993.884	-13.9982
995.403	-26.0726
996.921	-20.4493
998.439	-25.1711
999.958	-20.7582
1001.48	-22.5042
1002.99	-23.8915
1004.51	-24.4682
1006.03	-22.3422
1007.55	-20.2724
1009.07	-27.7244
1010.59	-23.6827
1012.1	-8.4073
1013.62	-19.9214
1015.14	-12.7695
1016.66	-25.9718
1018.18	-23.558
1019.7	-26.5475
1021.21	-23.9969
1022.73	-14.9272
1024.25	-19.1503
1025.77	-25.0675
1027.29	-21.9857
1028.81	-16.0302
1030.32	-20.1548
1031.84	-17.8053
1033.36	-20.4316
1034.88	-19.9999
1036.4	-14.9079
1037.92	-23.104
1039.43	-22.7249
1040.95	-20.8258
1042.47	-19.5473
1043.99	-18.5357
1045.51	-21.1377
1047.03	-20.6672
1048.54	-16.8575
1050.06	-17.6717
1051.58	-29.5105
1053.1	-16.0664
1054.62	-12.834
1056.14	-12.7875
1057.66	-22.8506
1059.17	-25.4066
1060.69	-24.4023
1062.21	-23.2304
1063.73	-16.0846
1065.25	-26.2794
1066.77	-27.1586
1068.28	-19.9775
1069.8	-18.0085
1071.32	-30.7456
1072.84	-20.6324
1074.36	-24.1049
1075.88	-19.1357
1077.39	-17.2981
1078.91	-18.7963
1080.43	-16.048
1081.95	-21.0069
1083.47	-20.7444
1084.99	-20.8006
1086.5	-24.282
1088.02	-19.8391
1089.54	-25.6786
1091.06	-14.9699
1092.58	-12.4933
1094.1	-12.7303
1095.61	-13.6471
1097.13	-19.128
1098.65	-16.8334
1100.17	-16.476
1101.69	-16.8305
1103.21	-14.8843
1104.72	-18.8936
1106.24	-15.6063
1107.76	-15.6086
1109.28	-11.3955
1110.8	-17.5796
1112.32	-15.2843
1113.83	-17.1737
1115.35	-10.5907
1116.87	-10.3447
1118.39	-6.68374
1119.91	-12.5553
1121.43	-11.5399
1122.94	-9.82399
1124.46	-21.0247
1125.98	-3.34044
1127.5	-13.0804
1129.02	-0.142048
1130.54	-5.49267
1132.05	-16.9441
1133.57	-0.977657
1135.09	-13.8361
1136.61	0.0178734
1138.13	-8.23954
1139.65	-10.8342
1141.16	-0.137766
1142.68	-11.3511
1144.2	-8.99849
1145.72	1.10474
1147.24	7.34933
1148.76	7.64837
1150.27	11.464
1151.79	3.31912
1153.31	7.20789
1154.83	1.02859
1156.35	24.0178
1157.87	1.17115
1159.38	4.6865
1160.9	20.1503
1162.42	-0.413811
1163.94	14.8219
1165.46	0.997833
1166.98	5.6052
1168.49	9.27284
1170.01	-5.27171
1171.53	8.23179
1173.05	6.48641
1174.57	19.0514
1176.09	13.166
1177.6	8.84944
1179.12	-13.7465
1180.64	15.3494
1182.16	9.42992
1183.68	3.3711
1185.2	0.506494
1186.71	20.1481
1188.23	14.6031
1189.75	-14.5618
1191.27	14.9088
1192.79	15.2659
1194.31	7.46718
1195.82	11.9565
1197.34	4.04194
1198.86	19.2943
1200.38	1.9554
1201.9	15.6023
1203.42	21.3904
1204.93	17.6446
1206.45	29.5859
1207.97	21.2253
1209.49	29.7354
1211.01	28.1782
1212.53	30.8296
1214.04	22.2522
1215.56	28.5921
1217.08	35.4802
1218.6	28.2967
1220.12	26.1044
1221.64	33.129
1223.15	48.1339
1224.67	38.3257
1226.19	48.0772
1227.71	48.8913
1229.23	48.5983
1230.75	56.4875
1232.26	56.1853
1233.78	51.2408
1235.3	60.3116
1236.82	67.4372
1238.34	59.1865
1239.86	63.4603
1241.375	53.6007
1242.89	80.7299
1244.41	76.0208
1245.93	69.651
1247.45	88.5171
1248.97	89.0562
1250.48	95.0258
1252	84.9292
1253.52	102.858
1255.04	102.153
1256.56	104.079
1258.08	131.155
1259.6	112.102
1261.11	134.794
1262.63	141.028
1264.15	146.17
1265.67	136.528
1267.19	154.404
1268.71	153.963
1270.22	167.15
1271.74	149.807
1273.26	183.958
1274.78	196.456
1276.3	197.411
1277.82	201.252
1279.33	216.829
1280.85	210.445
1282.37	232.884
1283.89	247.918
1285.41	261.06
1286.93	253.691
1288.44	269.32
1289.96	271.088
1291.48	302.869
1293	299.852
1294.52	308.864
1296.04	324.045
1297.55	344.042
1299.07	373.413
1300.59	409.874
1302.11	398.967
1303.63	395.347
1305.15	404.79
1306.66	444.432
1308.18	452.495
1309.7	470.182
1311.22	488.072
1312.74	549.84
1314.26	568.443
1315.77	597.956
1317.29	612.209
1318.81	627.399
1320.33	654.131
1321.85	654.32
1323.37	678.951
1324.88	739.967
1326.4	750.276
1327.92	761.237
1329.44	774.536
1330.96	818.025
1332.48	835.507
1333.99	824.016
1335.51	859.185
1337.03	910.747
1338.55	909.948
1340.07	900.428
1341.59	929.715
1343.1	920.444
1344.62	947.924
1346.14	956.309
1347.66	938.209
1349.18	945.597
1350.7	939.294
1352.21	911.264
1353.73	912.173
1355.25	903.425
1356.77	886.975
1358.29	856.127
1359.81	834.884
1361.32	836.862
1362.84	795.042
1364.36	784.102
1365.88	758.155
1367.4	728.79
1368.92	693.525
1370.43	684.984
1371.95	634.064
1373.47	638.134
1374.99	589.152
1376.51	582.953
1378.03	556.287
1379.54	538.473
1381.06	518.427
1382.58	505.442
1384.1	472.273
1385.62	439.753
1387.14	415.187
1388.65	403.131
1390.17	393.023
1391.69	377.358
1393.21	360.894
1394.73	330.728
1396.25	337.388
1397.76	304.107
1399.28	292.97
1400.8	264.068
1402.32	266.574
1403.84	243.303
1405.36	229.166
1406.87	234.409
1408.39	227.451
1409.91	203.753
1411.43	202.524
1412.95	162.085
1414.47	161.717
1415.98	166.281
1417.5	153.53
1419.02	146.352
1420.54	151.074
1422.06	139.494
1423.58	140.328
1425.09	103.039
1426.61	95.6707
1428.13	107.438
1429.65	87.051
1431.17	85.8468
1432.69	108.263
1434.2	67.0953
1435.72	93.3296
1437.24	73.5337
1438.76	78.3929
1440.28	64.4989
1441.8	70.8565
1443.32	74.8887
1444.83	59.8831
1446.35	48.9265
1447.87	52.4916
1449.39	36.7161
1450.91	40.4242
1452.43	41.4601
1453.94	23.1248
1455.46	34.816
1456.98	24.5613
1458.5	26.6663
1460.02	51.896
1461.54	21.1882
1463.05	3.93274
1464.57	13.4515
1466.09	9.5703
1467.61	15.295
1469.13	14.8593
1470.65	18.7041
1472.16	11.6536
1473.68	13.208
1475.2	7.10643
1476.72	1.20302
1478.24	0.982076
1479.76	20.8305
1481.27	-7.98516
1482.79	10.0508
1484.31	2.14543
1485.83	13.3655
1487.35	-1.24455
1488.87	4.50842
1490.38	7.90211
1491.9	10.4406
1493.42	6.9659
1494.94	20.8265
1496.46	13.6979
1497.98	21.7883
1499.49	31.856
1501.01	36.6877
1502.53	22.9671
1504.05	23.5091
1505.57	38.6895
1507.09	43.3632
1508.6	49.9827
1510.12	40.7703
1511.64	52.4258
1513.16	69.4131
1514.68	81.3826
1516.2	80.4468
1517.71	69.4796
1519.23	83.3994
1520.75	108.289
1522.27	106.883
1523.79	100.075
1525.31	82.3697
1526.82	131.287
1528.34	118.424
1529.86	138.219
1531.38	155.019
1532.9	144.154
1534.42	151.718
1535.93	171.943
1537.45	181.241
1538.97	208.412
1540.49	209.456
1542.01	217.468
1543.53	240.954
1545.04	242.02
1546.56	257.056
1548.08	277.918
1549.6	286.209
1551.12	311.08
1552.64	315.016
1554.15	335.154
1555.67	360.016
1557.19	404.392
1558.71	408.776
1560.23	416.847
1561.75	450.366
1563.26	455.684
1564.78	492.86
1566.3	515.09
1567.82	521.797
1569.34	573.475
1570.86	568.232
1572.37	586.009
1573.89	635.827
1575.41	648.498
1576.93	683.125
1578.45	707.733
1579.97	735.193
1581.48	772.245
1583	767.61
1584.52	805.913
1586.04	849.389
1587.56	839.241
1589.08	831.394
1590.59	873.944
1592.11	884.116
1593.63	913.227
1595.15	912.768
1596.67	935.744
1598.19	920.865
1599.7	895.022
1601.22	902.088
1602.74	919.327
1604.26	908.423
1605.78	892.358
1607.3	895.797
1608.81	890.3
1610.33	877.071
1611.85	859.271
1613.37	858.258
1614.89	826.206
1616.41	824.464
1617.92	805.417
1619.44	788.635
1620.96	746.077
1622.48	719.57
1624	690.075
1625.52	648.688
1627.04	630.168
1628.55	602.27
1630.07	571.089
1631.59	537.618
1633.11	514.14
1634.63	487.906
1636.15	466.282
1637.66	418.29
1639.18	389.442
1640.7	377.153
1642.22	355.147
1643.74	333.174
1645.26	313.468
1646.77	286.6
1648.29	259.923
1649.81	256.929
1651.33	229.322
1652.85	214.499
1654.37	185.678
1655.88	184.804
1657.4	178.06
1658.92	165.54
1660.44	145.768
1661.96	133.543
1663.48	130.918
1664.99	115.272
1666.51	102.095
1668.03	96.1108
1669.55	92.2704
1671.07	84.811
1672.59	77.0608
1674.1	65.8221
1675.62	61.2498
1677.14	61.6907
1678.66	51.0173
1680.18	48.7482
1681.7	40.2689
1683.21	41.126
1684.73	33.1139
1686.25	35.7349
1687.77	37.7188
1689.29	32.7902
1690.81	24.1832
1692.32	29.0225
1693.84	21.0159
1695.36	18.885
1696.88	18.7758
1698.4	19.0904
1699.92	15.744
1701.43	8.64009
1702.95	11.6925
1704.47	16.3732
1705.99	11.4684
1707.51	11.5453
1709.03	10.584
1710.54	5.49919
1712.06	4.53698
1713.58	1.50118
1715.1	2.0939
1716.62	0.734288
1718.14	3.58863
1719.65	3.73274
1721.17	4.65102
1722.69	0.188566
1724.21	2.1864
1725.73	6.05549
1727.25	2.45662
1728.76	1.42704
1730.28	10.0057
1731.8	5.37781
1733.32	1.88955
1734.84	-0.838221
1736.36	-0.821932
1737.87	-3.10014
1739.39	-2.59549
1740.91	-9.47251
1742.43	-0.0850616
1743.95	-1.02054
1745.47	-3.57193
1746.98	-8.04154
1748.5	0.837966
1750.02	-8.49405
1751.54	-0.853008
1753.06	-3.03557
1754.58	-2.15598
1756.09	0.471271
1757.61	-4.86724
1759.13	-4.8978
1760.65	-10.0362
1762.17	-12.2226
1763.69	-9.02551
1765.2	-2.25249
1766.72	-1.18517
1768.24	-1.7099
1769.76	-8.24144
1771.28	-1.43017
1772.8	-5.86029
1774.31	0.0832484
1775.83	-8.59185
1777.35	-3.63617
1778.87	0.846309
1780.39	-6.94689
1781.91	-4.9624
1783.42	-0.894354
1784.94	-5.00597
1786.46	-5.22021
1787.98	-9.1905
1789.5	-5.0074
1791.02	-3.62073
1792.53	-6.12348
1794.05	-4.35341
1795.57	-3.88556
1797.09	-7.51057
1798.61	-6.98476
1800.13	-2.51966
1801.64	-0.695382
1803.16	-3.87984
1804.68	-9.66671
1806.2	-8.05287
1807.72	-1.75612
1809.24	-6.56924
1810.76	-3.67414
1812.27	-6.45253
1813.79	-6.75784
1815.31	-6.34024
1816.83	-1.99007
1818.35	-7.83181
1819.86	-2.16574
1821.38	-3.14486
1822.9	-9.28714
1824.42	-5.67392
1825.94	1.87095
1827.46	-7.22122
1828.98	-2.87631
1830.49	-4.25681
1832.01	-4.44876
1833.53	-0.65897
1835.05	-0.951579
1836.57	-4.28421
1838.09	-1.45578
1839.6	-0.844524
1841.12	-5.63467
1842.64	-9.29081
1844.16	-8.87706
1845.68	-11.4104
1847.2	-2.78538
1848.71	-2.27037
1850.23	-0.924488
1851.75	-3.34238
1853.27	-0.972944
1854.79	-2.42095
1856.31	5.32697
1857.82	-0.453109
1859.34	-3.19842
1860.86	0.483279
1862.38	-6.58794
1863.9	-0.885306
1865.42	-3.8277
1866.93	-0.959764
1868.45	-1.08874
1869.97	-11.5494
1871.49	-0.896185
1873.01	-5.99682
1874.53	-7.02716
1876.04	2.59429
1877.56	-4.98004
1879.08	-4.29504
1880.6	-1.72803
1882.12	-1.67852
1883.64	-0.120668
1885.15	-3.88734
1886.67	1.97826
1888.19	0.667905
1889.71	-0.89863
1891.23	-5.52974
1892.75	-0.367435
1894.26	0.497427
1895.78	0.802108
1897.3	5.47269
1898.82	1.43578
1900.34	-0.51137
1901.86	-2.98232
1903.37	2.72148
1904.89	-2.51619
1906.41	-9.90316
1907.93	-2.67976
1909.45	-2.02285
1910.97	-4.80618
1912.48	2.8334
1914	0.595622
1915.52	-3.1661
1917.04	-2.43747
1918.56	1.02946
1920.08	-4.2698
1921.59	6.99093
1923.11	-2.38613
1924.63	-2.66733
1926.15	-3.24753
1927.67	-0.480571
1929.19	-1.80807
1930.7	2.86379
1932.22	-4.10875
1933.74	1.09482
1935.26	1.56313
1936.78	-0.603376
1938.3	-0.834095
1939.81	-1.96964
1941.33	2.68691
1942.85	3.21357
1944.37	3.80422
1945.89	-6.53404
1947.41	-2.30907
1948.92	-5.43156
1950.44	-1.69267
1951.96	-5.17846
1953.48	-0.513182
1955	-5.87236
1956.52	-5.95208
1958.03	-2.79663
1959.55	-3.84618
1961.07	1.63026
1962.59	-9.04132
1964.11	-5.28057
1965.63	-0.40777
1967.14	-2.92407
1968.66	3.72027
1970.18	-6.74462
1971.7	-4.30872
1973.22	-4.94593
1974.74	-1.0863
1976.25	-2.87079
1977.77	-4.56849
1979.29	-2.15779
1980.81	3.61309
1982.33	0.141409
1983.85	8.25505
1985.36	-2.65503
1986.88	-3.87348
1988.4	-1.36531
1989.92	1.8515
1991.44	0.600269
1992.96	-1.26613
1994.47	1.098
1995.99	-1.94978
1997.51	-0.480915
1999.03	2.37699
2000.55	-2.51271
2002.07	6.23472
2003.58	3.60636
2005.1	7.34634
2006.62	0.303385
2008.14	-1.73605
2009.66	3.613
2011.18	3.85233
2012.7	1.75803
2014.21	7.13137
2015.73	-1.76784
2017.25	0.605684
2018.77	3.44534
2020.29	3.21901
2021.81	5.45456
2023.32	-1.85569
2024.84	1.44545
2026.36	5.33017
2027.88	-2.57566
2029.4	0.444353
2030.92	-0.467561
2032.43	0.247032
2033.95	5.99867
2035.47	5.38996
2036.99	7.86739
2038.51	1.53975
2040.03	-1.16021
2041.54	1.8788
2043.06	7.13954
2044.58	-2.05315
2046.1	3.04736
2047.62	-3.05943
2049.14	7.59329
2050.65	8.00875
2052.17	1.65474
2053.69	4.47718
2055.21	0.872253
2056.73	0.040276
2058.25	-1.01601
2059.76	7.47353
2061.28	3.36958
2062.8	-6.36541
2064.32	4.46155
2065.84	3.12182
2067.36	-1.83821
2068.87	0.753152
2070.39	-1.83324
2071.91	1.0437
2073.43	2.11694
2074.95	-5.66066
2076.47	5.27684
2077.98	0.7573
2079.5	6.21174
2081.02	1.50421
2082.54	1.70092
2084.06	-4.60573
2085.58	3.51585
2087.09	4.61448
2088.61	-1.80686
2090.13	4.12359
2091.65	4.2448
2093.17	6.2235
2094.69	0.381022
2096.2	8.0214
2097.72	3.54086
2099.24	-0.697856
2100	5.33475