File: Example Data/Raman/CNT - TIM/Raytheon/Al foil/2010/08-12-10/Al batch 16 - bottom_1.txt
300	79.6246
301.518	91.4849
303.037	92.8834
304.555	94.3404
306.073	90.8443
307.592	92.6719
309.11	82.8994
310.628	77.7222
312.147	79.0112
313.665	82.0897
315.183	85.1514
316.702	94.0953
318.22	87.652
319.738	79.7986
321.257	78.7763
322.775	79.4249
324.294	76.8562
325.812	77.6975
327.33	74.7857
328.849	88.8203
330.367	77.9206
331.885	71.9967
333.404	74.5811
334.922	72.5304
336.44	83.9518
337.959	75.0051
339.477	71.4169
340.995	73.9768
342.514	58.4495
344.032	74.6697
345.55	73.4669
347.069	70.8041
348.587	71.6976
350.105	74.6363
351.624	74.2896
353.142	73.7004
354.66	79.5634
356.179	68.4076
357.697	68.5581
359.216	71.5445
360.734	73.6078
362.252	71.2546
363.771	75.6853
365.289	67.3661
366.807	67.2981
368.326	60.9597
369.844	70.0749
371.362	65.0844
372.881	77.5734
374.399	65.5769
375.917	68.7952
377.436	57.4859
378.954	58.6806
380.472	73.7512
381.991	62.9038
383.509	62.2171
385.027	62.4519
386.546	60.5805
388.064	63.9098
389.582	64.3459
391.101	60.1263
392.619	66.4074
394.137	56.2087
395.656	56.3621
397.174	62.488
398.693	61.4217
400.211	68.9786
401.729	55.7844
403.248	77.4289
404.766	58.1041
406.284	56.6729
407.803	60.8852
409.321	64.2702
410.839	58.9159
412.358	60.1215
413.876	55.7178
415.394	60.7562
416.913	61.0564
418.431	55.3291
419.949	61.9113
421.468	54.5802
422.986	62.7301
424.504	49.4075
426.023	53.5243
427.541	60.4576
429.059	59.5029
430.578	54.6892
432.096	57.3302
433.615	49.0105
435.133	59.7056
436.651	53.3888
438.17	48.2368
439.688	58.765
441.206	51.2755
442.725	38.9679
444.243	54.7528
445.761	56.6771
447.28	52.1226
448.798	48.4539
450.316	52.4596
451.835	40.4406
453.353	45.5755
454.871	32.3481
456.39	42.8827
457.908	40.6058
459.426	44.5462
460.945	45.4167
462.463	46.3093
463.981	41.7006
465.5	44.2181
467.018	41.4064
468.536	39.0442
470.055	38.6578
471.573	31.1062
473.092	34.8598
474.61	35.2778
476.128	39.0301
477.647	33.3247
479.165	31.4184
480.683	26.2258
482.202	36.6261
483.72	30.5695
485.238	31.7075
486.757	36.1533
488.275	23.9018
489.793	27.8393
491.312	29.2869
492.83	26.1876
494.348	27.9186
495.867	27.4465
497.385	25.5522
498.903	23.1596
500.422	20.4476
501.94	18.3579
503.458	23.4359
504.977	28.8175
506.495	14.1578
508.013	12.4538
509.532	18.1798
511.05	19.9986
512.569	12.007
514.087	15.4223
515.605	9.53776
517.124	15.8971
518.642	12.1412
520.16	11.3754
521.679	11.563
523.197	13.4762
524.715	12.8716
526.234	12.1977
527.752	12.7304
529.27	12.9502
530.789	10.7405
532.307	13.1184
533.825	13.568
535.344	15.523
536.862	10.9861
538.38	4.51576
539.899	10.7809
541.417	10.7701
542.935	5.93285
544.454	4.61657
545.972	7.15255
547.491	14.2287
549.009	12.9069
550.527	16.3115
552.046	13.1637
553.564	13.5746
555.082	10.5512
556.601	12.998
558.119	-4.97193
559.637	14.6728
561.156	6.10745
562.674	5.69811
564.192	10.7528
565.711	3.09945
567.229	6.06374
568.747	13.4601
570.266	10.6872
571.784	18.0179
573.302	2.00152
574.821	8.29168
576.339	7.39725
577.857	8.90337
579.376	5.28821
580.894	9.03204
582.412	2.35268
583.931	13.4774
585.449	13.1342
586.968	9.64185
588.486	10.8342
590.004	16.855
591.523	4.50836
593.041	16.1765
594.559	7.36417
596.078	10.1738
597.596	8.03774
599.114	10.9283
600.633	8.03027
602.151	11.5263
603.669	6.0581
605.188	9.80466
606.706	7.0006
608.224	13.0914
609.743	5.79062
611.261	10.8828
612.779	6.83923
614.298	10.3325
615.816	8.58806
617.334	21.9784
618.853	10.9748
620.371	10.0361
621.89	13.7446
623.408	7.11699
624.926	9.49956
626.445	6.96536
627.963	13.981
629.481	14.6439
631	9.78831
632.518	13.1799
634.036	7.73021
635.555	15.037
637.073	14.7582
638.591	11.1314
640.11	23.2899
641.628	14.408
643.146	10.5581
644.665	8.75334
646.183	6.86242
647.701	14.9066
649.22	19.1976
650.738	11.6585
652.256	12.2338
653.775	20.872
655.293	12.1259
656.811	14.0839
658.33	10.5188
659.848	17.3512
661.367	9.78611
662.885	15.0696
664.403	13.2789
665.922	20.6291
667.44	18.6926
668.958	16.8471
670.477	8.81834
671.995	18.8617
673.513	16.6882
675.032	10.9459
676.55	3.11699
678.068	19.9567
679.587	10.3796
681.105	17.0167
682.623	13.9379
684.142	25.3454
685.66	20.9066
687.178	14.6477
688.697	27.1235
690.215	13.0374
691.733	6.62685
693.252	6.05512
694.77	14.4778
696.289	13.4376
697.807	8.98014
699.325	21.5844
700.844	21.4877
702.362	24.5911
703.88	16.1993
705.399	19.7658
706.917	6.6577
708.435	15.553
709.954	9.99177
711.472	3.52638
712.99	13.0278
714.509	17.2853
716.027	19.47
717.545	19.4708
719.064	29.7668
720.582	22.2662
722.1	23.918
723.619	21.6967
725.137	23.2328
726.655	17.2425
728.174	24.3039
729.692	22.3202
731.21	20.0068
732.729	30.8917
734.247	26.9963
735.766	25.3181
737.284	22.4127
738.802	29.1341
740.321	25.5107
741.839	25.7008
743.357	27.0292
744.876	31.0184
746.394	26.8221
747.912	20.5399
749.431	29.6692
750.949	42.4346
752.467	27.8564
753.986	24.5777
755.504	34.5112
757.022	24.8208
758.541	28.1348
760.059	25.6188
761.577	28.824
763.096	35.0462
764.614	25.0658
766.132	31.0183
767.651	36.9015
769.169	39.2158
770.6875	37.8472
772.206	29.8034
773.724	20.9139
775.242	28.5664
776.761	38.8642
778.279	27.1615
779.798	25.7293
781.316	36.4685
782.834	33.2038
784.353	32.2143
785.871	39.6864
787.389	52.1662
788.908	37.3355
790.426	41.2073
791.944	31.3658
793.463	36.5476
794.981	38.1699
796.499	35.7467
798.018	44.9174
799.536	32.7219
801.054	37.1188
802.573	42.9132
804.091	40.2363
805.609	44.2395
807.128	34.8941
808.646	40.421
810.164	44.8973
811.683	33.7371
813.201	41.8761
814.72	54.5444
816.238	47.7994
817.756	49.8417
819.275	41.6802
820.793	46.3881
822.311	46.4028
823.83	36.9214
825.348	55.8022
826.866	56.8192
828.385	51.2892
829.903	49.7428
831.421	46.2523
832.94	43.8378
834.458	49.6155
835.976	37.275
837.495	40.2632
839.013	43.4403
840.531	47.933
842.05	50.9274
843.568	52.0508
845.086	54.0211
846.605	54.0289
848.123	49.8414
849.641	48.1201
851.16	56.9313
852.678	60.5201
854.197	43.2299
855.715	53.9346
857.233	58.3442
858.752	49.2215
860.27	47.2871
861.788	53.2242
863.307	49.661
864.825	37.6713
866.343	45.1714
867.862	42.0302
869.38	35.3391
870.898	36.0588
872.417	28.935
873.935	28.1423
875.453	24.3706
876.972	22.4066
878.49	28.9141
880.008	31.5329
881.527	24.218
883.045	29.8902
884.563	26.0177
886.082	16.0424
887.6	17.4174
889.119	21.1652
890.637	17.0275
892.155	14.3269
893.674	17.2438
895.192	14.0545
896.71	13.6165
898.229	10.075
899.747	7.61587
901.265	5.033
902.784	10.2218
904.302	2.23016
905.82	12.4377
907.339	2.13758
908.857	11.8014
910.375	9.09466
911.894	2.75458
913.412	0.547852
914.93	7.02737
916.449	9.6251
917.967	-1.08026
919.485	2.61796
921.004	1.81203
922.522	-0.491538
924.04	0.517695
925.559	-2.5883
927.077	-9.17931
928.596	0.0353995
930.114	-4.14761
931.632	1.17324
933.151	0.483005
934.669	-6.62577
936.187	2.58485
937.706	-1.48789
939.224	1.9387
940.742	-11.3484
942.261	-0.459423
943.779	-9.58759
945.297	1.40148
946.816	-0.471092
948.334	-7.00226
949.852	-7.46862
951.371	-13.2349
952.889	-10.7067
954.407	-6.52255
955.926	-12.8016
957.444	-15.2467
958.962	-19.2178
960.481	-24.7679
961.999	-8.64812
963.518	-22.9386
965.036	-19.8699
966.554	-6.19319
968.073	-13.4417
969.591	-23.0354
971.109	-22.4325
972.628	-25.3811
974.146	-29.6402
975.664	-31.2702
977.183	-21.3864
978.701	-28.0459
980.219	-29.1596
981.738	-25.1964
983.256	-34.4704
984.774	-28.1001
986.293	-29.3616
987.811	-35.1922
989.329	-39.5537
990.848	-38.9997
992.366	-37.2459
993.884	-32.6006
995.403	-35.0088
996.921	-37.9619
998.439	-34.0642
999.958	-47.3988
1001.48	-38.6827
1002.99	-33.1126
1004.51	-43.1379
1006.03	-39.0075
1007.55	-34.0726
1009.07	-30.3837
1010.59	-38.4725
1012.1	-34.2654
1013.62	-45.0377
1015.14	-40.7569
1016.66	-40.2306
1018.18	-32.6944
1019.7	-38.1312
1021.21	-38.3367
1022.73	-33.2188
1024.25	-42.1638
1025.77	-40.7101
1027.29	-44.6163
1028.81	-28.5884
1030.32	-34.8471
1031.84	-27.0864
1033.36	-33.2573
1034.88	-39.3833
1036.4	-39.1739
1037.92	-27.9623
1039.43	-34.2147
1040.95	-30.5256
1042.47	-30.6197
1043.99	-33.0811
1045.51	-31.4285
1047.03	-39.1021
1048.54	-41.3143
1050.06	-34.0624
1051.58	-40.889
1053.1	-32.6963
1054.62	-33.2853
1056.14	-46.9618
1057.66	-27.9369
1059.17	-34.167
1060.69	-42.6378
1062.21	-39.2952
1063.73	-34.8845
1065.25	-34.9876
1066.77	-39.1501
1068.28	-34.2135
1069.8	-31.0666
1071.32	-32.3214
1072.84	-34.2138
1074.36	-39.3087
1075.88	-27.9074
1077.39	-29.3297
1078.91	-29.1498
1080.43	-28.7297
1081.95	-34.6149
1083.47	-26.8996
1084.99	-33.8716
1086.5	-20.5376
1088.02	-31.7649
1089.54	-23.8144
1091.06	-18.4511
1092.58	-20.3476
1094.1	-27.6359
1095.61	-23.1127
1097.13	-28.396
1098.65	-29.3792
1100.17	-18.9929
1101.69	-23.337
1103.21	-23.7693
1104.72	-23.0072
1106.24	-24.4367
1107.76	-20.4811
1109.28	-18.1746
1110.8	-27.6143
1112.32	-18.3871
1113.83	-13.807
1115.35	-12.4081
1116.87	-16.9403
1118.39	-16.9546
1119.91	-20.6021
1121.43	-14.3067
1122.94	-13.4278
1124.46	-22.6108
1125.98	-18.1162
1127.5	-5.33435
1129.02	-17.0694
1130.54	-24.7297
1132.05	-10.7142
1133.57	-23.1063
1135.09	-12.4541
1136.61	-24.1324
1138.13	-6.0362
1139.65	-16.324
1141.16	-24.5653
1142.68	-8.12568
1144.2	-14.5051
1145.72	-26.1095
1147.24	-12.6456
1148.76	-9.08897
1150.27	-11.119
1151.79	3.28208
1153.31	0.74214
1154.83	4.00317
1156.35	-8.55383
1157.87	-3.69647
1159.38	-11.8551
1160.9	-12.5889
1162.42	-11.3859
1163.94	1.69239
1165.46	-5.95351
1166.98	-7.98441
1168.49	-6.0997
1170.01	-5.50606
1171.53	-8.74422
1173.05	-2.40458
1174.57	-2.68005
1176.09	-8.69561
1177.6	-8.66405
1179.12	2.04394
1180.64	-0.724273
1182.16	3.84284
1183.68	-13.0684
1185.2	-8.56446
1186.71	2.09854
1188.23	9.40497
1189.75	-7.33873
1191.27	-16.4309
1192.79	-12.7991
1194.31	-0.288873
1195.82	-8.8697
1197.34	12.0158
1198.86	4.00024
1200.38	2.33915
1201.9	3.74956
1203.42	-3.37772
1204.93	1.27258
1206.45	5.86686
1207.97	9.29808
1209.49	4.30004
1211.01	2.73151
1212.53	6.6421
1214.04	5.8784
1215.56	22.1429
1217.08	9.84317
1218.6	11.4063
1220.12	24.0129
1221.64	16.7777
1223.15	32.2195
1224.67	25.5951
1226.19	30.89
1227.71	27.6498
1229.23	42.4492
1230.75	29.814
1232.26	56.9033
1233.78	58.6768
1235.3	47.8723
1236.82	40.8175
1238.34	50.7865
1239.86	59.2761
1241.375	64.2315
1242.89	49.6127
1244.41	66.0907
1245.93	70.6222
1247.45	81.7944
1248.97	71.2702
1250.48	93.1467
1252	87.1996
1253.52	77.7538
1255.04	117.828
1256.56	106.343
1258.08	118.019
1259.6	122.755
1261.11	122.974
1262.63	124.441
1264.15	134.559
1265.67	104.425
1267.19	141.907
1268.71	152.981
1270.22	144.178
1271.74	173.452
1273.26	178.147
1274.78	181.489
1276.3	191.723
1277.82	206.917
1279.33	218.392
1280.85	220.283
1282.37	228.718
1283.89	260.827
1285.41	264.536
1286.93	276.898
1288.44	271.445
1289.96	301.246
1291.48	301.065
1293	341.041
1294.52	356.176
1296.04	352.265
1297.55	382.514
1299.07	395.385
1300.59	417.215
1302.11	433.036
1303.63	432.153
1305.15	473.81
1306.66	505.312
1308.18	516.043
1309.7	552.322
1311.22	582.319
1312.74	608.874
1314.26	610.376
1315.77	664.968
1317.29	684.135
1318.81	714.546
1320.33	702.415
1321.85	762.308
1323.37	821.076
1324.88	815.384
1326.4	884.726
1327.92	905.597
1329.44	938.137
1330.96	991.698
1332.48	960.371
1333.99	1012.98
1335.51	1075.42
1337.03	1091.22
1338.55	1134.47
1340.07	1119
1341.59	1156.68
1343.1	1148.77
1344.62	1159.09
1346.14	1177.11
1347.66	1187.11
1349.18	1194.6
1350.7	1188.11
1352.21	1157.76
1353.73	1161.24
1355.25	1130.92
1356.77	1128.64
1358.29	1078.3
1359.81	1078.86
1361.32	1027.09
1362.84	1009.07
1364.36	984.843
1365.88	943.797
1367.4	941.371
1368.92	881.953
1370.43	860.322
1371.95	842.051
1373.47	803.856
1374.99	740.362
1376.51	719.07
1378.03	693.324
1379.54	678.404
1381.06	632.199
1382.58	602.226
1384.1	578.307
1385.62	545.376
1387.14	516.142
1388.65	482.472
1390.17	488.129
1391.69	464.373
1393.21	427.692
1394.73	401.725
1396.25	400.266
1397.76	381.936
1399.28	362.832
1400.8	301.883
1402.32	316.537
1403.84	295.557
1405.36	277.562
1406.87	255.815
1408.39	231.907
1409.91	235.033
1411.43	211.049
1412.95	190.647
1414.47	178.244
1415.98	181.704
1417.5	171.641
1419.02	157.367
1420.54	153.694
1422.06	137.69
1423.58	142.968
1425.09	116.638
1426.61	133.395
1428.13	117.757
1429.65	107.786
1431.17	95.8401
1432.69	105.139
1434.2	95.6707
1435.72	92.9901
1437.24	78.1824
1438.76	73.4714
1440.28	69.9146
1441.8	59.5966
1443.32	57.7957
1444.83	57.1603
1446.35	47.2142
1447.87	55.5769
1449.39	41.7431
1450.91	28.154
1452.43	44.9641
1453.94	38.8203
1455.46	24.3287
1456.98	44.301
1458.5	30.661
1460.02	39.0218
1461.54	29.8856
1463.05	34.8623
1464.57	5.58316
1466.09	11.961
1467.61	22.3218
1469.13	16.1473
1470.65	10.5281
1472.16	0.76911
1473.68	4.60212
1475.2	2.26021
1476.72	-25.8511
1478.24	12.0433
1479.76	32.7748
1481.27	14.9047
1482.79	5.41661
1484.31	29.5377
1485.83	27.8801
1487.35	30.0702
1488.87	44.1293
1490.38	19.7189
1491.9	50.6111
1493.42	54.0526
1494.94	46.8598
1496.46	52.9675
1497.98	65.1523
1499.49	73.4634
1501.01	59.5317
1502.53	50.6683
1504.05	62.4002
1505.57	73.535
1507.09	82.2684
1508.6	80.9335
1510.12	97.6737
1511.64	97.0081
1513.16	108.543
1514.68	120.051
1516.2	113.837
1517.71	131.578
1519.23	130.927
1520.75	140.036
1522.27	167.145
1523.79	159.45
1525.31	171.527
1526.82	182.428
1528.34	171.583
1529.86	216.505
1531.38	202.497
1532.9	220.825
1534.42	236.948
1535.93	252.16
1537.45	266.688
1538.97	277.543
1540.49	309.606
1542.01	324.822
1543.53	340.045
1545.04	350.416
1546.56	369.528
1548.08	401.631
1549.6	426.452
1551.12	459.698
1552.64	502.985
1554.15	476.225
1555.67	538.979
1557.19	570.352
1558.71	599.524
1560.23	613.749
1561.75	655.499
1563.26	678.479
1564.78	728.146
1566.3	733.665
1567.82	792.462
1569.34	864.106
1570.86	880.366
1572.37	924.864
1573.89	944.622
1575.41	978.13
1576.93	999.019
1578.45	1041.08
1579.97	1105.12
1581.48	1117.93
1583	1149.09
1584.52	1185.94
1586.04	1207.09
1587.56	1252.16
1589.08	1221.5
1590.59	1264.91
1592.11	1271.93
1593.63	1277.46
1595.15	1265.58
1596.67	1268.52
1598.19	1297.36
1599.7	1297.15
1601.22	1271.6
1602.74	1258.65
1604.26	1244.45
1605.78	1251.97
1607.3	1228.96
1608.81	1197.1
1610.33	1177.74
1611.85	1174.65
1613.37	1144.98
1614.89	1136.65
1616.41	1122.1
1617.92	1078.61
1619.44	1075.75
1620.96	1028.26
1622.48	1001.97
1624	969.456
1625.52	929.558
1627.04	880.034
1628.55	850.159
1630.07	797.853
1631.59	733.156
1633.11	719.219
1634.63	663.946
1636.15	634.549
1637.66	576.954
1639.18	536.414
1640.7	497.651
1642.22	469.268
1643.74	437.847
1645.26	403.45
1646.77	385.172
1648.29	313.307
1649.81	309.421
1651.33	276.918
1652.85	259.502
1654.37	235.067
1655.88	215.51
1657.4	194.312
1658.92	168.256
1660.44	166.213
1661.96	147.652
1663.48	132.264
1664.99	119.273
1666.51	108.199
1668.03	95.7141
1669.55	82.0781
1671.07	70.6848
1672.59	65.7872
1674.1	60.6099
1675.62	42.8802
1677.14	33.6855
1678.66	35.0725
1680.18	25.3907
1681.7	21.106
1683.21	17.2842
1684.73	7.99144
1686.25	7.61971
1687.77	5.1071
1689.29	4.05542
1690.81	0.569714
1692.32	3.37011
1693.84	0.138914
1695.36	-6.62094
1696.88	-6.34065
1698.4	-11.4089
1699.92	-6.63248
1701.43	0.0929626
1702.95	-2.81242
1704.47	-3.506
1705.99	-4.21758
1707.51	-5.66953
1709.03	-3.07266
1710.54	-1.41798
1712.06	-0.483322
1713.58	-2.04955
1715.1	2.47778
1716.62	-2.45783
1718.14	4.80226
1719.65	7.2993
1721.17	0.273811
1722.69	-2.56256
1724.21	0.709979
1725.73	-5.08747
1727.25	-7.52672
1728.76	-0.449202
1730.28	-3.23571
1731.8	7.41928
1733.32	-3.6832
1734.84	0.124624
1736.36	1.53269
1737.87	-1.3148
1739.39	4.84963
1740.91	-4.69517
1742.43	-6.55206
1743.95	-0.895884
1745.47	-6.5994
1746.98	0.313246
1748.5	-1.96333
1750.02	-6.74557
1751.54	-0.864336
1753.06	-7.293
1754.58	-3.39405
1756.09	-0.226962
1757.61	-2.91823
1759.13	-2.17303
1760.65	-0.633975
1762.17	-2.56439
1763.69	-2.56811
1765.2	-2.61133
1766.72	-8.66476
1768.24	-0.978785
1769.76	-3.75431
1771.28	7.90913
1772.8	-0.910121
1774.31	-2.5678
1775.83	-5.38867
1777.35	-3.22665
1778.87	-3.17523
1780.39	-2.44779
1781.91	-2.54249
1783.42	-5.22138
1784.94	-3.48534
1786.46	3.44738
1787.98	3.6491
1789.5	-9.91007
1791.02	0.562942
1792.53	3.75352
1794.05	-3.8487
1795.57	-1.15129
1797.09	-1.56498
1798.61	-2.82625
1800.13	7.76015
1801.64	-3.01463
1803.16	-4.9246
1804.68	-7.3152
1806.2	-2.46645
1807.72	-7.51546
1809.24	-2.85892
1810.76	-5.11636
1812.27	-8.63988
1813.79	-6.52151
1815.31	-4.25287
1816.83	-6.12639
1818.35	-2.60483
1819.86	-4.1812
1821.38	-0.0501046
1822.9	-5.59618
1824.42	-11.732
1825.94	0.102014
1827.46	-0.0673413
1828.98	-5.29343
1830.49	4.87984
1832.01	1.85168
1833.53	-6.10605
1835.05	-4.33924
1836.57	1.71012
1838.09	-0.396938
1839.6	-1.84057
1841.12	-4.2287
1842.64	-4.25439
1844.16	-0.191068
1845.68	-1.4806
1847.2	-13.4292
1848.71	3.31088
1850.23	-5.68004
1851.75	-5.65939
1853.27	1.22462
1854.79	-1.30826
1856.31	3.61423
1857.82	-9.84694
1859.34	-1.41799
1860.86	4.02535
1862.38	-4.58366
1863.9	-7.02981
1865.42	-5.48854
1866.93	-0.695423
1868.45	-8.1237
1869.97	-5.32324
1871.49	-9.12353
1873.01	-4.65596
1874.53	4.11824
1876.04	-2.69974
1877.56	-4.1811
1879.08	-2.98841
1880.6	-3.56193
1882.12	-7.20177
1883.64	4.52301
1885.15	-7.55001
1886.67	-7.55684
1888.19	-4.6266
1889.71	-0.137099
1891.23	-6.954
1892.75	-0.271567
1894.26	-5.32063
1895.78	-2.20154
1897.3	-3.09405
1898.82	-0.211098
1900.34	-4.22432
1901.86	-3.83021
1903.37	1.30614
1904.89	-5.15958
1906.41	-7.59683
1907.93	-3.45928
1909.45	3.86011
1910.97	-0.885464
1912.48	4.19466
1914	8.66752
1915.52	-2.12349
1917.04	3.28099
1918.56	-2.31557
1920.08	0.0913796
1921.59	4.49292
1923.11	2.05213
1924.63	-1.21629
1926.15	3.83866
1927.67	-2.70141
1929.19	-7.02088
1930.7	5.94225
1932.22	1.43786
1933.74	-4.64344
1935.26	-2.71571
1936.78	-2.49267
1938.3	2.32183
1939.81	-1.45505
1941.33	5.95245
1942.85	3.88756
1944.37	-0.255106
1945.89	-0.940605
1947.41	3.08123
1948.92	-5.12729
1950.44	-3.33498
1951.96	-3.61115
1953.48	-4.05907
1955	0.294509
1956.52	1.35919
1958.03	2.89051
1959.55	-13.3527
1961.07	-3.1788
1962.59	3.45317
1964.11	3.91262
1965.63	-2.67892
1967.14	5.2028
1968.66	2.97809
1970.18	-5.34103
1971.7	1.5789
1973.22	-0.639816
1974.74	-5.08807
1976.25	0.708664
1977.77	-3.94933
1979.29	-2.05653
1980.81	1.0807
1982.33	-0.663559
1983.85	-5.54719
1985.36	-0.56691
1986.88	-4.63665
1988.4	0.505966
1989.92	5.75667
1991.44	-7.34279
1992.96	1.92667
1994.47	-2.07285
1995.99	-3.70082
1997.51	-5.91203
1999.03	3.46361
2000.55	-0.190887
2002.07	3.36494
2003.58	4.4785
2005.1	4.22278
2006.62	-1.82246
2008.14	4.44963
2009.66	2.55045
2011.18	4.80057
2012.7	-2.56107
2014.21	4.78488
2015.73	7.81171
2017.25	6.83807
2018.77	9.94199
2020.29	3.01633
2021.81	4.6544
2023.32	5.78503
2024.84	4.49117
2026.36	2.91701
2027.88	-2.67943
2029.4	2.70085
2030.92	6.14973
2032.43	3.67702
2033.95	5.33693
2035.47	11.7869
2036.99	2.91341
2038.51	-2.40084
2040.03	11.1729
2041.54	4.52676
2043.06	3.05276
2044.58	-1.74576
2046.1	13.4912
2047.62	2.26717
2049.14	-3.59547
2050.65	7.92036
2052.17	-2.63418
2053.69	7.53961
2055.21	-0.421097
2056.73	7.96741
2058.25	-5.96617
2059.76	1.7917
2061.28	4.72406
2062.8	6.83986
2064.32	-2.36166
2065.84	0.478149
2067.36	7.06042
2068.87	-0.388062
2070.39	-2.70837
2071.91	0.636337
2073.43	1.8289
2074.95	2.47678
2076.47	7.57718
2077.98	1.04509
2079.5	3.75366
2081.02	3.30289
2082.54	-1.67883
2084.06	-7.54199
2085.58	0.00813293
2087.09	-1.11436
2088.61	4.34712
2090.13	-0.0816956
2091.65	0.247543
2093.17	-5.02909
2094.69	0.540024
2096.2	-4.44146
2097.72	3.03984
2099.24	0.677002
2100	-0.978218