File: Example Data/Raman/CNT - TIM/Raytheon/Al foil/2010/08-12-10/Al batch 16 - top.txt
300	-25.2141
301.518	-24.145
303.037	-21.5173
304.555	-21.6658
306.073	-20.2649
307.592	-17.2087
309.11	-17.4008
310.628	-22.8933
312.147	-16.5665
313.665	-15.6301
315.183	-22.4503
316.702	-21.2288
318.22	-32.025
319.738	-22.7044
321.257	-22.0012
322.775	-20.8573
324.294	-18.2258
325.812	-25.7358
327.33	-19.2773
328.849	-16.4823
330.367	-19.8897
331.885	-20.405
333.404	-23.2394
334.922	-18.5652
336.44	-12.474
337.959	-18.4586
339.477	-16.7655
340.995	-13.0999
342.514	-15.0956
344.032	-25.1812
345.55	-12.0675
347.069	-24.3879
348.587	-22.0557
350.105	-19.0866
351.624	-17.6934
353.142	-10.8898
354.66	-4.04604
356.179	-13.3619
357.697	-6.02554
359.216	-16.4333
360.734	-15.6357
362.252	-13.596
363.771	-13.9772
365.289	-6.03456
366.807	-17.5379
368.326	-15.0523
369.844	-13.8255
371.362	-16.0901
372.881	-11.3496
374.399	-14.3201
375.917	-10.0332
377.436	-20.5144
378.954	-17.1473
380.472	-9.17831
381.991	-12.3884
383.509	-10.2237
385.027	-18.8696
386.546	-12.8268
388.064	-17.3616
389.582	-16.7683
391.101	-11.5557
392.619	-12.9882
394.137	-15.6293
395.656	-10.5296
397.174	-5.02188
398.693	-10.9168
400.211	-6.6157
401.729	-1.96168
403.248	-16.7138
404.766	-8.75433
406.284	-11.0012
407.803	-9.70683
409.321	3.99376
410.839	-9.11462
412.358	-10.0952
413.876	-6.2252
415.394	-3.2811
416.913	-5.30168
418.431	-2.78737
419.949	-13.5244
421.468	-8.05826
422.986	-2.1316
424.504	-6.90893
426.023	-2.25904
427.541	-3.82292
429.059	-7.39344
430.578	-6.54608
432.096	-2.22094
433.615	-6.71668
435.133	9.91044
436.651	2.023
438.17	-9.98739
439.688	-7.9831
441.206	-3.27649
442.725	1.64481
444.243	-1.3432
445.761	1.90128
447.28	-3.59382
448.798	-4.15227
450.316	-3.23503
451.835	-10.481
453.353	-0.288268
454.871	3.20476
456.39	-10.9156
457.908	3.77935
459.426	-0.861406
460.945	-6.63042
462.463	2.44922
463.981	0.98952
465.5	3.3555
467.018	-0.26464
468.536	-0.192722
470.055	-4.48681
471.573	2.4989
473.092	5.50102
474.61	-7.61767
476.128	-1.52158
477.647	4.57357
479.165	7.16537
480.683	1.85707
482.202	-1.79884
483.72	12.117
485.238	-1.51071
486.757	-2.34335
488.275	6.02062
489.793	-12.6822
491.312	-0.158373
492.83	-0.36238
494.348	-1.77847
495.867	-5.2289
497.385	6.32053
498.903	-4.38042
500.422	-1.87377
501.94	-8.82394
503.458	-7.63529
504.977	-3.29294
506.495	-5.48024
508.013	-3.24958
509.532	-3.01584
511.05	0.752067
512.569	-3.32908
514.087	2.45412
515.605	-4.30215
517.124	-8.11397
518.642	-0.157874
520.16	6.00953
521.679	-10.412
523.197	2.08365
524.715	0.291102
526.234	5.01279
527.752	-2.5842
529.27	-13.1632
530.789	2.24029
532.307	4.26487
533.825	8.0798
535.344	7.76283
536.862	-4.53808
538.38	5.6293
539.899	7.69171
541.417	12.2559
542.935	2.95074
544.454	7.07183
545.972	3.74488
547.491	8.86687
549.009	8.97167
550.527	2.94992
552.046	7.51024
553.564	-1.80443
555.082	0.225168
556.601	4.08037
558.119	2.24507
559.637	5.49867
561.156	-0.702578
562.674	-0.293519
564.192	-1.71512
565.711	12.035
567.229	-0.43908
568.747	3.90302
570.266	3.57379
571.784	4.9183
573.302	4.04389
574.821	5.9353
576.339	10.2522
577.857	8.02699
579.376	11.3543
580.894	2.97092
582.412	-5.90913
583.931	4.38244
585.449	12.5651
586.968	8.60636
588.486	7.76334
590.004	4.13253
591.523	2.9979
593.041	8.28314
594.559	9.32152
596.078	-1.90981
597.596	10.6271
599.114	14.7294
600.633	7.4815
602.151	2.97827
603.669	5.71482
605.188	9.7401
606.706	-0.0168816
608.224	9.19877
609.743	6.28229
611.261	9.73098
612.779	7.1483
614.298	6.63588
615.816	6.79129
617.334	12.4887
618.853	4.25502
620.371	5.19599
621.89	5.86716
623.408	11.0426
624.926	-6.56442
626.445	10.4451
627.963	1.4954
629.481	9.49109
631	14.2269
632.518	10.3062
634.036	12.3345
635.555	2.5558
637.073	5.83741
638.591	3.66287
640.11	9.49795
641.628	16.8494
643.146	14.7927
644.665	9.42146
646.183	25.6653
647.701	16.1443
649.22	12.7349
650.738	8.73014
652.256	6.07863
653.775	17.2955
655.293	15.1895
656.811	13.3118
658.33	12.9194
659.848	13.6113
661.367	13.5782
662.885	14.4127
664.403	10.4042
665.922	16.9596
667.44	7.02239
668.958	19.538
670.477	19.6451
671.995	9.89673
673.513	16.2988
675.032	15.1147
676.55	16.3822
678.068	15.3107
679.587	7.2677
681.105	21.3221
682.623	17.4895
684.142	19.6463
685.66	17.6859
687.178	16.4448
688.697	15.9562
690.215	11.8744
691.733	15.8454
693.252	12.803
694.77	19.0507
696.289	10.0649
697.807	16.4577
699.325	11.8226
700.844	14.505
702.362	13.7227
703.88	20.15
705.399	9.83664
706.917	9.23002
708.435	18.5862
709.954	14.0651
711.472	14.4976
712.99	9.50515
714.509	18.4903
716.027	14.7547
717.545	20.7483
719.064	20.5987
720.582	19.1284
722.1	16.2152
723.619	22.1155
725.137	17.1625
726.655	19.792
728.174	19.686
729.692	17.6662
731.21	31.0012
732.729	21.0783
734.247	18.8207
735.766	21.3423
737.284	30.043
738.802	26.3394
740.321	26.2865
741.839	22.0223
743.357	31.773
744.876	38.0428
746.394	27.3807
747.912	30.3425
749.431	28.7074
750.949	35.9388
752.467	30.1301
753.986	28.6711
755.504	41.7608
757.022	37.503
758.541	30.8282
760.059	27.8304
761.577	33.5558
763.096	23.5379
764.614	37.2937
766.132	30.1776
767.651	33.6497
769.169	39.6148
770.6875	33.817
772.206	31.052
773.724	42.5506
775.242	33.2732
776.761	40.017
778.279	41.7204
779.798	45.0193
781.316	31.3591
782.834	34.569
784.353	31.9757
785.871	46.9867
787.389	39.2682
788.908	38.8025
790.426	35.7926
791.944	38.1416
793.463	39.9301
794.981	48.6767
796.499	46.0452
798.018	49.6119
799.536	36.1977
801.054	46.9773
802.573	40.4509
804.091	46.86
805.609	52.1107
807.128	44.226
808.646	58.8319
810.164	48.9967
811.683	51.6947
813.201	45.5897
814.72	51.0115
816.238	51.0164
817.756	55.3358
819.275	46.4051
820.793	52.1194
822.311	42.1898
823.83	52.3012
825.348	43.7274
826.866	43.2828
828.385	51.0264
829.903	54.6676
831.421	51.3441
832.94	53.3729
834.458	49.847
835.976	53.3958
837.495	59.1291
839.013	61.6184
840.531	58.9941
842.05	50.1291
843.568	53.2847
845.086	48.6247
846.605	57.2314
848.123	49.1878
849.641	60.3728
851.16	61.3507
852.678	55.8994
854.197	58.6927
855.715	55.7064
857.233	57.872
858.752	48.9771
860.27	54.6427
861.788	56.6315
863.307	52.2181
864.825	54.7664
866.343	50.2691
867.862	46.5709
869.38	43.3637
870.898	40.6303
872.417	38.9079
873.935	25.0266
875.453	41.1196
876.972	35.6907
878.49	38.7636
880.008	27.595
881.527	34.9721
883.045	35.2431
884.563	26.5117
886.082	37.9197
887.6	44.368
889.119	29.9071
890.637	31.8222
892.155	29.2477
893.674	28.4634
895.192	17.0453
896.71	20.4251
898.229	23.4708
899.747	22.6918
901.265	8.36092
902.784	29.3561
904.302	24.6348
905.82	19.9142
907.339	16.8937
908.857	10.1766
910.375	16.0101
911.894	14.8729
913.412	7.90637
914.93	16.2303
916.449	14.3186
917.967	23.5993
919.485	9.81194
921.004	9.41027
922.522	16.0188
924.04	8.44513
925.559	14.1054
927.077	8.60008
928.596	10.4699
930.114	4.63758
931.632	8.03283
933.151	3.01404
934.669	9.83636
936.187	5.89899
937.706	17.9314
939.224	16.9514
940.742	3.55299
942.261	-2.87019
943.779	6.86922
945.297	7.12848
946.816	17.1259
948.334	13.3597
949.852	14.5315
951.371	11.2265
952.889	8.99474
954.407	3.46283
955.926	1.47671
957.444	5.77718
958.962	12.2715
960.481	-1.90675
961.999	13.2514
963.518	4.01161
965.036	2.19031
966.554	7.46069
968.073	-0.976954
969.591	-2.314
971.109	-5.87097
972.628	-0.763727
974.146	1.98216
975.664	-6.63541
977.183	0.66557
978.701	5.15516
980.219	-6.45866
981.738	3.6279
983.256	-2.09248
984.774	2.07268
986.293	-1.51809
987.811	2.07774
989.329	-8.49818
990.848	-3.05672
992.366	-5.6104
993.884	-4.0802
995.403	-5.88875
996.921	-6.64428
998.439	-2.61612
999.958	-2.43891
1001.48	-3.47894
1002.99	-1.07603
1004.51	3.84825
1006.03	-0.689317
1007.55	6.46352
1009.07	-6.74222
1010.59	-17.9416
1012.1	-5.27367
1013.62	-4.81915
1015.14	-0.0745897
1016.66	2.56645
1018.18	9.38801
1019.7	-1.91933
1021.21	4.67606
1022.73	4.71626
1024.25	11.495
1025.77	9.6507
1027.29	8.23726
1028.81	13.0834
1030.32	4.93196
1031.84	1.60182
1033.36	5.73405
1034.88	9.20183
1036.4	5.45296
1037.92	5.88728
1039.43	2.84757
1040.95	18.8828
1042.47	8.3627
1043.99	8.36726
1045.51	6.06941
1047.03	8.55571
1048.54	-1.92607
1050.06	-7.13406
1051.58	4.77464
1053.1	-0.624268
1054.62	8.86501
1056.14	1.96705
1057.66	0.196018
1059.17	-9.2873
1060.69	7.11402
1062.21	4.11086
1063.73	-0.499848
1065.25	13.7083
1066.77	8.55096
1068.28	9.29405
1069.8	2.13279
1071.32	5.93436
1072.84	-2.04008
1074.36	5.3838
1075.88	5.94815
1077.39	0.0597487
1078.91	5.56594
1080.43	13.7825
1081.95	7.29697
1083.47	1.83254
1084.99	2.364
1086.5	4.80075
1088.02	5.328
1089.54	3.64855
1091.06	9.34394
1092.58	8.06161
1094.1	3.19945
1095.61	12.8695
1097.13	5.49832
1098.65	4.75616
1100.17	2.08022
1101.69	13.5887
1103.21	16.9114
1104.72	14.3012
1106.24	10.6308
1107.76	7.71094
1109.28	15.9366
1110.8	21.7118
1112.32	18.4778
1113.83	13.2603
1115.35	19.1323
1116.87	13.9725
1118.39	12.1792
1119.91	3.02843
1121.43	16.3299
1122.94	16.2164
1124.46	23.5546
1125.98	9.58745
1127.5	18.6218
1129.02	6.13577
1130.54	22.4087
1132.05	26.6719
1133.57	22.9662
1135.09	22.8709
1136.61	18.983
1138.13	16.6429
1139.65	21.6037
1141.16	22.4893
1142.68	32.8948
1144.2	30.1842
1145.72	13.3154
1147.24	28.3053
1148.76	29.4209
1150.27	39.9366
1151.79	25.9137
1153.31	35.5584
1154.83	37.3695
1156.35	35.3397
1157.87	40.6898
1159.38	26.001
1160.9	30.5791
1162.42	44.8269
1163.94	39.4687
1165.46	39.2905
1166.98	40.8913
1168.49	32.725
1170.01	44.7707
1171.53	34.493
1173.05	48.1022
1174.57	55.6083
1176.09	38.8925
1177.6	40.1889
1179.12	41.7492
1180.64	41.4739
1182.16	46.7433
1183.68	49.4502
1185.2	46.2766
1186.71	33.8297
1188.23	52.2606
1189.75	43.4599
1191.27	36.2925
1192.79	28.4872
1194.31	40.869
1195.82	34.7804
1197.34	42.633
1198.86	45.5942
1200.38	45.0402
1201.9	43.5648
1203.42	43.0672
1204.93	57.8291
1206.45	52.5696
1207.97	45.946
1209.49	55.9823
1211.01	53.7767
1212.53	67.1041
1214.04	55.0487
1215.56	63.3228
1217.08	66.1965
1218.6	67.7634
1220.12	65.4375
1221.64	64.6853
1223.15	69.7887
1224.67	68.9529
1226.19	77.9842
1227.71	84.3907
1229.23	97.7342
1230.75	73.5876
1232.26	108.813
1233.78	84.4571
1235.3	94.5992
1236.82	100.774
1238.34	92.0277
1239.86	94.013
1241.375	112.081
1242.89	128.091
1244.41	105.665
1245.93	125.726
1247.45	121.389
1248.97	136.652
1250.48	118.648
1252	143.833
1253.52	144.01
1255.04	127.585
1256.56	162
1258.08	156.709
1259.6	162.487
1261.11	170.617
1262.63	184.172
1264.15	216.879
1265.67	214.282
1267.19	216.586
1268.71	209.194
1270.22	200.841
1271.74	224.049
1273.26	245.205
1274.78	254.87
1276.3	246.082
1277.82	248.95
1279.33	273.153
1280.85	288.561
1282.37	266.169
1283.89	303.674
1285.41	320.537
1286.93	318.45
1288.44	343.148
1289.96	343.307
1291.48	344.283
1293	368.923
1294.52	381.526
1296.04	408.221
1297.55	407.802
1299.07	449.835
1300.59	467.494
1302.11	428.972
1303.63	474.573
1305.15	500.687
1306.66	520.426
1308.18	544.679
1309.7	536.36
1311.22	611.706
1312.74	608.9
1314.26	640.896
1315.77	650.536
1317.29	686.119
1318.81	684.426
1320.33	727.943
1321.85	744.296
1323.37	777.103
1324.88	788.883
1326.4	831.588
1327.92	824.518
1329.44	833.894
1330.96	904.405
1332.48	882.756
1333.99	919.765
1335.51	941.702
1337.03	950.499
1338.55	963.953
1340.07	955.746
1341.59	967.02
1343.1	988.824
1344.62	984.941
1346.14	972.531
1347.66	981.387
1349.18	958.355
1350.7	940.377
1352.21	934.773
1353.73	957.4
1355.25	949.83
1356.77	885.104
1358.29	910.537
1359.81	862.469
1361.32	832.054
1362.84	826.669
1364.36	789.196
1365.88	767.09
1367.4	727.154
1368.92	722.892
1370.43	681.917
1371.95	694.422
1373.47	662.018
1374.99	630.431
1376.51	617.18
1378.03	590.865
1379.54	575.119
1381.06	543.785
1382.58	553.123
1384.1	505.911
1385.62	468.014
1387.14	445.949
1388.65	448.538
1390.17	424.239
1391.69	394.087
1393.21	400.1
1394.73	372.865
1396.25	361.572
1397.76	331.437
1399.28	306.266
1400.8	301.633
1402.32	292.915
1403.84	279.376
1405.36	263.531
1406.87	244.602
1408.39	257.875
1409.91	223.358
1411.43	225.065
1412.95	214.154
1414.47	209.373
1415.98	189.85
1417.5	189.107
1419.02	184.26
1420.54	152.254
1422.06	157.587
1423.58	150.118
1425.09	118.264
1426.61	121.87
1428.13	125.655
1429.65	105.279
1431.17	96.8469
1432.69	98.4872
1434.2	97.4468
1435.72	106.326
1437.24	88.3611
1438.76	87.7284
1440.28	76.1815
1441.8	76.5095
1443.32	65.3893
1444.83	69.0098
1446.35	55.8661
1447.87	50.8608
1449.39	60.4525
1450.91	38.8508
1452.43	52.4677
1453.94	31.8124
1455.46	43.2149
1456.98	49.0347
1458.5	39.2523
1460.02	28.7656
1461.54	39.5286
1463.05	37.009
1464.57	24.889
1466.09	2.2686
1467.61	19.9573
1469.13	14.3797
1470.65	18.96
1472.16	14.9061
1473.68	17.0422
1475.2	5.32476
1476.72	1.42491
1478.24	21.8438
1479.76	16.6607
1481.27	-0.0748595
1482.79	-3.98513
1484.31	-9.91716
1485.83	5.90106
1487.35	6.97073
1488.87	-2.96015
1490.38	-0.52042
1491.9	4.8277
1493.42	7.75484
1494.94	18.158
1496.46	12.6598
1497.98	10.5192
1499.49	12.7504
1501.01	20.8903
1502.53	9.54806
1504.05	15.3147
1505.57	29.1062
1507.09	22.0335
1508.6	24.1931
1510.12	7.76492
1511.64	32.1528
1513.16	30.2851
1514.68	22.8857
1516.2	41.546
1517.71	51.9414
1519.23	59.8024
1520.75	78.6797
1522.27	61.7678
1523.79	75.8883
1525.31	97.5102
1526.82	99.8107
1528.34	129.593
1529.86	126.68
1531.38	125.766
1532.9	149.406
1534.42	149.703
1535.93	174.426
1537.45	178.274
1538.97	187.877
1540.49	204.903
1542.01	216.743
1543.53	236.052
1545.04	234.558
1546.56	272.291
1548.08	285.008
1549.6	303.014
1551.12	330.173
1552.64	333.901
1554.15	350.052
1555.67	385.871
1557.19	432.6
1558.71	441.298
1560.23	438.31
1561.75	450.178
1563.26	496.739
1564.78	519.911
1566.3	545.847
1567.82	565.997
1569.34	591.251
1570.86	614.8
1572.37	640.823
1573.89	678.464
1575.41	698.921
1576.93	711.031
1578.45	742.933
1579.97	774.595
1581.48	791.162
1583	821.577
1584.52	847.846
1586.04	894.59
1587.56	879.739
1589.08	890.893
1590.59	912.593
1592.11	915.909
1593.63	924.376
1595.15	935.807
1596.67	967.639
1598.19	942.215
1599.7	930.019
1601.22	947.578
1602.74	950.557
1604.26	933.716
1605.78	916.815
1607.3	925.863
1608.81	880.016
1610.33	910.323
1611.85	887.238
1613.37	837.473
1614.89	844.012
1616.41	812.753
1617.92	775.873
1619.44	762.009
1620.96	735.826
1622.48	712.084
1624	666.597
1625.52	631.136
1627.04	603.639
1628.55	553.15
1630.07	519.065
1631.59	511.001
1633.11	473.26
1634.63	436.147
1636.15	416.525
1637.66	388.442
1639.18	361.188
1640.7	343.569
1642.22	320.3
1643.74	290.903
1645.26	270.775
1646.77	260.216
1648.29	238.89
1649.81	215.795
1651.33	198.701
1652.85	182.587
1654.37	164.209
1655.88	152.908
1657.4	137.123
1658.92	119.911
1660.44	111.102
1661.96	92.9863
1663.48	89.1772
1664.99	85.1338
1666.51	77.1339
1668.03	53.2179
1669.55	54.5365
1671.07	44.616
1672.59	34.7298
1674.1	40.2576
1675.62	25.4523
1677.14	15.5958
1678.66	20.0377
1680.18	11.646
1681.7	10.8725
1683.21	5.38856
1684.73	2.47424
1686.25	1.19545
1687.77	-2.558
1689.29	-0.0681784
1690.81	2.11203
1692.32	-1.99192
1693.84	-5.91069
1695.36	-3.50612
1696.88	-9.30539
1698.4	-5.38828
1699.92	-10.0692
1701.43	-0.854216
1702.95	2.5014
1704.47	5.05833
1705.99	1.66573
1707.51	4.69451
1709.03	8.23135
1710.54	3.36354
1712.06	5.92072
1713.58	8.0213
1715.1	-2.70541
1716.62	3.13301
1718.14	1.91233
1719.65	2.55036
1721.17	-4.80768
1722.69	7.6444
1724.21	1.85803
1725.73	1.69661
1727.25	-1.96115
1728.76	3.10941
1730.28	3.22238
1731.8	4.0674
1733.32	-1.45549
1734.84	-0.483472
1736.36	-0.819455
1737.87	4.91162
1739.39	4.10567
1740.91	-1.22455
1742.43	1.93506
1743.95	2.35634
1745.47	2.99735
1746.98	3.97902
1748.5	2.01197
1750.02	10.21
1751.54	8.90975
1753.06	7.02407
1754.58	3.02872
1756.09	9.35042
1757.61	7.25025
1759.13	11.3846
1760.65	5.24648
1762.17	6.48523
1763.69	11.5974
1765.2	19.8797
1766.72	14.1956
1768.24	12.08
1769.76	7.75534
1771.28	4.15282
1772.8	12.3977
1774.31	11.1629
1775.83	12.0659
1777.35	14.6326
1778.87	16.2448
1780.39	21.7162
1781.91	16.8861
1783.42	16.2
1784.94	6.86956
1786.46	14.7982
1787.98	8.43333
1789.5	9.36843
1791.02	16.7597
1792.53	6.63561
1794.05	12.3903
1795.57	8.90554
1797.09	6.20652
1798.61	13.621
1800.13	7.53718
1801.64	9.3961
1803.16	9.51028
1804.68	10.4681
1806.2	14.0095
1807.72	15.2072
1809.24	19.9508
1810.76	12.76
1812.27	3.75045
1813.79	12.8414
1815.31	17.4928
1816.83	9.89831
1818.35	15.0929
1819.86	12.03
1821.38	4.13625
1822.9	10.515
1824.42	9.47295
1825.94	4.87902
1827.46	10.9668
1828.98	8.13448
1830.49	10.5316
1832.01	16.0382
1833.53	9.99821
1835.05	15.782
1836.57	13.6239
1838.09	11.345
1839.6	9.75359
1841.12	4.16828
1842.64	15.0884
1844.16	3.3306
1845.68	13.3059
1847.2	13.0996
1848.71	16.4787
1850.23	13.2511
1851.75	12.6421
1853.27	8.6352
1854.79	10.8417
1856.31	11.6699
1857.82	3.59216
1859.34	6.27979
1860.86	5.55442
1862.38	-2.96152
1863.9	6.67587
1865.42	5.45379
1866.93	1.46136
1868.45	1.68203
1869.97	8.5816
1871.49	7.98829
1873.01	-0.550842
1874.53	13.7603
1876.04	2.86478
1877.56	6.97888
1879.08	11.5768
1880.6	7.10686
1882.12	3.78674
1883.64	8.17302
1885.15	11.4855
1886.67	3.32518
1888.19	10.4587
1889.71	10.0226
1891.23	-0.269636
1892.75	15.2459
1894.26	9.54428
1895.78	-0.579125
1897.3	3.84325
1898.82	5.07453
1900.34	6.24728
1901.86	4.13211
1903.37	18.6449
1904.89	2.05896
1906.41	8.23239
1907.93	9.04183
1909.45	3.02259
1910.97	4.89068
1912.48	3.46996
1914	9.167
1915.52	6.22409
1917.04	8.04861
1918.56	10.5065
1920.08	3.89635
1921.59	21.2437
1923.11	7.22353
1924.63	12.408
1926.15	14.6717
1927.67	5.09492
1929.19	7.07236
1930.7	3.44866
1932.22	5.14671
1933.74	8.12509
1935.26	15.3051
1936.78	11.7402
1938.3	13.3903
1939.81	7.17997
1941.33	8.32583
1942.85	7.45896
1944.37	12.0884
1945.89	12.7749
1947.41	6.42239
1948.92	1.93169
1950.44	5.67073
1951.96	2.59992
1953.48	5.9777
1955	4.76959
1956.52	5.04674
1958.03	7.61323
1959.55	4.29587
1961.07	8.45572
1962.59	4.76017
1964.11	17.1756
1965.63	4.49783
1967.14	6.64438
1968.66	6.76487
1970.18	12.4181
1971.7	13.3828
1973.22	13.9134
1974.74	5.67915
1976.25	10.0682
1977.77	2.95169
1979.29	5.84441
1980.81	5.96136
1982.33	7.47803
1983.85	7.57816
1985.36	11.7698
1986.88	2.06325
1988.4	13.9653
1989.92	4.23115
1991.44	4.77063
1992.96	5.87256
1994.47	7.64136
1995.99	14.4132
1997.51	8.50992
1999.03	13.5129
2000.55	12.9795
2002.07	12.965
2003.58	9.99188
2005.1	12.8814
2006.62	12.8866
2008.14	6.34866
2009.66	4.3763
2011.18	15.3308
2012.7	14.0115
2014.21	11.9
2015.73	11.9407
2017.25	18.6737
2018.77	14.868
2020.29	2.04279
2021.81	7.95272
2023.32	6.46809
2024.84	16.9341
2026.36	10.409
2027.88	15.2746
2029.4	15.1712
2030.92	8.23245
2032.43	9.62131
2033.95	21.5074
2035.47	17.1103
2036.99	10.0851
2038.51	9.958
2040.03	10.3281
2041.54	15.8241
2043.06	19.0208
2044.58	16.4338
2046.1	17.841
2047.62	14.1484
2049.14	7.60134
2050.65	15.6683
2052.17	13.4664
2053.69	18.3254
2055.21	3.36684
2056.73	15.2454
2058.25	-2.02125
2059.76	12.2517
2061.28	5.9441
2062.8	11.1289
2064.32	12.7004
2065.84	18.7253
2067.36	13.0534
2068.87	15.6859
2070.39	8.71905
2071.91	7.86665
2073.43	5.8826
2074.95	11.8916
2076.47	15.7027
2077.98	13.2947
2079.5	19.3893
2081.02	0.791511
2082.54	15.3654
2084.06	11.0813
2085.58	14.0252
2087.09	22.4459
2088.61	17.6195
2090.13	12.2538
2091.65	14.6722
2093.17	12.5991
2094.69	11.267
2096.2	9.96945
2097.72	13.0686
2099.24	11.6943
2100	9.81197