File: Example Data/Raman/CNT - TIM/Raytheon/Al foil/2010/08-12-10/Al batch 15 - bottom_2.txt
300	57.0685
301.518	63.9699
303.037	61.1613
304.555	69.9208
306.073	58.0896
307.592	64.2332
309.11	58.4738
310.628	62.0597
312.147	58.0275
313.665	61.3966
315.183	65.6884
316.702	64.7131
318.22	66.3791
319.738	55.0541
321.257	61.6399
322.775	61.5435
324.294	54.1953
325.812	53.7837
327.33	64.2191
328.849	59.9939
330.367	60.6772
331.885	62.9692
333.404	45.9944
334.922	55.8233
336.44	54.3023
337.959	55.5151
339.477	58.8851
340.995	61.1022
342.514	60.0798
344.032	51.6051
345.55	55.3605
347.069	55.4193
348.587	54.4905
350.105	51.6293
351.624	43.4235
353.142	65.1977
354.66	49.8809
356.179	48.4981
357.697	50.981
359.216	53.6651
360.734	47.1832
362.252	49.9502
363.771	50.6317
365.289	48.1827
366.807	39.5187
368.326	43.8627
369.844	55.8584
371.362	49.7924
372.881	42.2304
374.399	41.9466
375.917	46.7184
377.436	34.1444
378.954	39.412
380.472	36.0129
381.991	41.8948
383.509	38.1626
385.027	43.0793
386.546	43.0495
388.064	39.5662
389.582	36.3582
391.101	36.63
392.619	35.5911
394.137	34.4442
395.656	37.9866
397.174	37.3348
398.693	43.8694
400.211	40.3827
401.729	38.8511
403.248	36.3393
404.766	38.1428
406.284	33.1273
407.803	32.6894
409.321	30.2354
410.839	39.5814
412.358	28.6904
413.876	37.2106
415.394	31.4088
416.913	40.7294
418.431	29.8734
419.949	30.8307
421.468	32.7509
422.986	23.7267
424.504	37.3173
426.023	39.7325
427.541	33.3727
429.059	30.577
430.578	36.6924
432.096	31.3595
433.615	30.415
435.133	31.9057
436.651	34.0937
438.17	26.8761
439.688	26.5982
441.206	17.9476
442.725	20.2382
444.243	25.6171
445.761	27.6244
447.28	24.721
448.798	29.9154
450.316	27.5916
451.835	28.9012
453.353	24.3838
454.871	23.5993
456.39	18.5692
457.908	26.0554
459.426	23.0127
460.945	26.308
462.463	19.3684
463.981	16.9617
465.5	27.7915
467.018	36.9386
468.536	24.2674
470.055	25.9057
471.573	17.9613
473.092	19.5324
474.61	26.2069
476.128	9.93323
477.647	20.5284
479.165	18.6268
480.683	18.2133
482.202	9.95871
483.72	8.67707
485.238	18.562
486.757	14.9785
488.275	14.0844
489.793	12.9071
491.312	19.1657
492.83	6.04481
494.348	8.90739
495.867	12.7467
497.385	16.1642
498.903	1.94317
500.422	7.80695
501.94	9.59055
503.458	7.06979
504.977	3.61197
506.495	8.23417
508.013	7.15318
509.532	5.05187
511.05	9.85099
512.569	0.277366
514.087	-5.66832
515.605	0.915012
517.124	0.081812
518.642	2.07857
520.16	4.5438
521.679	-0.510908
523.197	-0.944762
524.715	4.74989
526.234	6.38095
527.752	3.29947
529.27	4.72017
530.789	1.77876
532.307	2.48816
533.825	-2.40275
535.344	-4.15119
536.862	-6.08872
538.38	1.01583
539.899	4.55588
541.417	2.60419
542.935	-1.64079
544.454	0.988978
545.972	5.55007
547.491	5.72691
549.009	5.91958
550.527	1.79888
552.046	-2.88094
553.564	1.87546
555.082	0.530978
556.601	5.80854
558.119	-3.09807
559.637	-1.12962
561.156	-0.970897
562.674	-5.33224
564.192	8.05122
565.711	5.47003
567.229	-5.42624
568.747	2.30338
570.266	1.64348
571.784	0.483327
573.302	0.504902
574.821	1.89127
576.339	0.155044
577.857	2.10999
579.376	4.11833
580.894	6.52651
582.412	1.91213
583.931	4.81365
585.449	6.59416
586.968	4.41129
588.486	4.47761
590.004	4.07605
591.523	4.20994
593.041	-4.10529
594.559	6.90175
596.078	4.16871
597.596	8.45191
599.114	5.42679
600.633	-3.47728
602.151	12.4543
603.669	6.93489
605.188	1.22677
606.706	-5.36154
608.224	8.44894
609.743	3.67126
611.261	7.21605
612.779	10.2029
614.298	-3.57231
615.816	6.18604
617.334	9.77152
618.853	7.61466
620.371	2.73928
621.89	2.98548
623.408	5.97809
624.926	1.76861
626.445	12.0056
627.963	1.17812
629.481	6.30153
631	3.61214
632.518	13.8447
634.036	1.53399
635.555	2.488
637.073	8.04911
638.591	5.69984
640.11	3.21895
641.628	11.1671
643.146	7.63672
644.665	14.3353
646.183	11.1993
647.701	9.5071
649.22	11.3414
650.738	1.39041
652.256	7.13614
653.775	6.5188
655.293	9.42223
656.811	9.55339
658.33	2.83297
659.848	11.0831
661.367	15.2882
662.885	11.7165
664.403	14.1034
665.922	7.59003
667.44	5.98306
668.958	8.50719
670.477	15.2071
671.995	16.9863
673.513	12.8388
675.032	10.352
676.55	5.74071
678.068	5.29736
679.587	23.2674
681.105	16.2316
682.623	11.6405
684.142	11.1434
685.66	11.1802
687.178	16.1321
688.697	13.4577
690.215	17.8398
691.733	10.8926
693.252	13.1326
694.77	12.5658
696.289	13.0976
697.807	19.4644
699.325	11.4131
700.844	5.09329
702.362	17.6563
703.88	15.1164
705.399	11.8158
706.917	10.5005
708.435	4.0669
709.954	17.7884
711.472	13.7448
712.99	13.8807
714.509	11.9831
716.027	18.715
717.545	13.7733
719.064	19.1392
720.582	21.5185
722.1	20.6892
723.619	19.4309
725.137	15.0059
726.655	21.7014
728.174	18.6101
729.692	26.6044
731.21	22.2585
732.729	17.6238
734.247	34.1907
735.766	23.7646
737.284	23.738
738.802	22.8436
740.321	24.7054
741.839	26.6841
743.357	26.426
744.876	29.5466
746.394	30.9559
747.912	17.6447
749.431	25.0807
750.949	37.4062
752.467	26.0028
753.986	32.6393
755.504	35.9877
757.022	26.2404
758.541	31.2684
760.059	27.0426
761.577	25.7807
763.096	18.8224
764.614	33.3745
766.132	26.6123
767.651	28.8256
769.169	40.575
770.6875	28.9989
772.206	27.5167
773.724	31.3153
775.242	37.0096
776.761	36.2747
778.279	24.6054
779.798	36.3099
781.316	36.319
782.834	33.4643
784.353	38.3361
785.871	44.215
787.389	33.8845
788.908	26.3499
790.426	47.5134
791.944	36.7621
793.463	33.8752
794.981	42.8134
796.499	37.2157
798.018	31.7565
799.536	30.1236
801.054	47.1545
802.573	41.4437
804.091	48.2941
805.609	40.1033
807.128	48.0564
808.646	48.698
810.164	39.6325
811.683	36.9787
813.201	37.5422
814.72	43.4807
816.238	39.2427
817.756	43.374
819.275	39.7066
820.793	50.22
822.311	38.2892
823.83	42.853
825.348	39.8511
826.866	35.8015
828.385	42.1156
829.903	44.4433
831.421	47.6894
832.94	44.6561
834.458	47.9781
835.976	49.7336
837.495	52.4696
839.013	49.3146
840.531	54.9108
842.05	53.04
843.568	49.7279
845.086	45.2946
846.605	42.6737
848.123	43.1699
849.641	51.3939
851.16	57.4333
852.678	46.8366
854.197	51.8796
855.715	38.2379
857.233	49.2072
858.752	46.6185
860.27	49.1271
861.788	42.9674
863.307	43.3267
864.825	42.0414
866.343	42.9791
867.862	44.4848
869.38	32.0083
870.898	41.8646
872.417	39.3675
873.935	30.0997
875.453	28.2221
876.972	29.046
878.49	27.46
880.008	32.5319
881.527	30.3923
883.045	28.3353
884.563	34.5832
886.082	33.1633
887.6	10.4427
889.119	20.4318
890.637	30.5282
892.155	15.5719
893.674	16.1054
895.192	13.6283
896.71	7.00191
898.229	16.8603
899.747	11.4178
901.265	14.9724
902.784	9.84573
904.302	10.4772
905.82	9.17965
907.339	17.0985
908.857	3.3922
910.375	7.22026
911.894	2.43751
913.412	-0.652411
914.93	8.0597
916.449	-0.661043
917.967	2.62084
919.485	0.27435
921.004	0.319389
922.522	4.01246
924.04	3.68757
925.559	8.45316
927.077	-0.147759
928.596	3.77895
930.114	-0.398304
931.632	-0.194115
933.151	7.80292
934.669	1.93024
936.187	-0.41545
937.706	6.535
939.224	2.25913
940.742	-3.26972
942.261	2.06121
943.779	-2.76334
945.297	-10.5457
946.816	-0.896876
948.334	0.158167
949.852	-3.76296
951.371	1.9797
952.889	-1.36431
954.407	1.15688
955.926	2.70896
957.444	-0.218415
958.962	-1.32719
960.481	0.905271
961.999	-0.676908
963.518	-7.34736
965.036	-6.05199
966.554	-14.0206
968.073	-9.58278
969.591	-12.8615
971.109	-10.1524
972.628	-6.65898
974.146	-9.50494
975.664	-15.7705
977.183	-18.3259
978.701	-11.9104
980.219	-10.9733
981.738	-16.4768
983.256	-21.0891
984.774	-16.156
986.293	-20.8064
987.811	-20.0012
989.329	-12.1676
990.848	-14.77
992.366	-22.188
993.884	-24.8115
995.403	-21.5988
996.921	-9.50043
998.439	-17.5199
999.958	-16.855
1001.48	-21.3617
1002.99	-20.1214
1004.51	-11.7871
1006.03	-13.9261
1007.55	-9.95426
1009.07	-13.9935
1010.59	-20.9781
1012.1	-17.1219
1013.62	-18.3339
1015.14	-14.8162
1016.66	-16.5941
1018.18	-23.4964
1019.7	-16.1903
1021.21	-21.1925
1022.73	-9.54887
1024.25	-14.2371
1025.77	-21.0547
1027.29	-28.7571
1028.81	-23.9876
1030.32	-15.5335
1031.84	-16.6532
1033.36	-18.5722
1034.88	-22.1312
1036.4	-13.9929
1037.92	-19.7528
1039.43	-19.0728
1040.95	-19.5694
1042.47	-5.35706
1043.99	-11.7922
1045.51	-9.22479
1047.03	-11.1671
1048.54	-13.9399
1050.06	-3.67726
1051.58	-12.858
1053.1	-14.8625
1054.62	-9.86946
1056.14	-6.30105
1057.66	-21.9459
1059.17	-20.1605
1060.69	-24.2251
1062.21	-23.5734
1063.73	-18.8827
1065.25	-16.6332
1066.77	-20.7385
1068.28	-20.5481
1069.8	-15.4486
1071.32	-20.8324
1072.84	-18.0668
1074.36	-19.0527
1075.88	-15.0252
1077.39	-22.2692
1078.91	-17.2152
1080.43	-16.8851
1081.95	-19.2092
1083.47	-14.3583
1084.99	-14.7029
1086.5	-19.0341
1088.02	-16.2307
1089.54	-9.04296
1091.06	-23.3786
1092.58	-19.0558
1094.1	-14.2555
1095.61	-23.8086
1097.13	-19.0564
1098.65	-14.1777
1100.17	-25.0013
1101.69	-24.6756
1103.21	-19.6256
1104.72	-14.5981
1106.24	-16.5455
1107.76	-13.9928
1109.28	-14.2564
1110.8	-19.967
1112.32	-12.5416
1113.83	-14.1917
1115.35	-14.5099
1116.87	-3.8982
1118.39	-7.47348
1119.91	-16.2159
1121.43	-11.3441
1122.94	-3.61821
1124.46	7.3429
1125.98	-21.6708
1127.5	-6.70097
1129.02	-9.79289
1130.54	-6.49464
1132.05	-2.38764
1133.57	4.04026
1135.09	2.50593
1136.61	-0.00483932
1138.13	6.4666
1139.65	3.47915
1141.16	11.0625
1142.68	2.89498
1144.2	11.165
1145.72	14.428
1147.24	17.9954
1148.76	21.4012
1150.27	22.966
1151.79	22.4546
1153.31	22.5626
1154.83	20.8171
1156.35	17.035
1157.87	18.769
1159.38	18.3103
1160.9	34.746
1162.42	25.1725
1163.94	36.3179
1165.46	35.9179
1166.98	27.7005
1168.49	24.595
1170.01	15.3172
1171.53	23.2538
1173.05	30.0062
1174.57	33.2095
1176.09	18.6111
1177.6	23.3754
1179.12	31.1232
1180.64	29.1514
1182.16	33.4766
1183.68	19.275
1185.2	23.3343
1186.71	30.8662
1188.23	37.4018
1189.75	36.3251
1191.27	15.7779
1192.79	23.4851
1194.31	34.2825
1195.82	25.7516
1197.34	27.1759
1198.86	32.7552
1200.38	37.6173
1201.9	33.5788
1203.42	40.3895
1204.93	38.8135
1206.45	26.1329
1207.97	25.5366
1209.49	38.7466
1211.01	34.3464
1212.53	50.8034
1214.04	43.3157
1215.56	42.1721
1217.08	38.8413
1218.6	38.0843
1220.12	50.7826
1221.64	36.4398
1223.15	44.9504
1224.67	57.276
1226.19	57.8718
1227.71	60.2725
1229.23	62.0013
1230.75	55.2553
1232.26	44.7079
1233.78	62.5781
1235.3	63.1189
1236.82	68.7661
1238.34	64.1244
1239.86	64.8184
1241.375	65.8717
1242.89	70.2942
1244.41	79.3996
1245.93	98.3564
1247.45	75.6837
1248.97	91.173
1250.48	83.9984
1252	98.4047
1253.52	87.1106
1255.04	99.7179
1256.56	129.175
1258.08	105.796
1259.6	120.169
1261.11	121.401
1262.63	125.854
1264.15	135.373
1265.67	129.598
1267.19	151.296
1268.71	159.312
1270.22	148.088
1271.74	140.382
1273.26	188.397
1274.78	175.285
1276.3	195.631
1277.82	193.592
1279.33	196.201
1280.85	191.127
1282.37	208.435
1283.89	218.235
1285.41	234.363
1286.93	212.326
1288.44	230.297
1289.96	256.761
1291.48	246.028
1293	270.944
1294.52	274.496
1296.04	299.046
1297.55	300.613
1299.07	302.641
1300.59	305.605
1302.11	348.811
1303.63	339.344
1305.15	353.157
1306.66	351.124
1308.18	355.281
1309.7	377.652
1311.22	414.356
1312.74	386.383
1314.26	424.515
1315.77	452.725
1317.29	457.797
1318.81	485.81
1320.33	486.086
1321.85	479.194
1323.37	491.358
1324.88	508.69
1326.4	520.251
1327.92	538.641
1329.44	540.248
1330.96	539.618
1332.48	576.25
1333.99	553.14
1335.51	542.71
1337.03	582.779
1338.55	552.542
1340.07	599.48
1341.59	582.463
1343.1	586.492
1344.62	591.869
1346.14	597.449
1347.66	585.564
1349.18	607.307
1350.7	588.552
1352.21	568.549
1353.73	574.683
1355.25	571.617
1356.77	561.381
1358.29	548.238
1359.81	542.395
1361.32	515.602
1362.84	520.705
1364.36	526.325
1365.88	500.885
1367.4	481.882
1368.92	456.279
1370.43	459.381
1371.95	438.614
1373.47	444.712
1374.99	409.528
1376.51	415.961
1378.03	373.224
1379.54	370.519
1381.06	363.652
1382.58	359.824
1384.1	350.229
1385.62	338.091
1387.14	322.858
1388.65	301.843
1390.17	306.327
1391.69	294.5
1393.21	274.851
1394.73	277.297
1396.25	233.329
1397.76	251.097
1399.28	234.934
1400.8	236.955
1402.32	215.289
1403.84	205.982
1405.36	209.401
1406.87	184.869
1408.39	180.266
1409.91	166.617
1411.43	152.731
1412.95	157.935
1414.47	128.38
1415.98	142.193
1417.5	132.406
1419.02	130.644
1420.54	116.541
1422.06	122.905
1423.58	99.954
1425.09	112.117
1426.61	93.6732
1428.13	98.5454
1429.65	98.2761
1431.17	72.3574
1432.69	85.1015
1434.2	87.8026
1435.72	59.1446
1437.24	59.2336
1438.76	65.675
1440.28	59.3165
1441.8	61.0857
1443.32	41.3903
1444.83	45.1233
1446.35	37.8416
1447.87	60.4339
1449.39	40.9372
1450.91	34.8691
1452.43	28.1715
1453.94	35.1619
1455.46	32.4593
1456.98	41.1251
1458.5	18.067
1460.02	9.75889
1461.54	22.4166
1463.05	8.3337
1464.57	5.80751
1466.09	13.1662
1467.61	12.2263
1469.13	28.2885
1470.65	15.2998
1472.16	10.1668
1473.68	14.491
1475.2	8.15613
1476.72	5.90023
1478.24	-5.7441
1479.76	-1.12262
1481.27	14.314
1482.79	-20.2552
1484.31	-10.1453
1485.83	-3.719
1487.35	-7.20705
1488.87	-11.7868
1490.38	17.3813
1491.9	23.6527
1493.42	17.0806
1494.94	8.14942
1496.46	28.3003
1497.98	28.5625
1499.49	24.7922
1501.01	34.1366
1502.53	30.1959
1504.05	45.465
1505.57	29.1137
1507.09	36.8142
1508.6	42.776
1510.12	57.9543
1511.64	48.8134
1513.16	55.6956
1514.68	74.5536
1516.2	66.3561
1517.71	72.7445
1519.23	69.4893
1520.75	89.5043
1522.27	66.992
1523.79	88.1283
1525.31	92.6251
1526.82	101.869
1528.34	99.9856
1529.86	120.51
1531.38	129.514
1532.9	127.886
1534.42	138.363
1535.93	143.81
1537.45	149.256
1538.97	169.92
1540.49	147.779
1542.01	183.715
1543.53	176.573
1545.04	180.479
1546.56	214.291
1548.08	222.061
1549.6	220.649
1551.12	235.715
1552.64	241.985
1554.15	269.64
1555.67	259.947
1557.19	290.957
1558.71	317.862
1560.23	296.58
1561.75	328.076
1563.26	334.939
1564.78	343.232
1566.3	340.679
1567.82	372.904
1569.34	384.075
1570.86	431.894
1572.37	438.969
1573.89	462.853
1575.41	472.081
1576.93	499.585
1578.45	512.341
1579.97	519.389
1581.48	539.655
1583	545.107
1584.52	581.551
1586.04	612.75
1587.56	608.384
1589.08	640.599
1590.59	636.641
1592.11	655.986
1593.63	651.201
1595.15	650.804
1596.67	677.954
1598.19	686.322
1599.7	693.086
1601.22	701.362
1602.74	688.077
1604.26	674.059
1605.78	700.899
1607.3	680.532
1608.81	665.15
1610.33	645.214
1611.85	656.035
1613.37	602.588
1614.89	600.74
1616.41	573.081
1617.92	568.97
1619.44	532.99
1620.96	526.197
1622.48	498.532
1624	477.119
1625.52	447.274
1627.04	416.645
1628.55	398.562
1630.07	383.529
1631.59	356.818
1633.11	331.886
1634.63	320.54
1636.15	294.766
1637.66	295.845
1639.18	274.608
1640.7	246.426
1642.22	234.104
1643.74	234.263
1645.26	207.947
1646.77	194.202
1648.29	162.31
1649.81	165.975
1651.33	164.477
1652.85	144.92
1654.37	133.177
1655.88	123.044
1657.4	117.999
1658.92	111.46
1660.44	103.63
1661.96	91.3078
1663.48	75.458
1664.99	75.5858
1666.51	54.2583
1668.03	52.1454
1669.55	46.5478
1671.07	47.627
1672.59	35.1679
1674.1	35.0673
1675.62	25.141
1677.14	23.9867
1678.66	23.1569
1680.18	21.082
1681.7	17.1072
1683.21	17.6668
1684.73	11.0998
1686.25	8.57205
1687.77	10.8241
1689.29	11.9037
1690.81	5.43484
1692.32	9.38595
1693.84	3.26822
1695.36	7.87404
1696.88	2.43457
1698.4	7.81799
1699.92	1.94017
1701.43	0.653531
1702.95	3.88663
1704.47	-0.718011
1705.99	4.72724
1707.51	2.06743
1709.03	5.17568
1710.54	1.7077
1712.06	-2.37247
1713.58	-3.61649
1715.1	5.34932
1716.62	-7.03323
1718.14	-1.17719
1719.65	-2.24361
1721.17	-11.8589
1722.69	3.13749
1724.21	-2.1563
1725.73	-1.47517
1727.25	-4.96449
1728.76	-5.83722
1730.28	-5.33296
1731.8	-0.975625
1733.32	-3.13822
1734.84	-5.10939
1736.36	-4.75162
1737.87	-7.84922
1739.39	-3.71024
1740.91	-2.69225
1742.43	-2.67377
1743.95	-1.5542
1745.47	-2.09244
1746.98	-10.481
1748.5	-2.48778
1750.02	-4.85168
1751.54	-3.86609
1753.06	-7.76143
1754.58	-2.23916
1756.09	-7.07835
1757.61	-4.88072
1759.13	1.63006
1760.65	-7.57558
1762.17	-1.31827
1763.69	-1.48719
1765.2	-2.59206
1766.72	1.43045
1768.24	5.48105
1769.76	7.02835
1771.28	-1.08431
1772.8	1.03331
1774.31	1.70337
1775.83	-3.06318
1777.35	0.725759
1778.87	3.57312
1780.39	3.88535
1781.91	2.75843
1783.42	-1.60532
1784.94	4.68437
1786.46	6.07014
1787.98	8.75676
1789.5	1.06387
1791.02	7.41002
1792.53	6.42549
1794.05	10.5303
1795.57	6.33199
1797.09	9.71622
1798.61	7.58327
1800.13	6.01106
1801.64	8.49706
1803.16	7.74646
1804.68	7.4477
1806.2	4.39993
1807.72	1.89865
1809.24	4.33514
1810.76	10.4181
1812.27	9.55059
1813.79	3.43292
1815.31	13.8285
1816.83	10.7576
1818.35	7.08313
1819.86	4.1017
1821.38	7.86068
1822.9	1.32256
1824.42	1.86725
1825.94	3.682
1827.46	9.22777
1828.98	4.62711
1830.49	4.91817
1832.01	2.0437
1833.53	2.3219
1835.05	7.78553
1836.57	7.18024
1838.09	13.4079
1839.6	3.81976
1841.12	8.83564
1842.64	11.2467
1844.16	9.5358
1845.68	10.0448
1847.2	3.76425
1848.71	-4.9789
1850.23	8.94257
1851.75	9.51433
1853.27	7.4839
1854.79	10.5507
1856.31	8.03506
1857.82	1.10502
1859.34	5.32493
1860.86	3.23221
1862.38	1.94438
1863.9	9.84018
1865.42	6.65325
1866.93	11.6241
1868.45	6.71916
1869.97	9.62764
1871.49	10.7604
1873.01	9.93776
1874.53	9.54417
1876.04	9.40232
1877.56	7.44683
1879.08	4.57547
1880.6	7.44655
1882.12	12.7345
1883.64	8.76485
1885.15	10.9869
1886.67	4.81393
1888.19	9.71162
1889.71	9.69138
1891.23	3.13255
1892.75	0.592031
1894.26	7.96103
1895.78	10.8193
1897.3	-0.500028
1898.82	10.9221
1900.34	8.80896
1901.86	11.0756
1903.37	11.3659
1904.89	12.2593
1906.41	3.87575
1907.93	8.03924
1909.45	8.61468
1910.97	9.37036
1912.48	4.56287
1914	5.18656
1915.52	8.96973
1917.04	6.41817
1918.56	4.02248
1920.08	10.6683
1921.59	10.8838
1923.11	6.6091
1924.63	9.24133
1926.15	10.2911
1927.67	3.54845
1929.19	18.2724
1930.7	8.23058
1932.22	7.51423
1933.74	-2.05229
1935.26	5.56542
1936.78	4.80392
1938.3	8.95958
1939.81	12.6202
1941.33	7.61916
1942.85	12.7398
1944.37	14.9609
1945.89	18.7105
1947.41	5.41612
1948.92	4.34123
1950.44	10.2802
1951.96	10.2628
1953.48	3.83483
1955	4.77899
1956.52	6.87889
1958.03	5.94594
1959.55	8.58382
1961.07	8.01335
1962.59	6.58548
1964.11	5.30739
1965.63	-0.449068
1967.14	6.95272
1968.66	7.52738
1970.18	14.8822
1971.7	4.50963
1973.22	6.8457
1974.74	3.71733
1976.25	14.9821
1977.77	8.83221
1979.29	4.91471
1980.81	7.52096
1982.33	12.2976
1983.85	9.41526
1985.36	7.36199
1986.88	8.80379
1988.4	6.28333
1989.92	11.191
1991.44	14.7873
1992.96	6.30809
1994.47	7.1546
1995.99	3.82
1997.51	4.70581
1999.03	10.5924
2000.55	6.32592
2002.07	8.51784
2003.58	8.69849
2005.1	1.33475
2006.62	14.1805
2008.14	10.1015
2009.66	3.7523
2011.18	5.10917
2012.7	3.27985
2014.21	5.17851
2015.73	2.54475
2017.25	5.54015
2018.77	7.25794
2020.29	7.23039
2021.81	4.40918
2023.32	13.9638
2024.84	3.04906
2026.36	5.05415
2027.88	4.17454
2029.4	5.73972
2030.92	-0.74066
2032.43	-0.807107
2033.95	-1.95471
2035.47	2.15551
2036.99	-1.21291
2038.51	4.37651
2040.03	3.46346
2041.54	1.31869
2043.06	-0.508526
2044.58	3.40283
2046.1	-0.845613
2047.62	-1.39148
2049.14	-2.86284
2050.65	10.3427
2052.17	-3.65477
2053.69	3.65997
2055.21	5.24056
2056.73	1.14962
2058.25	6.74627
2059.76	-3.16602
2061.28	3.66047
2062.8	1.93345
2064.32	0.439421
2065.84	-3.79763
2067.36	-4.04427
2068.87	1.69664
2070.39	-1.16626
2071.91	0.365503
2073.43	3.94343
2074.95	-2.10078
2076.47	2.37987
2077.98	0.453535
2079.5	-2.46565
2081.02	-2.89485
2082.54	-5.85391
2084.06	-7.5991
2085.58	-6.24796
2087.09	-3.03064
2088.61	-0.904133
2090.13	-3.74747
2091.65	0.194457
2093.17	-4.46639
2094.69	-13.8356
2096.2	-3.42203
2097.72	0.651104
2099.24	-7.07713
2100	-2.38953