File: Example Data/Raman/Kara/05-28-10/Si wafer/Si 1.txt
200	114.251
202.174	118.451
204.348	108.376
206.522	115.2
208.696	113.004
210.87	108.791
213.043	116.818
215.217	109.197
217.391	115.982
219.565	112.058
221.739	113.829
223.913	124.63
226.087	117.597
228.261	125.74
230.435	124.234
232.609	122.212
234.783	125.652
236.957	116.978
239.13	127.711
241.304	123.346
243.478	127.415
245.652	128.781
247.826	127.643
250	124.059
252.174	126.492
254.348	164.94
256.522	131.547
258.696	130.38
260.87	119.603
263.043	123.342
265.217	127.785
267.391	122.055
269.565	125.56
271.739	121.792
273.913	122.245
276.087	121.227
278.261	128.582
280.435	123.353
282.609	123.644
284.783	127.478
286.957	126.884
289.13	128.396
291.304	137.434
293.478	134.665
295.652	135.733
297.826	135.561
300	142.432
302.174	132.868
304.348	138.915
306.522	135.114
308.696	134.425
310.87	136.612
313.043	125.461
315.217	121.179
317.391	124.714
319.565	119.288
321.739	112.475
323.913	114.8
326.087	115.436
328.261	114.937
330.435	115.711
332.609	114.373
334.783	113.127
336.957	103.799
339.13	114.4
341.304	113.022
343.478	112.127
345.652	107.831
347.826	101.179
350	107.13
352.174	99.919
354.348	104.702
356.522	110.099
358.696	99.9399
360.87	94.282
363.043	99.6669
365.217	95.9838
367.391	86.3514
369.565	93.1444
371.739	91.3952
373.913	91.6473
376.087	90.8104
378.261	95.2342
380.435	85.1916
382.609	86.5303
384.783	86.7421
386.957	81.025
389.13	80.9672
391.304	78.6382
393.478	79.9232
395.652	81.6792
397.826	84.9372
400	76.2579
402.174	81.3826
404.348	78.9421
406.522	73.9348
408.696	82.2209
410.87	75.2413
413.043	76.9462
415.217	80.4055
417.391	76.8239
419.565	75.9833
421.739	74.8801
423.913	68.8071
426.087	73.5197
428.261	79.044
430.435	78.4392
432.609	72.5845
434.783	73.4277
436.957	72.077
439.13	77.1242
441.304	74.6373
443.478	74.192
445.652	68.6457
447.826	67.196
450	71.7643
452.174	64.3406
454.348	66.3021
456.522	67.9091
458.696	63.47
460.87	62.2075
463.043	66.4634
465.217	63.2921
467.391	69.4137
469.565	60.6618
471.739	63.8887
473.913	59.8979
476.087	68.6148
478.261	63.9949
480.435	72.0623
482.609	63.7936
484.783	68.2
486.957	75.2511
489.13	72.8004
491.304	78.4242
493.478	78.9107
495.652	87.2879
497.826	83.1165
500	86.8396
502.174	84.785
504.348	94.2169
506.522	102.78
508.696	120.986
510.87	149.26
513.043	202.951
515.217	288.045
517.391	486.365
519.565	1246.04
521.739	3720.31
523.913	4576.16
526.087	1703.22
528.261	601.566
530.435	332.611
532.609	221.473
534.783	174.167
536.957	141.267
539.13	122.963
541.304	110.317
543.478	98.9957
545.652	97.0664
547.826	90.2362
550	88.0636
552.174	79.1621
554.348	83.8855
556.522	72.4689
558.696	70.0522
560.87	70.7253
563.043	67.8798
565.217	64.4646
567.391	72.0594
569.565	69.9316
571.739	61.5828
573.913	67.095
576.087	65.1714
578.261	63.3163
580.435	59.8994
582.609	64.1205
584.783	62.5902
586.957	60.4885
589.13	61.8282
591.304	58.2318
593.478	60.7413
595.652	63.6387
597.826	63.1704
600	59.1993
602.174	62.446
604.348	56.6509
606.522	65.1003
608.696	72.1797
610.87	61.0839
613.043	63.121
615.217	63.2327
617.391	70.5004
619.565	71.2745
621.739	66.5531
623.913	68.896
626.087	66.4261
628.261	72.1212
630.435	64.5683
632.609	73.851
634.783	69.659
636.957	69.2189
639.13	64.1638
641.304	69.2541
643.478	74.2553
645.652	73.2396
647.826	77.2485
650	68.076
652.174	71.228
654.348	76.4517
656.522	75.8672
658.696	70.4859
660.87	79.0846
663.043	72.7776
665.217	75.7463
667.391	73.4246
669.565	84.7281
671.739	78.5148
673.913	82.6453
676.087	83.0572
678.261	80.5498
680.435	83.3293
682.609	76.6711
684.783	83.3074
686.957	79.8099
689.13	79.3441
691.304	76.9941
693.478	83.241
695.652	75.5214
697.826	77.2
700	78.865
702.174	80.3937
704.348	81.3089
706.522	77.6912
708.696	77.4142
710.87	80.7425
713.043	81.9618
715.217	87.353
717.391	76.084
719.565	82.6446
721.739	80.2685
723.913	88.6307
726.087	87.0717
728.261	85.9088
730.435	92.9672
732.609	94.4829
734.783	85.3052
736.957	81.9329
739.13	89.1224
741.304	93.4768
743.478	94.9015
745.652	98.2872
747.826	97.7076
750	97.83
752.174	99.1524
754.348	101.14
756.522	99.7184
758.696	99.3899
760.87	106.193
763.043	102.279
765.217	104.116
767.391	109.649
769.565	108.946
771.739	102.532
773.913	98.5233
776.087	106.169
778.261	104.119
780.435	110.138
782.609	108.558
784.783	113.465
786.957	116.433
789.13	114.515
791.304	110.696
793.478	115.55
795.652	120.287
797.826	114.454
800	115.572
802.174	113.414
804.348	120.228
806.522	125.892
808.696	125.146
810.87	123.194
813.043	127.79
815.217	131.178
817.391	126.555
819.565	127.434
821.739	112.335
823.913	123.074
826.087	130.669
828.261	128.532
830.435	135.329
832.609	127.812
834.783	125.726
836.957	126.027
839.13	132.931
841.304	126.142
843.478	135.531
845.652	123.044
847.826	127.054
850	131.713
852.174	123.005
854.348	122.702
856.522	126.95
858.696	117.048
860.87	131.134
863.043	119.689
865.217	127.344
867.391	113.358
869.565	123.099
871.739	120.283
873.913	116.582
876.087	110.998
878.261	111.219
880.435	110.419
882.609	102.665
884.783	116.938
886.957	103.92
889.13	101.07
891.304	96.0614
893.478	88.7509
895.652	94.8924
897.826	87.3204
900	92.159
902.174	87.1049
904.348	87.3943
906.522	79.2733
908.696	83.6507
910.87	84.0872
913.043	79.9905
915.217	76.5695
917.391	70.4873
919.565	69.5438
921.739	75.7245
923.913	72.913
926.087	70.0851
928.261	77.8508
930.435	84.4559
932.609	89.3711
934.783	91.9412
936.957	101.044
939.13	105.051
941.304	121.408
943.478	128.077
945.652	130.174
947.826	127.11
950	122.4
952.174	126.732
954.348	127.827
956.522	121.836
958.696	120.954
960.87	123.277
963.043	127.263
965.217	126.038
967.391	125.94
969.565	123.029
971.739	127.822
973.913	124.189
976.087	119.99
978.261	123.494
980.435	125.339
982.609	124.071
984.783	125.388
986.957	123.982
989.13	119.574
991.304	111.011
993.478	99.1115
995.652	86.3936
997.826	88.2913
1000	83.4473
1002.17	80.3757
1004.35	77.0048
1006.52	73.9312
1008.7	71.2985
1010.87	70.6609
1013.04	68.096
1015.22	70.5564
1017.39	68.3741
1019.57	64.9514
1021.74	62.3824
1023.91	63.5487
1026.09	61.6859
1028.26	64.1711
1030.43	59.2121
1032.61	63.0388
1034.78	58.7028
1036.96	59.07
1039.13	48.8778
1041.3	52.0162
1043.48	55.4749
1045.65	52.5733
1047.83	45.7392
1050	51.1652
1052.17	37.6111
1054.35	50.0561
1056.52	37.7734
1058.7	46.8236
1060.87	37.6532
1063.04	43.7605
1065.22	42.8953
1067.39	32.865
1069.57	37.9587
1071.74	36.5673
1073.91	34.8511
1076.09	33.7892
1078.26	31.4018
1080.43	33.29
1082.61	33.7103
1084.78	31.2439
1086.96	29.9694
1089.13	28.2967
1091.3	28.3798
1093.48	28
1095.65	23.4086
1097.83	26.0318
1100	28.7271
1102.17	27.542
1104.35	23.8177
1106.52	21.8512
1108.7	25.2425
1110.87	22.9349
1113.04	18.2
1115.22	21.7402
1117.39	16.6891
1119.57	19.0599
1121.74	21.3081
1123.91	25.4855
1126.09	20.3953
1128.26	17.4876
1130.43	20.3168
1132.61	19.5113
1134.78	17.1754
1136.96	18.2394
1139.13	16.601
1141.3	16.7015
1143.48	14.6693
1145.65	12.8609
1147.83	13.8686
1150	11.9483
1152.17	11.3877
1154.35	16.7947
1156.52	11.5436
1158.7	13.7194
1160.87	9.85868
1163.04	11.5944
1165.22	11.3757
1167.39	10.7838
1169.57	9.22085
1171.74	14.5782
1173.91	12.2325
1176.09	10.5323
1178.26	6.58903
1180.43	4.18351
1182.61	12.1521
1184.78	6.86873
1186.96	7.61265
1189.13	9.77931
1191.3	12.46
1193.48	8.00636
1195.65	2.01342
1197.83	5.584
1200	7.25105
1202.17	7.13979
1204.35	9.68173
1206.52	6.3478
1208.7	5.91183
1210.87	7
1213.04	6.94185
1215.22	7.64269
1217.39	5.34936
1219.57	4.89434
1221.74	8.69216
1223.91	8.95869
1226.09	10.0327
1228.26	8.9593
1230.43	7.72818
1232.61	7.28309
1234.78	11.584
1236.96	9.17281
1239.13	7.74129
1241.3	7.83442
1243.48	3.15704
1245.65	4.25187
1247.83	7.87756
1250	6.54006
1252.17	7.65202
1254.35	6.96946
1256.52	3.51307
1258.7	6.65237
1260.87	7.21974
1263.04	7.93499
1265.22	4.74795
1267.39	5.43679
1269.57	8.95653
1271.74	6.67167
1273.91	6.03187
1276.09	6.86679
1278.26	4.71188
1280.43	11.0702
1282.61	3.65063
1284.78	6.01957
1286.96	9.53454
1289.13	8.67395
1291.3	4.10831
1293.48	9.76567
1295.65	4.55611
1297.83	6.46531
1300	4.24574
1302.17	8.11685
1304.35	5.57056
1306.52	9.42136
1308.7	5.55986
1310.87	0.907902
1313.04	3.23415
1315.22	4.24602
1317.39	5.81888
1319.57	7.0718
1321.74	5.42601
1323.91	7.61248
1326.09	6.21801
1328.26	6.25917
1330.43	10.0297
1332.61	5.42914
1334.78	5.29291
1336.96	5.67195
1339.13	7.48517
1341.3	8.3561
1343.48	8.72366
1345.65	7.2195
1347.83	11.2518
1350	11.1304
1352.17	8.02911
1354.35	6.4
1356.52	5.85298
1358.7	8.79422
1360.87	8.89484
1363.04	8.63075
1365.22	6.17666
1367.39	8.96747
1369.57	8.32667
1371.74	4.71208
1373.91	11.9708
1376.09	5.44838
1378.26	9.78001
1380.43	6.54955
1382.61	5.58971
1384.78	9.71751
1386.96	8.76098
1389.13	8.62773
1391.3	6.9396
1393.48	6.92805
1395.65	4.19034
1397.83	10.8395
1400	7.28205
1402.17	9.40956
1404.35	9.43111
1406.52	3.88234
1408.7	8.0173
1410.87	6.73654
1413.04	7.31394
1415.22	9.32956
1417.39	6.67919
1419.57	5.03143
1421.74	7.18434
1423.91	2.70794
1426.09	2.44468
1428.26	5.684
1430.43	8.48703
1432.61	6.53469
1434.78	3.73525
1436.96	7.7208
1439.13	10.3092
1441.3	7.84115
1443.48	9.35097
1445.65	7.10276
1447.83	13.4152
1450	9.23529
1452.17	8.95797
1454.35	4.54837
1456.52	6.76535
1458.7	10.7003
1460.87	7.37381
1463.04	7.76473
1465.22	5.51232
1467.39	5.70824
1469.57	8.81216
1471.74	8.09144
1473.91	6.36306
1476.09	6.1678
1478.26	5.8522
1480.43	4.37827
1482.61	5.341
1484.78	5.67998
1486.96	5.40076
1489.13	1.88985
1491.3	7.6216
1493.48	2.85389
1495.65	7.31741
1497.83	6.75322
1500	3.18138
1502.17	5.12562
1504.35	5.31443
1506.52	6.93274
1508.7	5.34668
1510.87	4.84363
1513.04	7.72402
1515.22	5.74617
1517.39	6.95461
1519.57	8.32573
1521.74	9.05145
1523.91	6.42702
1526.09	5.02145
1528.26	2.85783
1530.43	7.11013
1532.61	5.87619
1534.78	4.97391
1536.96	5.36816
1539.13	4.68294
1541.3	3.44537
1543.48	3.39941
1545.65	8.35132
1547.83	5.62092
1550	5.67548
1552.17	5.35131
1554.35	9.43504
1556.52	18.8412
1558.7	26.6848
1560.87	6.80586
1563.04	6.3551
1565.22	1.8481
1567.39	8.63843
1569.57	2.50781
1571.74	4.88549
1573.91	1.12311
1576.09	6.2411
1578.26	5.58356
1580.43	7.51817
1582.61	9.57196
1584.78	6.14589
1586.96	5.2
1589.13	4.8
1591.3	8.16643
1593.48	6.75492
1595.65	7.19162
1597.83	6.16121
1600	7.80888
1602.17	9.66296
1604.35	8.87866
1606.52	9.50715
1608.7	9.25329
1610.87	6.47927
1613.04	4.20989
1615.22	8.11622
1617.39	6.93644
1619.57	9.13954
1621.74	8.45092
1623.91	9.04817
1626.09	5.65728
1628.26	6.15844
1630.43	8.65142
1632.61	8.61094
1634.78	9.013
1636.96	9.82421
1639.13	9.81599
1641.3	9.89717
1643.48	9.85943
1645.65	8.10866
1647.83	11.8759
1650	10.8854
1652.17	11.7581
1654.35	8.6286
1656.52	10.5908
1658.7	11.1623
1660.87	8.11611
1663.04	9.57712
1665.22	9.09426
1667.39	8.95349
1669.57	12.3774
1671.74	11.8361
1673.91	11.5379
1676.09	13.9267
1678.26	12.7541
1680.43	12.0029
1682.61	11.0802
1684.78	9.57543
1686.96	13.0138
1689.13	11.4443
1691.3	14.4694
1693.48	10.4991
1695.65	11.8647
1697.83	11.2727
1700	11.8358
1702.17	10.2748
1704.35	11.3035
1706.52	11.1513
1708.7	12.1998
1710.87	9.72978
1713.04	11.5153
1715.22	7.91972
1717.39	7.1651
1719.57	8.53955
1721.74	7.86025
1723.91	4.78229
1726.09	6.12658
1728.26	3.58654
1730.43	1.98661
1732.61	5.99812
1734.78	5.17194
1736.96	3.36944
1739.13	5.14076
1741.3	5.66729
1743.48	3.44924
1745.65	4.9498
1747.83	7.70419
1750	8.70434
1752.17	5.51479
1754.35	3.43318
1756.52	5.11264
1758.7	3.81878
1760.87	1.86832
1763.04	2.13305
1765.22	1.74456
1767.39	6.4667
1769.57	3.81738
1771.74	2.57798
1773.91	7.18344
1776.09	3.82895
1778.26	2.64069
1780.43	2.20541
1782.61	3.03706
1784.78	6.85783
1786.96	5.2
1789.13	7.4
1791.3	3.29132
1793.48	8.14907
1795.65	0.717289
1797.83	2.91931
1800	4.1751
1802.17	6.24916
1804.35	6.05831
1806.52	5.35005
1808.7	3.82377
1810.87	7.48098
1813.04	3.2
1815.22	4.48229
1817.39	4.90438
1819.57	1.97748
1821.74	7.06499
1823.91	7.53626
1826.09	7.2979
1828.26	2.3617
1830.43	9.37805
1832.61	7.81422
1834.78	5.8129
1836.96	4.87262
1839.13	9.44288
1841.3	6.33716
1843.48	4.4
1845.65	4.71448
1847.83	4.88621
1850	8.61041
1852.17	7.29587
1854.35	8.91979
1856.52	4.09554
1858.7	6.87381
1860.87	4.81691
1863.04	8.06331
1865.22	3.19675
1867.39	4.73105
1869.57	5.80137
1871.74	8.32272
1873.91	5
1876.09	4.49297
1878.26	5.98334
1880.43	7.92511
1882.61	5.63803
1884.78	8.43056
1886.96	5.66977
1889.13	8.49025
1891.3	4.18927
1893.48	8.13505
1895.65	6.43098
1897.83	9.39567
1900	8.17822
1902.17	7.46619
1904.35	7.84912
1906.52	4.67867
1908.7	7.46391
1910.87	9.47997
1913.04	6.28268
1915.22	4.14767
1917.39	5.92891
1919.57	5.75725
1921.74	6.80571
1923.91	9.90615
1926.09	5.84325
1928.26	9.59566
1930.43	8.04953
1932.61	5.88738
1934.78	8.64019
1936.96	5.26051
1939.13	5.35053
1941.3	2.10692
1943.48	6.5857
1945.65	6.5086
1947.83	7.85705
1950	9.40609
1952.17	6.6731
1954.35	10.3002
1956.52	7.39871
1958.7	6.49952
1960.87	5.93301
1963.04	4.50068
1965.22	6.72144
1967.39	5.8155
1969.57	6.84519
1971.74	8.40376
1973.91	6.82362
1976.09	6.8
1978.26	10.9109
1980.43	9.77355
1982.61	2.12256
1984.78	8.94509
1986.96	4.62738
1989.13	5.23015
1991.3	6.53658
1993.48	8.39353
1995.65	9.08438
1997.83	6.8363
2000	3.93866
2002.17	7.97413
2004.35	5.91211
2006.52	6.88409
2008.7	10.1259
2010.87	8.22174
2013.04	6.53764
2015.22	6.42848
2017.39	4.10512
2019.57	8.2
2021.74	4.1006
2023.91	6.43279
2026.09	9.60423
2028.26	12.3405
2030.43	6.69002
2032.61	10.7253
2034.78	7.29863
2036.96	8.33314
2039.13	10
2041.3	10.237
2043.48	10.513
2045.65	8.89205
2047.83	7.06163
2050	6.61145
2052.17	6.99289
2054.35	10.7712
2056.52	9.08753
2058.7	9.6408
2060.87	11.0376
2063.04	8.73592
2065.22	10.5907
2067.39	7.59013
2069.57	9.80931
2071.74	8.538
2073.91	5.61949
2076.09	6.50647
2078.26	11.2013
2080.43	7.01417
2082.61	5.84325
2084.78	6.68497
2086.96	5.86917
2089.13	12.8671
2091.3	7.2
2093.48	10.7096
2095.65	8.95756
2097.83	8.29485
2100	10.2499
2102.17	9.88707
2104.35	10.9645
2106.52	10.6408
2108.7	8.06459
2110.87	9.23461
2113.04	8.1783
2115.22	8.07456
2117.39	11.9096
2119.57	10.7251
2121.74	6.56331
2123.91	9.70271
2126.09	5.49886
2128.26	11.0851
2130.43	10.4337
2132.61	9.4006
2134.78	12.4303
2136.96	9.25502
2139.13	9.08429
2141.3	10.207
2143.48	7.98624
2145.65	10.6164
2147.83	10.0269
2150	12.3235
2152.17	9.20403
2154.35	9.21558
2156.52	6.60379
2158.7	8.68255
2160.87	9.52921
2163.04	8.227
2165.22	8.76369
2167.39	9.29595
2169.57	10.482
2171.74	13.556
2173.91	10.4529
2176.09	8.03183
2178.26	9.8158
2180.43	11.2016
2182.61	8.82399
2184.78	10.568
2186.96	10.9537
2189.13	9.39098
2191.3	13.4978
2193.48	12.5919
2195.65	10.7549
2197.83	9.5794
2200	8.68782
2202.17	10.3605
2204.35	8.34574
2206.52	10.039
2208.7	12.5315
2210.87	12.9108
2213.04	9.79799
2215.22	12.3638
2217.39	10.9869
2219.57	6.60221
2221.74	9.25716
2223.91	12.318
2226.09	10.4662
2228.26	10.537
2230.43	12.3599
2232.61	12.7202
2234.78	10.1177
2236.96	13.6784
2239.13	11.3648
2241.3	11.1604
2243.48	12.264
2245.65	11.9359
2247.83	10.1495
2250	14.0095
2252.17	14.3709
2254.35	15.0694
2256.52	15.6203
2258.7	12.256
2260.87	13.5761
2263.04	13.8653
2265.22	14.0125
2267.39	13.3359
2269.57	13.9019
2271.74	12.0346
2273.91	14.3926
2276.09	14.2199
2278.26	12.4828
2280.43	14.0419
2282.61	15.3753
2284.78	11.6502
2286.96	15.9753
2289.13	13.9813
2291.3	13.9977
2293.48	13.0966
2295.65	15.9871
2297.83	18.0448
2300	15.8566
2302.17	15.3667
2304.35	14.1124
2306.52	13.2088
2308.7	17.6413
2310.87	19.3488
2313.04	15.074
2315.22	14.4069
2317.39	18.0507
2319.57	14.9103
2321.74	15.6566
2323.91	18.8689
2326.09	21.2694
2328.26	34.8991
2330.43	63.3582
2332.61	59.6098
2334.78	16.3981
2336.96	15.7024
2339.13	19.0368
2341.3	17.1384
2343.48	14.003
2345.65	15.0271
2347.83	13.2
2350	11.3024
2352.17	15.0317
2354.35	13.864
2356.52	12.9636
2358.7	14.8381
2360.87	11.0195
2363.04	14.2894
2365.22	17.8868
2367.39	13.4575
2369.57	13.7625
2371.74	11.0535
2373.91	15.5322
2376.09	12.6043
2378.26	18.4586
2380.43	15.4677
2382.61	12.6826
2384.78	14.1245
2386.96	10.7479
2389.13	13.6937
2391.3	14.0623
2393.48	13.548
2395.65	15.1025
2397.83	17.3931
2400	11.933
2402.17	15.1277
2404.35	12.6283
2406.52	14.8213
2408.7	12.8794
2410.87	13.2695
2413.04	17.8891
2415.22	20.3458
2417.39	16.9598
2419.57	11.7215
2421.74	15.3506
2423.91	15.3372
2426.09	15.8438
2428.26	14.1268
2430.43	17.9932
2432.61	17.4429
2434.78	14.4286
2436.96	14.6016
2439.13	16.8407
2441.3	12.027
2443.48	14.979
2445.65	18.9469
2447.83	20.0241
2450	16.4328
2452.17	23.063
2454.35	19.1861
2456.52	15.3361
2458.7	18.0629
2460.87	16.223
2463.04	19.2451
2465.22	20.2993
2467.39	11.3825
2469.57	18.3161
2471.74	12.9805
2473.91	17.2137
2476.09	15.1883
2478.26	18.233
2480.43	15.4481
2482.61	14.6866
2484.78	17.7161
2486.96	18.596
2489.13	10.7677
2491.3	17.7772
2493.48	14.3311
2495.65	15.9686
2497.83	12.2357
2500	15.0834
2502.17	13.1516
2504.35	18.5977
2506.52	17.2803
2508.7	15.6834
2510.87	16.5127
2513.04	14.0364
2515.22	13.3344
2517.39	16.7801
2519.57	17.1497
2521.74	19.4
2523.91	16.0912
2526.09	13.9878
2528.26	17.6046
2530.43	14.5336
2532.61	17.7945
2534.78	19.1213
2536.96	19.8624
2539.13	19.6858
2541.3	18.9479
2543.48	19.3776
2545.65	16.8323
2547.83	18.8169
2550	18.3555
2552.17	15.4214
2554.35	17.9432
2556.52	20.6378
2558.7	17.4
2560.87	16.3422
2563.04	21.0361
2565.22	15.438
2567.39	18.1223
2569.57	16.151
2571.74	17.6175
2573.91	16.686
2576.09	15.2763
2578.26	12.312
2580.43	19.3019
2582.61	19.0807
2584.78	14.8761
2586.96	16.088
2589.13	19.2919
2591.3	16.242
2593.48	19.5244
2595.65	18.6775
2597.83	15.1686
2600	19.9348
2602.17	14.4144
2604.35	19.2561
2606.52	14.612
2608.7	15.9035
2610.87	13.0581
2613.04	17.2305
2615.22	17.347
2617.39	14.5127
2619.57	20.0707
2621.74	17.3646
2623.91	17.5057
2626.09	18.0015
2628.26	14.9265
2630.43	21.1744
2632.61	13.787
2634.78	18.5939
2636.96	14.4827
2639.13	21.08
2641.3	19.1439
2643.48	17.3926
2645.65	14.3382
2647.83	20.1673
2650	17.8487
2652.17	18.9688
2654.35	20.7067
2656.52	19.3515
2658.7	16.6983
2660.87	16.4733
2663.04	21.1321
2665.22	19.7142
2667.39	16.1879
2669.57	14.0509
2671.74	20.1727
2673.91	17.3817
2676.09	17.5608
2678.26	19.7361
2680.43	20.0125
2682.61	15.6632
2684.78	17.5296
2686.96	19.9187
2689.13	20.1076
2691.3	23.5753
2693.48	16.3571
2695.65	21.2687
2697.83	13.9011
2700	16.3074
2702.17	20.4018
2704.35	16.2448
2706.52	19.7847
2708.7	18.7486
2710.87	14.179
2713.04	15.588
2715.22	20.4203
2717.39	18.1048
2719.57	16.4735
2721.74	15.2783
2723.91	17.7365
2726.09	17.9356
2728.26	12.6225
2730.43	17.1418
2732.61	19.0615
2734.78	15.0757
2736.96	22.3326
2739.13	15.6229
2741.3	20.3634
2743.48	20.2008
2745.65	21.3856
2747.83	18.2983
2750	21.4708
2752.17	19.31
2754.35	20.0136
2756.52	21.2407
2758.7	20.1771
2760.87	20.2959
2763.04	19.8269
2765.22	17.056
2767.39	19.147
2769.57	19.7398
2771.74	22.5012
2773.91	18.6009
2776.09	17.5857
2778.26	17.8586
2780.43	19.1818
2782.61	20.4522
2784.78	21.4535
2786.96	19.856
2789.13	17.8607
2791.3	25.0654
2793.48	19.6142
2795.65	23.8277
2797.83	25.6146
2800	27.2303