File: Example Data/Raman/Kara/05-28-10/Si wafer/Si 2.txt
200	97.9026
202.174	106.846
204.348	104.046
206.522	103.435
208.696	101.99
210.87	111.232
213.043	109.626
215.217	102.508
217.391	106.538
219.565	107.451
221.739	108.992
223.913	99.7732
226.087	109.6
228.261	113.407
230.435	112.009
232.609	102.86
234.783	114.541
236.957	111.679
239.13	107.738
241.304	118.594
243.478	108.36
245.652	123.461
247.826	119.235
250	113.104
252.174	110.699
254.348	115.986
256.522	113.726
258.696	116.41
260.87	108.6
263.043	104.865
265.217	112.912
267.391	113.952
269.565	113.417
271.739	111.933
273.913	112.223
276.087	103.243
278.261	111.64
280.435	104.079
282.609	118.363
284.783	113.025
286.957	104.8
289.13	108.505
291.304	113.431
293.478	112.602
295.652	107.722
297.826	106.615
300	110.203
302.174	115.617
304.348	112.503
306.522	118.529
308.696	114.877
310.87	109.076
313.043	102.009
315.217	103.037
317.391	102.542
319.565	98.5628
321.739	101.541
323.913	104.068
326.087	103.708
328.261	98.3026
330.435	93
332.609	105.119
334.783	102.947
336.957	92.0904
339.13	98.3686
341.304	95.8074
343.478	96.8078
345.652	100.872
347.826	88.8761
350	96.2983
352.174	85.9673
354.348	90.7191
356.522	91.7318
358.696	78.0438
360.87	83.5087
363.043	89.8136
365.217	80.2506
367.391	86.0034
369.565	79.0239
371.739	85.6054
373.913	81.6609
376.087	82.6454
378.261	82.1391
380.435	74.4844
382.609	78.8269
384.783	80.5258
386.957	72.2214
389.13	70.6661
391.304	77.5173
393.478	71.9765
395.652	74.669
397.826	68.668
400	66.344
402.174	72.5102
404.348	63.5237
406.522	64.6884
408.696	64.8552
410.87	59.3193
413.043	74.3703
415.217	63.7321
417.391	68.6932
419.565	66.2626
421.739	60.624
423.913	66.3079
426.087	64.7379
428.261	62.1464
430.435	60.4949
432.609	64.2364
434.783	59.5932
436.957	59.2383
439.13	64.5377
441.304	65.3697
443.478	59.7483
445.652	56.0188
447.826	57.8026
450	56.0198
452.174	59.6575
454.348	57.8144
456.522	61.1919
458.696	57.955
460.87	57.5382
463.043	54.4263
465.217	55.2091
467.391	60.7735
469.565	56.6502
471.739	54.2257
473.913	56.9928
476.087	53.9349
478.261	61.5803
480.435	62.3547
482.609	67.1419
484.783	59.7455
486.957	65.2782
489.13	67.9074
491.304	62.1042
493.478	64.5377
495.652	59.2535
497.826	62.2971
500	63.8156
502.174	67.3836
504.348	69.8376
506.522	76.9241
508.696	80.6408
510.87	88.5867
513.043	113.845
515.217	136.122
517.391	221.317
519.565	503.786
521.739	1510.68
523.913	1867.69
526.087	715.265
528.261	270.458
530.435	165.48
532.609	119.295
534.783	99.2544
536.957	80.526
539.13	80.2816
541.304	75.3657
543.478	65.1965
545.652	68.5235
547.826	59.6295
550	62.4159
552.174	61.0931
554.348	53.4574
556.522	60.4154
558.696	59.9593
560.87	64.122
563.043	56.5271
565.217	57.1034
567.391	55.3131
569.565	48.6435
571.739	52.5022
573.913	57.099
576.087	54.8268
578.261	54.259
580.435	54.2932
582.609	56.6542
584.783	54.6261
586.957	58.6672
589.13	58.6793
591.304	57.6823
593.478	55.46
595.652	55.3563
597.826	55.9317
600	54.3193
602.174	57.6883
604.348	54.3541
606.522	58.6186
608.696	59.6
610.87	54.0707
613.043	56.4513
615.217	61.6675
617.391	60.6199
619.565	56.4902
621.739	65.0388
623.913	65.2392
626.087	56.9944
628.261	61.5937
630.435	59.4213
632.609	64.865
634.783	62.4625
636.957	64.4635
639.13	62.0583
641.304	61.8892
643.478	59.4603
645.652	66.447
647.826	57.9143
650	68.0092
652.174	68.9874
654.348	63.2931
656.522	64.516
658.696	65.8297
660.87	64.8928
663.043	72.5475
665.217	70.766
667.391	70.3895
669.565	70.0954
671.739	72.0481
673.913	69.6763
676.087	75.3717
678.261	70.8185
680.435	76.4232
682.609	72.44
684.783	72.6315
686.957	75.8956
689.13	78.2908
691.304	78.3654
693.478	81.241
695.652	72.628
697.826	80.125
700	77.6401
702.174	75.3651
704.348	80.536
706.522	79.0528
708.696	76.2441
710.87	80.3367
713.043	82.1431
715.217	83.7765
717.391	79.3919
719.565	78.7426
721.739	84.137
723.913	82.5205
726.087	85.8651
728.261	81.6431
730.435	83.0144
732.609	86.136
734.783	87.7545
736.957	92.7557
739.13	86.3764
741.304	88.414
743.478	93.1716
745.652	88.9028
747.826	92.7724
750	91.5042
752.174	95.3524
754.348	97.5409
756.522	98.8517
758.696	103.148
760.87	98.4268
763.043	95.7492
765.217	98.2968
767.391	100.554
769.565	105.736
771.739	102.268
773.913	105.074
776.087	104.059
778.261	105.694
780.435	101.3125
782.609	103.11
784.783	106.288
786.957	110.974
789.13	110.857
791.304	112.937
793.478	109.321
795.652	113.273
797.826	107.512
800	109.469
802.174	116.608
804.348	113.161
806.522	108.742
808.696	115.765
810.87	116.941
813.043	121.777
815.217	117.465
817.391	115.47
819.565	124.503
821.739	120.717
823.913	120.23
826.087	122.066
828.261	120.778
830.435	118.982
832.609	126.799
834.783	118.595
836.957	116.535
839.13	120.945
841.304	124.484
843.478	130.909
845.652	121.522
847.826	121.12
850	127.866
852.174	121.857
854.348	121.541
856.522	120.628
858.696	125.055
860.87	120.697
863.043	128.012
865.217	119.291
867.391	115.746
869.565	113.739
871.739	106.3
873.913	112.4
876.087	102.222
878.261	106.736
880.435	101.986
882.609	96.8021
884.783	98.5941
886.957	90.2365
889.13	93.9411
891.304	88.9839
893.478	94.0492
895.652	90.541
897.826	84.7347
900	83.5574
902.174	81.9605
904.348	74.2773
906.522	72.189
908.696	71.1118
910.87	74.6695
913.043	72.2263
915.217	64.2431
917.391	69.9792
919.565	54.8128
921.739	61.4537
923.913	70.4071
926.087	64.2453
928.261	69.3358
930.435	65.9487
932.609	67.8621
934.783	72.6236
936.957	71.3348
939.13	72.6143
941.304	75.4338
943.478	90.4218
945.652	88.8983
947.826	78.3195
950	80.8037
952.174	79.4584
954.348	76.3786
956.522	81.9734
958.696	82.9025
960.87	80.019
963.043	81.7324
965.217	79.1603
967.391	79.8406
969.565	75.5136
971.739	78.7905
973.913	81.2064
976.087	85.7889
978.261	80.8458
980.435	78.26
982.609	81.3274
984.783	77.4073
986.957	80.2939
989.13	75.4359
991.304	72.4099
993.478	71.8189
995.652	65.6842
997.826	61.8063
1000	60.043
1002.17	58.8516
1004.35	60.1948
1006.52	54.1335
1008.7	57.4373
1010.87	55.4239
1013.04	58.274
1015.22	55.4063
1017.39	54.6636
1019.57	57.6849
1021.74	53.4942
1023.91	53.3715
1026.09	54.3231
1028.26	49.8257
1030.43	56.9098
1032.61	57.7255
1034.78	59.0144
1036.96	52.942
1039.13	52.5919
1041.3	46.8753
1043.48	49.3189
1045.65	50.3334
1047.83	49.3337
1050	41.0572
1052.17	43.8641
1054.35	42.8734
1056.52	43.907
1058.7	40.8059
1060.87	33.0844
1063.04	41.5128
1065.22	35.7455
1067.39	33.7837
1069.57	31.506
1071.74	29.1897
1073.91	32.8543
1076.09	33.3849
1078.26	34.4225
1080.43	28.3827
1082.61	24.6226
1084.78	28.0682
1086.96	21.2613
1089.13	28.0131
1091.3	23.4
1093.48	23.2719
1095.65	28.2274
1097.83	24.3553
1100	25.582
1102.17	21.567
1104.35	22.1459
1106.52	22.4246
1108.7	20.17
1110.87	19.0553
1113.04	20.9053
1115.22	16.9596
1117.39	17.7669
1119.57	17.8
1121.74	18.3801
1123.91	20.0012
1126.09	17.4187
1128.26	13.6802
1130.43	15.972
1132.61	14.1078
1134.78	21.1165
1136.96	9.3934
1139.13	15.802
1141.3	13.7492
1143.48	15.6
1145.65	9.43188
1147.83	9.4256
1150	13.4055
1152.17	11.9553
1154.35	12.4074
1156.52	14.0167
1158.7	16.3362
1160.87	12.2037
1163.04	13.5409
1165.22	8.50386
1167.39	9.80972
1169.57	10.006
1171.74	6.23921
1173.91	7.95539
1176.09	9.07094
1178.26	12.3644
1180.43	5.47646
1182.61	9.4133
1184.78	9.53496
1186.96	6.96205
1189.13	4.7322
1191.3	7.8891
1193.48	7.59182
1195.65	6.4
1197.83	9.92576
1200	8.70219
1202.17	2.73011
1204.35	5.67345
1206.52	2.75458
1208.7	5.35914
1210.87	5.9012
1213.04	2.96208
1215.22	3.83399
1217.39	7.25064
1219.57	6.6
1221.74	7.34455
1223.91	4.85849
1226.09	5.02752
1228.26	4.19519
1230.43	8.86326
1232.61	5.39538
1234.78	2.35994
1236.96	3.7983
1239.13	4.11817
1241.3	6.08279
1243.48	6.96136
1245.65	4.34188
1247.83	8.37552
1250	5.75535
1252.17	1.49358
1254.35	2.49008
1256.52	3.35654
1258.7	7.91557
1260.87	9.16335
1263.04	3.925
1265.22	5.63731
1267.39	5.66426
1269.57	2.44126
1271.74	4.1053
1273.91	5.04063
1276.09	5.21903
1278.26	0.849507
1280.43	2.29958
1282.61	2.87468
1284.78	3.89581
1286.96	1.30759
1289.13	1.68764
1291.3	4.04399
1293.48	3.29209
1295.65	11.2415
1297.83	4.71702
1300	1.5722
1302.17	3.59548
1304.35	2.53864
1306.52	1.35145
1308.7	2.05219
1310.87	0.107902
1313.04	0.172357
1315.22	4.39924
1317.39	1.33472
1319.57	2.1282
1321.74	0.205828
1323.91	1.43745
1326.09	6.87362
1328.26	6.74241
1330.43	8.47363
1332.61	3.92863
1334.78	5.30142
1336.96	0.71093
1339.13	7.40646
1341.3	5.00371
1343.48	6.92366
1345.65	4.30975
1347.83	4.37508
1350	4.2749
1352.17	8.51977
1354.35	0.550645
1356.52	7.57619
1358.7	4.84028
1360.87	6.61438
1363.04	5.98103
1365.22	3.86349
1367.39	7.17275
1369.57	4.60073
1371.74	4.13624
1373.91	9.74897
1376.09	1.6515
1378.26	4.42257
1380.43	5.20362
1382.61	4.791
1384.78	6.06764
1386.96	8.63066
1389.13	3.91436
1391.3	6.29261
1393.48	6.18113
1395.65	3.71613
1397.83	4.07702
1400	5.64915
1402.17	5.9713
1404.35	5.0563
1406.52	0.28234
1408.7	5.19166
1410.87	3.69528
1413.04	4.29368
1415.22	3.80535
1417.39	5.6188
1419.57	4.13612
1421.74	1.22174
1423.91	6.21905
1426.09	6.92926
1428.26	5.68246
1430.43	4.11381
1432.61	4.11582
1434.78	1.68232
1436.96	6.41485
1439.13	7.95461
1441.3	3.93356
1443.48	7.85291
1445.65	0.742942
1447.83	4.63206
1450	5.61765
1452.17	3.90508
1454.35	5.12582
1456.52	2.61262
1458.7	1.59692
1460.87	3.72099
1463.04	4.70086
1465.22	6.67613
1467.39	8.49511
1469.57	7.0913
1471.74	5.23716
1473.91	6.08638
1476.09	1.0322
1478.26	6.97382
1480.43	4.33978
1482.61	4.8544
1484.78	4.72577
1486.96	4.32968
1489.13	3.93088
1491.3	1.645
1493.48	6.72185
1495.65	3.87236
1497.83	3.65847
1500	4.96781
1502.17	6.63607
1504.35	4.6
1506.52	4.69617
1508.7	3.69113
1510.87	-3.0691
1513.04	4.38215
1515.22	5.56253
1517.39	6.6773
1519.57	6.6
1521.74	1.65558
1523.91	2.54052
1526.09	3.48896
1528.26	5.2771
1530.43	3.49409
1532.61	6.13467
1534.78	1.27536
1536.96	3.89274
1539.13	-1.94181
1541.3	2.67852
1543.48	4.93472
1545.65	4.48889
1547.83	2.13674
1550	5.87925
1552.17	6.31873
1554.35	9.21717
1556.52	15.5663
1558.7	18.6062
1560.87	5.28781
1563.04	1.67755
1565.22	8.01911
1567.39	8.94676
1569.57	4.87701
1571.74	5.38244
1573.91	5.77948
1576.09	4.99229
1578.26	-0.176509
1580.43	2.26695
1582.61	4.28868
1584.78	6.03766
1586.96	7.17479
1589.13	6.35302
1591.3	7.58834
1593.48	3.24225
1595.65	7.61117
1597.83	5.82145
1600	6.6309
1602.17	3.47086
1604.35	4.5439
1606.52	9.5277
1608.7	5.2
1610.87	7.47701
1613.04	9.06435
1615.22	7.72566
1617.39	4.85081
1619.57	6.83726
1621.74	6.31292
1623.91	8.56297
1626.09	3.53534
1628.26	8.28025
1630.43	10.3121
1632.61	7.22813
1634.78	6.84708
1636.96	4.81151
1639.13	11.2
1641.3	4.81513
1643.48	13.2991
1645.65	5.50985
1647.83	9.5442
1650	9.54386
1652.17	9.44644
1654.35	6.05206
1656.52	8.79455
1658.7	7.98545
1660.87	11.3853
1663.04	7.14432
1665.22	10.7679
1667.39	15.1042
1669.57	6.41664
1671.74	8.27574
1673.91	6.21031
1676.09	8.84769
1678.26	11.1095
1680.43	8.84516
1682.61	9.13079
1684.78	9.50671
1686.96	182.879
1689.13	12.354
1691.3	11.1036
1693.48	9.8966
1695.65	10.2066
1697.83	6.92454
1700	9.68989
1702.17	4.11311
1704.35	7.471
1706.52	7.02156
1708.7	5.88506
1710.87	4.46458
1713.04	5.70021
1715.22	5.42621
1717.39	6.20165
1719.57	2.83672
1721.74	4.89017
1723.91	1.31402
1726.09	0.786074
1728.26	0.782501
1730.43	5.52091
1732.61	2.71321
1734.78	-1.30619
1736.96	-0.880249
1739.13	2.57762
1741.3	6.61383
1743.48	5.68122
1745.65	-1.26387
1747.83	-1.99323
1750	-2.13043
1752.17	1.02324
1754.35	3.57719
1756.52	-2.28736
1758.7	1.20388
1760.87	3.6005
1763.04	-0.668641
1765.22	1.95652
1767.39	2.93332
1769.57	1.28698
1771.74	0.397759
1773.91	3.8648
1776.09	3.19737
1778.26	3.18665
1780.43	2.05757
1782.61	3.55259
1784.78	6.64051
1786.96	2.18659
1789.13	2.46198
1791.3	2.27921
1793.48	3.12777
1795.65	1.83958
1797.83	4.04441
1800	1.87185
1802.17	3.84715
1804.35	3.0589
1806.52	-1.89041
1808.7	1.31188
1810.87	-0.433375
1813.04	2.24473
1815.22	5.33177
1817.39	3.51882
1819.57	1.2
1821.74	1.77109
1823.91	-0.0318678
1826.09	1.79331
1828.26	1.55209
1830.43	-0.598004
1832.61	2.0781
1834.78	2.34515
1836.96	5.29048
1839.13	4.20997
1841.3	1.16031
1843.48	4.35034
1845.65	5.81236
1847.83	0.314091
1850	6.96624
1852.17	3.6821
1854.35	2.84474
1856.52	7.12669
1858.7	1.04287
1860.87	2.78309
1863.04	1.59697
1865.22	5.87865
1867.39	5.77316
1869.57	5.05154
1871.74	5.23005
1873.91	2.46402
1876.09	0.7809
1878.26	0.126166
1880.43	0.731916
1882.61	2.68761
1884.78	3.93403
1886.96	-0.261783
1889.13	4.66195
1891.3	2.30361
1893.48	3.06495
1895.65	6.78458
1897.83	5.07878
1900	8.34267
1902.17	3.81908
1904.35	1.25265
1906.52	-0.872769
1908.7	-0.957679
1910.87	8.72721
1913.04	1.85512
1915.22	4.33643
1917.39	1.80084
1919.57	1.74283
1921.74	5.49388
1923.91	4.55071
1926.09	1.35946
1928.26	2.39358
1930.43	1.91517
1932.61	7.56192
1934.78	3.8
1936.96	5.8214
1939.13	2.78422
1941.3	1.55952
1943.48	1.06196
1945.65	3.1086
1947.83	6.2346
1950	3.00203
1952.17	4.80074
1954.35	2.36533
1956.52	9.59588
1958.7	4.23296
1960.87	6.93294
1963.04	-1.09527
1965.22	3.71252
1967.39	-0.907418
1969.57	3.73016
1971.74	7.71236
1973.91	4.25092
1976.09	2.94857
1978.26	6.76525
1980.43	3.6
1982.61	7.28032
1984.78	5.61797
1986.96	5.09852
1989.13	4.70184
1991.3	2.91218
1993.48	4.04208
1995.65	4.95868
1997.83	3.31815
2000	2.42634
2002.17	5.15647
2004.35	2.69486
2006.52	6.53555
2008.7	2.86019
2010.87	7.65842
2013.04	6.14121
2015.22	9.39497
2017.39	2.90512
2019.57	6.64399
2021.74	7.6497
2023.91	6.59099
2026.09	4.79958
2028.26	4.65061
2030.43	5.50333
2032.61	7.4
2034.78	5.91952
2036.96	8.13948
2039.13	7.11017
2041.3	4.9778
2043.48	8.40348
2045.65	5.6
2047.83	4.70755
2050	6.02177
2052.17	4.84095
2054.35	5.89187
2056.52	3.98239
2058.7	1.82147
2060.87	4.92957
2063.04	4.81656
2065.22	8.50678
2067.39	8.34709
2069.57	6.28218
2071.74	10.7356
2073.91	1.77473
2076.09	2.14591
2078.26	6.95923
2080.43	5.18635
2082.61	8.25798
2084.78	6.4371
2086.96	4.0275
2089.13	4.11744
2091.3	6.89883
2093.48	7.86867
2095.65	2.26059
2097.83	6.64279
2100	8.84543
2102.17	5.65604
2104.35	4.04528
2106.52	7.42704
2108.7	5.57569
2110.87	8.54628
2113.04	4.6
2115.22	9.8075
2117.39	9.11047
2119.57	6.80911
2121.74	5.71838
2123.91	9.36553
2126.09	5.74428
2128.26	4.4
2130.43	4.88741
2132.61	4.64894
2134.78	12.7813
2136.96	8.51274
2139.13	7.02145
2141.3	4.58604
2143.48	3.90355
2145.65	6.64029
2147.83	5.93781
2150	8.41471
2152.17	6.12801
2154.35	6.09981
2156.52	6.00607
2158.7	8.71767
2160.87	6.91857
2163.04	5.67867
2165.22	6.43568
2167.39	9.12945
2169.57	3.55364
2171.74	6.06318
2173.91	10.3941
2176.09	9.2
2178.26	9.17855
2180.43	10.5391
2182.61	5.89405
2184.78	10.12
2186.96	9.32531
2189.13	8.63064
2191.3	4.31088
2193.48	8.19193
2195.65	11.4392
2197.83	7.00378
2200	9.70572
2202.17	10.3717
2204.35	7.76419
2206.52	4.91972
2208.7	7.72731
2210.87	5.93873
2213.04	8.08854
2215.22	7.77666
2217.39	7.40521
2219.57	8.29761
2221.74	5.59741
2223.91	10.4991
2226.09	10.733
2228.26	10.2086
2230.43	10.6002
2232.61	7.67883
2234.78	7.40544
2236.96	6.64714
2239.13	7.20064
2241.3	7.63369
2243.48	9.08753
2245.65	8.37345
2247.83	7.72914
2250	6.86271
2252.17	9.83165
2254.35	7.79543
2256.52	6.3997
2258.7	10.2439
2260.87	9.75235
2263.04	7.93401
2265.22	9.20557
2267.39	9.80977
2269.57	8.93613
2271.74	10.5385
2273.91	8.57238
2276.09	7.34946
2278.26	8.73945
2280.43	8.17907
2282.61	9.56934
2284.78	11.0909
2286.96	10.054
2289.13	9.5831
2291.3	10.5381
2293.48	12.3593
2295.65	10.0441
2297.83	8.53566
2300	8.40865
2302.17	6.61133
2304.35	8.53281
2306.52	10.2676
2308.7	12.6719
2310.87	12.794
2313.04	11.7502
2315.22	6.45553
2317.39	12.4068
2319.57	8.5552
2321.74	4.00682
2323.91	12.6933
2326.09	14.4794
2328.26	26.0103
2330.43	54.3207
2332.61	40.7915
2334.78	6.80614
2336.96	6.02293
2339.13	6.92254
2341.3	6.77985
2343.48	4.05838
2345.65	7.25018
2347.83	5.12529
2350	4.29278
2352.17	7.19496
2354.35	7.22132
2356.52	4.85487
2358.7	2.58729
2360.87	3.41795
2363.04	4.47092
2365.22	4.34055
2367.39	6.45853
2369.57	5.73215
2371.74	2.52748
2373.91	7.10544
2376.09	6.4065
2378.26	11.9115
2380.43	8.4061
2382.61	8.36513
2384.78	3.9793
2386.96	65.3044
2389.13	26.7495
2391.3	5.01234
2393.48	3.9566
2395.65	6.36219
2397.83	5.63013
2400	3.75431
2402.17	10.7213
2404.35	3.74211
2406.52	6.34478
2408.7	10.4383
2410.87	7.40863
2413.04	9.27391
2415.22	4.66953
2417.39	5.15428
2419.57	8.96962
2421.74	11.5728
2423.91	9.23006
2426.09	5.1247
2428.26	8.67697
2430.43	5.61352
2432.61	7.6713
2434.78	5.32379
2436.96	9.30154
2439.13	8.07851
2441.3	9.41389
2443.48	9.63548
2445.65	8.23842
2447.83	4.02152
2450	11.5245
2452.17	13.5591
2454.35	6.0653
2456.52	10.0961
2458.7	6.72509
2460.87	10.0909
2463.04	10.737
2465.22	9.11409
2467.39	5.72441
2469.57	7.06778
2471.74	5.40856
2473.91	7.48657
2476.09	7.41168
2478.26	11.035
2480.43	6.82833
2482.61	5.85198
2484.78	9.65022
2486.96	4.92057
2489.13	8.26455
2491.3	11.4528
2493.48	4.87572
2495.65	10.6028
2497.83	7.55323
2500	8.28148
2502.17	9.36466
2504.35	6.00383
2506.52	8.51974
2508.7	8.81009
2510.87	7.38185
2513.04	7.87992
2515.22	6.06623
2517.39	4.00645
2519.57	9.11657
2521.74	8.68755
2523.91	10.8176
2526.09	7.60177
2528.26	4.56394
2530.43	8.07878
2532.61	10.4422
2534.78	7.12411
2536.96	10.3871
2539.13	10.5715
2541.3	9.72092
2543.48	9.01118
2545.65	8.47786
2547.83	6.82329
2550	5.83493
2552.17	8.2107
2554.35	6.48311
2556.52	10.9018
2558.7	11.3747
2560.87	8.52629
2563.04	12.6276
2565.22	10.0507
2567.39	12.0885
2569.57	10.2792
2571.74	8.16508
2573.91	9.09141
2576.09	7.55856
2578.26	11.0852
2580.43	6.90435
2582.61	6.91597
2584.78	6.73805
2586.96	8.23983
2589.13	10.8715
2591.3	7.01847
2593.48	14.1715
2595.65	11.409
2597.83	7.76459
2600	7.14595
2602.17	7.89278
2604.35	6.20479
2606.52	9.23599
2608.7	10.8623
2610.87	7.14301
2613.04	6.96228
2615.22	11.4455
2617.39	11.8183
2619.57	12.522
2621.74	9.82532
2623.91	11.4114
2626.09	8.58923
2628.26	7.25409
2630.43	9.41681
2632.61	11.9117
2634.78	8.15952
2636.96	7.74302
2639.13	9.2386
2641.3	7.35203
2643.48	9.08884
2645.65	6.46184
2647.83	10.3175
2650	10.1738
2652.17	9.95123
2654.35	10.56
2656.52	8.87577
2658.7	11.0066
2660.87	12.9541
2663.04	11.7219
2665.22	9.00381
2667.39	7.02427
2669.57	8.29478
2671.74	8.15096
2673.91	10.7907
2676.09	10.7767
2678.26	10.0154
2680.43	6.91529
2682.61	12.1706
2684.78	12.0836
2686.96	11.7604
2689.13	12.4029
2691.3	13.0176
2693.48	14.2447
2695.65	13.4499
2697.83	12.2147
2700	8.70919
2702.17	10.2
2704.35	13.3104
2706.52	8.1266
2708.7	7.43151
2710.87	11.8674
2713.04	9.29414
2715.22	11.3101
2717.39	7.80407
2719.57	10.0873
2721.74	6.25896
2723.91	9.89123
2726.09	9.84936
2728.26	9.59721
2730.43	15.3012
2732.61	12.1575
2734.78	12.1728
2736.96	9.5433
2739.13	10.9461
2741.3	9.85943
2743.48	16.0228
2745.65	13.6144
2747.83	11.011
2750	10.4671
2752.17	9.9747
2754.35	15.2515
2756.52	8.0963
2758.7	14.3688
2760.87	14.471
2763.04	14.1352
2765.22	12.0631
2767.39	1228.41
2769.57	13.7804
2771.74	13.9991
2773.91	18.6371
2776.09	16.4185
2778.26	18.6834
2780.43	13.2906
2782.61	15.1573
2784.78	14.8995
2786.96	16.6816
2789.13	17.773
2791.3	19.3269
2793.48	16.0903
2795.65	15.6423
2797.83	14.9708
2800	17.2808