File: Example Data/Raman/Kara/12-20-10/Si-Graphene/2 etoh dispersed/SG_3.txt
400	127.555
402.515	135.449
405.03	139.392
407.546	143.82
410.061	153.888
412.576	161.667
415.091	166.936
417.607	169.7
420.122	172.581
422.637	188.353
425.152	196.152
427.668	200.831
430.183	200.162
432.698	198.054
435.213	209.133
437.729	208.067
440.244	210.171
442.759	219.855
445.274	227.906
447.79	220.949
450.305	225.029
452.82	226.021
455.335	237.384
457.851	250.407
460.366	257.92
462.881	270.504
465.396	278.532
467.912	288.547
470.427	305.136
472.942	321.418
475.457	325.073
477.973	349.791
480.488	386.983
483.003	400.573
485.518	421.112
488.034	469.172
490.549	490.973
493.064	538.178
495.579	602.556
498.095	675.412
500.61	778.122
503.125	943.813
505.64	1113.91
508.155	1278.23
510.671	1322.38
513.186	1213.04
515.701	983.47
518.216	742.612
520.732	528.928
523.247	391.803
525.762	310.644
528.277	258.486
530.793	212.771
533.308	178.846
535.823	155.239
538.338	139.033
540.854	133.015
543.369	129.286
545.884	112.718
548.399	108.594
550.915	101.362
553.43	101.578
555.945	97.9072
558.46	86.0137
560.976	83.4841
563.491	91.0849
566.006	91.0108
568.521	90.5912
571.037	85.6309
573.552	76.2303
576.067	89.1446
578.582	91.8354
581.098	93.4018
583.613	91.0917
586.128	89.1847
588.643	93.2446
591.159	93.5763
593.674	93.7539
596.189	91.7628
598.704	94.8596
601.219	99.9209
603.735	97.3112
606.25	96.4811
608.765	98.649
611.281	93.9413
613.796	88.6825
616.311	88.0628
618.826	92.0596
621.341	92.7252
623.857	89.6993
626.372	87.2307
628.887	85.8774
631.402	86.4387
633.918	89.6202
636.433	87.4549
638.948	83.5226
641.463	79.9228
643.979	83.605
646.494	90.6495
649.009	87.8308
651.524	90.5019
654.04	89.613
656.555	86.6609
659.07	83.6458
661.585	82.594
664.101	84.0665
666.616	80.722
669.131	76.4669
671.646	76.5049
674.162	76.3681
676.677	74.5728
679.192	73.3583
681.707	73.0233
684.223	74.7151
686.738	73.5943
689.253	75.0613
691.768	76.2922
694.284	71.6389
696.799	68.1155
699.314	73.6816
701.829	73.5677
704.344	74.764
706.86	76.9987
709.375	78.7016
711.89	84.7823
714.406	68.969
716.921	72.165
719.436	72.7671
721.951	74.389
724.466	78.0378
726.982	71.6335
729.497	80.5643
732.012	78.175
734.527	77.4699
737.043	75.7331
739.558	74.6433
742.073	78.8127
744.588	77.4624
747.104	81.2622
749.619	80.7724
752.134	80.7897
754.649	84.3054
757.165	88.3569
759.68	83.0026
762.195	89.0908
764.71	83.6723
767.226	82.3298
769.741	85.0093
772.256	86.5176
774.771	84.1103
777.287	89.8697
779.802	90.6792
782.317	89.5086
784.832	90.97
787.348	91.9038
789.863	88.7187
792.378	86.2442
794.893	96.2583
797.409	90.1008
799.924	89.6205
802.439	90.4193
804.954	89.0601
807.469	88.6262
809.985	91.3482
812.5	91.2332
815.015	97.2253
817.531	101.392
820.046	102.214
822.561	98.8421
825.076	89.8393
827.591	88.3051
830.107	87.8826
832.622	96.8417
835.137	94.8239
837.652	89.9775
840.168	95.1864
842.683	99.9154
845.198	101.622
847.713	101.8
850.229	101.181
852.744	97.6732
855.259	97.1562
857.774	101.918
860.29	95.961
862.805	90.6595
865.32	101.092
867.835	98.5059
870.351	94.769
872.866	98.5676
875.381	105.939
877.896	106.606
880.412	106.778
882.927	111.423
885.442	104.193
887.957	104.95
890.473	111.322
892.988	110.273
895.503	118.282
898.018	124.983
900.534	126.705
903.049	127.246
905.564	125.6
908.079	128.402
910.594	137.111
913.11	134.098
915.625	145.288
918.14	142.833
920.656	139.763
923.171	139.696
925.686	143.75
928.201	145.631
930.716	134.303
933.232	139.477
935.747	131.55
938.262	129.6
940.777	131.742
943.293	129.451
945.808	125.143
948.323	129.892
950.838	125.053
953.354	115.933
955.869	116.56
958.384	113.539
960.899	108.73
963.415	102.855
965.93	95.7453
968.445	95.9643
970.96	87.9965
973.476	84.235
975.991	78.095
978.506	79.3128
981.021	77.9359
983.537	71.7894
986.052	78.4623
988.567	74.4706
991.082	66.5501
993.598	65.3443
996.113	67.5259
998.628	67.9883
1001.14	64.6273
1003.66	59.7235
1006.17	57.704
1008.69	56.4864
1011.2	58.8265
1013.72	63.0701
1016.23	58.6321
1018.75	54.2748
1021.27	54.6728
1023.78	53.6964
1026.3	55.0461
1028.81	51.3824
1031.33	50.3748
1033.84	53.2097
1036.36	53.5345
1038.87	51.8392
1041.39	51.603
1043.9	52.0469
1046.42	45.4568
1048.93	47.7299
1051.45	42.2973
1053.96	52.346
1056.48	55.5736
1058.99	50.0679
1061.51	47.0676
1064.02	48.4895
1066.54	43.168
1069.05	41.9413
1071.57	47.233
1074.09	47.8857
1076.6	44.0078
1079.12	42.1404
1081.63	43.0591
1084.15	41.5916
1086.66	43.2876
1089.18	36.6128
1091.69	42.7064
1094.21	40.6073
1096.72	40.0246
1099.24	42.919
1101.75	42.9996
1104.27	37.8
1106.78	37.9064
1109.3	39.1396
1111.81	39.535
1114.33	39.7437
1116.84	38.2406
1119.36	35.756
1121.875	33.2551
1124.39	34.2523
1126.91	41.1237
1129.42	32.4773
1131.94	39.0122
1134.45	34.0512
1136.97	38.8681
1139.48	37.9596
1142	37.8218
1144.51	40.4029
1147.03	35.4495
1149.54	33.7048
1152.06	39.1925
1154.57	33.4368
1157.09	34.1688
1159.6	35.0491
1162.12	34.5895
1164.63	33.1307
1167.15	33.3224
1169.66	37.2
1172.18	37.2789
1174.7	38.5212
1177.21	33.7782
1179.73	33.6631
1182.24	36.9153
1184.76	34.3384
1187.27	31.6463
1189.79	35.2027
1192.3	36.7674
1194.82	36.9461
1197.33	42.8178
1199.85	38.5376
1202.36	33.1183
1204.88	35.6928
1207.39	37.2906
1209.91	36.2
1212.42	37.0032
1214.94	38.6782
1217.45	37.1295
1219.97	36.237
1222.48	37.7394
1225	37.1021
1227.52	41.1594
1230.03	43.3862
1232.55	42.0874
1235.06	38.0915
1237.58	33.4909
1240.09	36.6631
1242.61	42.0011
1245.12	42.18
1247.64	39.1785
1250.15	39.367
1252.67	42.9676
1255.18	45.2
1257.7	44.5188
1260.21	45.2153
1262.73	48.7619
1265.24	42.7862
1267.76	42.6067
1270.27	48.9947
1272.79	41.4646
1275.3	44.8744
1277.82	48.1117
1280.34	49.6637
1282.85	47.4802
1285.37	41.8822
1287.88	45.797
1290.4	44.0924
1292.91	52.1923
1295.43	49.1779
1297.94	53.7418
1300.46	50.5389
1302.97	52.575
1305.49	55.3729
1308	55.4842
1310.52	57.4
1313.03	57.6974
1315.55	59.0649
1318.06	57.2585
1320.58	61.5681
1323.09	63.4436
1325.61	57.8095
1328.125	60.029
1330.64	58.5153
1333.16	57.7622
1335.67	65.3962
1338.19	67.0435
1340.7	67.8917
1343.22	67.089
1345.73	73.069
1348.25	68.1494
1350.76	67.2928
1353.28	66.6337
1355.79	67.5096
1358.31	67.0597
1360.82	67.002
1363.34	69.6108
1365.85	68.1759
1368.37	68.5108
1370.88	63.2405
1373.4	65.545
1375.91	66.6111
1378.43	62.6208
1380.95	63.1429
1383.46	57.0524
1385.98	52.2415
1388.49	51.1846
1391.01	47.3955
1393.52	51.6599
1396.04	56.3812
1398.55	56.21
1401.07	57.8512
1403.58	55.014
1406.1	54.6969
1408.61	45.7599
1411.13	47.929
1413.64	52.0454
1416.16	49.9316
1418.67	49.5264
1421.19	50.8873
1423.7	48.263
1426.22	47.2232
1428.73	44.1132
1431.25	47.7056
1433.77	45.6477
1436.28	46.9981
1438.8	49.6887
1441.31	46.8689
1443.83	43.8776
1446.34	47.1596
1448.86	51.4066
1451.37	49.0159
1453.89	45.8748
1456.4	48.7595
1458.92	44.3537
1461.43	48.4564
1463.95	45.4544
1466.46	48.0807
1468.98	49.7868
1471.49	47.8561
1474.01	46.7808
1476.52	44.6501
1479.04	43.7203
1481.55	48.921
1484.07	45.3343
1486.59	47
1489.1	47.0062
1491.62	47.5594
1494.13	48.2836
1496.65	50.5758
1499.16	44.6213
1501.68	44.79
1504.19	45.6167
1506.71	48.9374
1509.22	50.2872
1511.74	46.2192
1514.25	48.7401
1516.77	48.9281
1519.28	45.4199
1521.8	53.3927
1524.31	53.0225
1526.83	50.9115
1529.34	51.8741
1531.86	54.9458
1534.375	55.7402
1536.89	54.1007
1539.41	50.4795
1541.92	47.6546
1544.44	50.1492
1546.95	53.9025
1549.47	50.027
1551.98	51.2026
1554.5	61.5013
1557.01	57.7986
1559.53	57.4266
1562.04	59.1274
1564.56	58.4477
1567.07	56.3172
1569.59	59.6617
1572.1	63.3246
1574.62	62.9499
1577.13	62.6792
1579.65	67.0517
1582.16	68.5529
1584.68	63.8533
1587.2	71.3123
1589.71	65.5791
1592.23	66.8911
1594.74	64.6503
1597.26	60.9478
1599.77	65.5176
1602.29	60.4533
1604.8	59.3738
1607.32	58.2954
1609.83	56.1897
1612.35	53.107
1614.86	55.5187
1617.38	55.6902
1619.89	50.3937
1622.41	53.6692
1624.92	50.2693
1627.44	48.3666
1629.95	45.2521
1632.47	52.5403
1634.98	49.726
1637.5	46.0123
1640.02	41.9231
1642.53	41.355
1645.05	44.2576
1647.56	38.8572
1650.08	38.2523
1652.59	44.0491
1655.11	44.547
1657.62	41.4833
1660.14	43.1013
1662.65	42.3294
1665.17	36.6601
1667.68	43.3365
1670.2	38.6
1672.71	38.45
1675.23	36.452
1677.74	40.7915
1680.26	41
1682.77	45.8853
1685.29	44.5977
1687.8	41.6606
1690.32	34.7176
1692.84	37.3879
1695.35	39.6676
1697.87	39.8237
1700.38	41.7154
1702.9	41.1845
1705.41	37.5387
1707.93	37.7565
1710.44	42.919
1712.96	40.5072
1715.47	41.5488
1717.99	39.7376
1720.5	37.0434
1723.02	38.1815
1725.53	44.1728
1728.05	37.1845
1730.56	41.8584
1733.08	41.2792
1735.59	46.5105
1738.11	46.006
1740.625	42.7737
1743.14	40.5483
1745.66	44.0836
1748.17	43.5147
1750.69	37.5949
1753.2	38.9297
1755.72	44.4869
1758.23	43.9029
1760.75	39.0505
1763.26	39.0964
1765.78	44.0876
1768.29	46.6519
1770.81	37.3353
1773.32	36.5435
1775.84	43.6099
1778.35	47.8898
1780.87	43.5979
1783.38	45.8587
1785.9	36.2004
1788.41	40.8307
1790.93	38.799
1793.45	39.9336
1795.96	44.1453
1798.48	44.6372
1800.99	42.8288
1803.51	43.7923
1806.02	44.5964
1808.54	42.9852
1811.05	42.4748
1813.57	41.8663
1816.08	41.7476
1818.6	45.9103
1821.11	47.5757
1823.63	44.9115
1826.14	48.8296
1828.66	40.3259
1831.17	43.6395
1833.69	47.5962
1836.2	47.4037
1838.72	45.3243
1841.23	45.9252
1843.75	48.4335
1846.27	43.9713
1848.78	45.7076
1851.3	47.3119
1853.81	42.8207
1856.33	42.9286
1858.84	43.9308
1861.36	46.2284
1863.87	42.5733
1866.39	40.8698
1868.9	44.463
1871.42	48.9071
1873.93	48.189
1876.45	42.4201
1878.96	42.8809
1881.48	46.9897
1883.99	46.2816
1886.51	44.7973
1889.02	44.4865
1891.54	50.1175
1894.05	52.2136
1896.57	49.9178
1899.09	46.8755
1901.6	49.6105
1904.12	46.171
1906.63	45.886
1909.15	47.8288
1911.66	49.7708
1914.18	46.356
1916.69	45.0854
1919.21	48.4229
1921.72	44.6072
1924.24	43.6616
1926.75	47.3689
1929.27	52.0063
1931.78	52.8467
1934.3	53.8367
1936.81	54.9146
1939.33	51.2024
1941.84	47.0083
1944.36	49.2548
1946.875	52.0611
1949.39	51.182
1951.91	47.7048
1954.42	48.5183
1956.94	51.8411
1959.45	50.8092
1961.97	46.7093
1964.48	46.3022
1967	50.5823
1969.51	52.627
1972.03	53.2741
1974.54	54.6463
1977.06	53.346
1979.57	52.9583
1982.09	49.5168
1984.6	48.8887
1987.12	55.8257
1989.63	57.3219
1992.15	50.7327
1994.66	49.6061
1997.18	55.7103
1999.7	53.2512
2002.21	53.8691
2004.73	46.9597
2007.24	55.2535
2009.76	53.8004
2012.27	51.0414
2014.79	57.0327
2017.3	49.926
2019.82	52.083
2022.33	53.9787
2024.85	53.2242
2027.36	55.1943
2029.88	52.0538
2032.39	59.3685
2034.91	59.4088
2037.42	60.154
2039.94	49.9734
2042.45	52.1351
2044.97	54.029
2047.48	54.0214
2050	55.9395
2052.52	56.8962
2055.03	57.3437
2057.55	58.2486
2060.06	60.747
2062.58	57.7219
2065.09	56.018
2067.61	56.1235
2070.12	55.2399
2072.64	54.5252
2075.15	52.678
2077.67	55.7622
2080.18	48.6708
2082.7	53.3378
2085.21	52.1412
2087.73	54.1304
2090.24	58.5487
2092.76	60.7376
2095.27	58.7956
2097.79	58.2924
2100.3	57.4147
2102.82	57.6362
2105.34	57.8072
2107.85	61.4802
2110.37	58.02
2112.88	57.4553
2115.4	56.744
2117.91	59.8368
2120.43	61.6027
2122.94	59.0215
2125.46	61.008
2127.97	57.593
2130.49	59.7841
2133	68.1439
2135.52	62.6052
2138.03	63.6003
2140.55	62.092
2143.06	60.7643
2145.58	61.6275
2148.09	65.2954
2150.61	58.0928
2153.125	60.8261
2155.64	63.1147
2158.16	62.2236
2160.67	69.8945
2163.19	68.2566
2165.7	68.4779
2168.22	64.2226
2170.73	67.1854
2173.25	63.8808
2175.76	64.6007
2178.28	67.5749
2180.79	71.2451
2183.31	66.7161
2185.82	67.1936
2188.34	70.8269
2190.85	70.3333
2193.37	72.1946
2195.88	66.0816
2198.4	65.0342
2200.91	65.7328
2203.43	63.6535
2205.95	67.4321
2208.46	70.1082
2210.98	65.9592
2213.49	65.7265
2216.01	66.2227
2218.52	72.8205
2221.04	70.5684
2223.55	71.777
2226.07	66.7415
2228.58	66.1309
2231.1	70.181
2233.61	64.284
2236.13	72.6676
2238.64	75.6338
2241.16	69.7992
2243.67	79.156
2246.19	73.9811
2248.7	76.2108
2251.22	75.3766
2253.73	66.684
2256.25	79.1526
2258.77	74.99
2261.28	71.8564
2263.8	69.9394
2266.31	74.5948
2268.83	71.0362
2271.34	73.0898
2273.86	66.6161
2276.37	71.3857
2278.89	72.8615
2281.4	73.4196
2283.92	78.8089
2286.43	76.0326
2288.95	78.6403
2291.46	81.0081
2293.98	86.0775
2296.49	77.7806
2299.01	78.0751
2301.52	76.1769
2304.04	76.8158
2306.55	74.1193
2309.07	75.8907
2311.59	79.6637
2314.1	83.5058
2316.62	82.6878
2319.13	79.1118
2321.65	82.8918
2324.16	82.0279
2326.68	79.6918
2329.19	85.8787
2331.71	86.7669
2334.22	87.1488
2336.74	91.8844
2339.25	89.7547
2341.77	84.9625
2344.28	80.0504
2346.8	77.7866
2349.31	77.3211
2351.83	80.4754
2354.34	83.5534
2356.86	85.9415
2359.375	81.0536
2361.89	81.6536
2364.41	84.9912
2366.92	85.8947
2369.44	82.673
2371.95	86.4408
2374.47	82.9299
2376.98	85.5114
2379.5	88.4314
2382.01	90.418
2384.53	90.3071
2387.04	84.9303
2389.56	84.8519
2392.07	87.3743
2394.59	91.6205
2397.1	90.2769
2399.62	90.7647
2402.13	89.9551
2404.65	92.1185
2407.16	90.1303
2409.68	89.5375
2412.2	91.0485
2414.71	92.9893
2417.23	96.7122
2419.74	98.012
2422.26	100.248
2424.77	101.915
2427.29	102.263
2429.8	102.589
2432.32	107.433
2434.83	111.899
2437.35	112.813
2439.86	122.407
2442.38	119.033
2444.89	120.036
2447.41	116.927
2449.92	115.94
2452.44	112.878
2454.95	110.806
2457.47	110.296
2459.98	107.12
2462.5	107.522
2465.02	103.613
2467.53	107.318
2470.05	106.569
2472.56	102.33
2475.08	103.185
2477.59	106.335
2480.11	105.926
2482.62	103.199
2485.14	100.355
2487.65	104.116
2490.17	105.75
2492.68	106.913
2495.2	101.902
2497.71	108.169
2500.23	105.184
2502.74	106.922
2505.26	100.927
2507.77	99.6842
2510.29	103.509
2512.8	108.048
2515.32	113.067
2517.84	108.395
2520.35	107.126
2522.87	109.391
2525.38	108.291
2527.9	105.334
2530.41	109.412
2532.93	109.166
2535.44	108.51
2537.96	107.352
2540.47	105.313
2542.99	106.646
2545.5	109.579
2548.02	112.801
2550.53	111.61
2553.05	111.958
2555.56	111.759
2558.08	108.53
2560.59	110.215
2563.11	109.447
2565.625	112.94
2568.14	113.53
2570.66	119.558
2573.17	114.935
2575.69	110.812
2578.2	117.633
2580.72	114.073
2583.23	115.243
2585.75	122.61
2588.26	119.11
2590.78	114.379
2593.29	112.737
2595.81	111.688
2598.32	116.709
2600.84	117.222
2603.35	117.342
2605.87	120.821
2608.38	119.077
2610.9	120.58
2613.41	122.181
2615.93	115.09
2618.45	116.734
2620.96	122.835
2623.48	116.725
2625.99	118.195
2628.51	124.827
2631.02	121.713
2633.54	118.897
2636.05	118.284
2638.57	114.109
2641.08	121.677
2643.6	124.341
2646.11	119.795
2648.63	120.135
2651.14	119.985
2653.66	125.525
2656.17	121.037
2658.69	124.275
2661.2	124.633
2663.72	124.069
2666.23	129.02
2668.75	124.85
2671.27	128.114
2673.78	128.122
2676.3	128.03
2678.81	128.913
2681.33	128.935
2683.84	129.145
2686.36	134.62
2688.87	135.769
2691.39	126.462
2693.9	130.196
2696.42	133.888
2698.93	140.191
2701.45	128.187
2703.96	136.937
2706.48	135.556
2708.99	134.916
2711.51	135.258
2714.02	138.283
2716.54	139.652
2719.05	139.144
2721.57	138.474
2724.09	137.282
2726.6	143.329
2729.12	139.219
2731.63	139.084
2734.15	137.188
2736.66	142.003
2739.18	137.408
2741.69	139.674
2744.21	144.365
2746.72	141.184
2749.24	142.097
2751.75	141.151
2754.27	140.48
2756.78	137.899
2759.3	143.936
2761.81	144.686
2764.33	142.954
2766.84	143.377
2769.36	141.665
2771.875	143.589
2774.39	145.851
2776.91	149.524
2779.42	152.148
2781.94	144.472
2784.45	146.14
2786.97	148.827
2789.48	146.585
2792	147.619
2794.51	148.197
2797.03	153.971
2799.54	145.351
2802.06	151.236
2804.57	157.017
2807.09	155.547
2809.6	150.265
2812.12	144.958
2814.63	148.46
2817.15	157.466
2819.66	148.789
2822.18	151.226
2824.7	159.012
2827.21	146.868
2829.73	150.711
2832.24	150.574
2834.76	151.319
2837.27	155.712
2839.79	152.764
2842.3	151.048
2844.82	155.618
2847.33	160.999
2849.85	164.075
2852.36	164.517
2854.88	162.953
2857.39	161.225
2859.91	166.591
2862.42	165.028
2864.94	160.357
2867.45	161.926
2869.97	165.034
2872.48	169.067
2875	163.194
2877.52	164.307
2880.03	166.298
2882.55	165.305
2885.06	168.629
2887.58	163.476
2890.09	167.022
2892.61	166.348
2895.12	166.067
2897.64	170.162
2900.15	173.917
2902.67	175.186
2905.18	180.475
2907.7	171.591
2910.21	172.467
2912.73	179.637
2915.24	175.989
2917.76	174.656
2920.27	178.055
2922.79	175.9
2925.3	176.344
2927.82	179.964
2930.34	184.116
2932.85	179.555
2935.37	179.039
2937.88	183.968
2940.4	186.994
2942.91	183.65
2945.43	187.97
2947.94	189.465
2950.46	186.017
2952.97	190.779
2955.49	182.727
2958	192.154
2960.52	183.638
2963.03	185.048
2965.55	191.777
2968.06	191.763
2970.58	181.773
2973.09	185.994
2975.61	187.813
2978.125	189.882
2980.64	192.282
2983.16	191.624
2985.67	185.762
2988.19	183.736
2990.7	185.522
2993.22	191.748
2995.73	194.045
2998.25	189.93
3000.76	175.853
3003.28	191.473
3005.79	196.187
3008.31	200.539
3010.82	196.275
3013.34	187.55
3015.85	194.796
3018.37	195.432
3020.88	192.742
3023.4	188.758
3025.91	199.874
3028.43	196.617
3030.95	193.734
3033.46	195.214
3035.98	197.174
3038.49	187.726
3041.01	201.884
3043.52	206.807
3046.04	209.916
3048.55	201.992
3051.07	206.946
3053.58	203.748
3056.1	196.211
3058.61	202.036
3061.13	206.467
3063.64	204.994
3066.16	209.304
3068.67	211.254
3071.19	209.466
3073.7	209.545
3076.22	213.884
3078.73	209.29
3081.25	199.113
3083.77	210.36
3086.28	216.56
3088.8	205.167
3091.31	208.825
3093.83	218.42
3096.34	214.046
3098.86	208.98
3101.37	209.469
3103.89	213.737
3106.4	206.709
3108.92	209.396
3111.43	226.202
3113.95	221.573
3116.46	219.367
3118.98	222.054
3121.49	223.998
3124.01	229.332
3126.52	224.251
3129.04	241.121
3131.55	231.21
3134.07	226.698
3136.59	231.234
3139.1	229.666
3141.62	222.237
3144.13	228.968
3146.65	224.447
3149.16	227.941
3151.68	229.992
3154.19	228.156
3156.71	231.01
3159.22	224.083
3161.74	236.007
3164.25	235.604
3166.77	239.848
3169.28	241.02
3171.8	230.56
3174.31	236.917
3176.83	238.269
3179.34	242.096
3181.86	233.615
3184.375	243.014
3186.89	238.123
3189.41	233.908
3191.92	238.636
3194.44	244.316
3196.95	250.822
3199.47	238.015
3201.98	236.633
3204.5	243.917
3207.01	251.254
3209.53	256.245
3212.04	249.314
3214.56	249.314
3217.07	243.335
3219.59	244.697
3222.1	253.224
3224.62	258.122
3227.13	249.314
3229.65	257.03
3232.16	250.611
3234.68	253.308
3237.2	249.314
3239.71	254.686
3242.23	249.314
3244.74	249.314
3247.26	259.111
3249.77	263.527
3252.29	252.135
3254.8	261.847
3257.32	265.293
3259.83	265.819
3262.35	254.257
3264.86	260.189
3267.38	251.352
3269.89	267.063
3272.41	274.784
3274.92	271.435
3277.44	265.902
3279.95	278.901
3282.47	273.204
3284.98	269.788
3287.5	277.092
3290.02	272.775
3292.53	274.172
3295.05	269.888
3297.56	280.35
3300.08	270.316
3302.59	287.628
3305.11	283.703
3307.62	282.097
3310.14	281.523
3312.65	297.045
3315.17	283.825
3317.68	289.992
3320.2	271.062
3322.71	285.452
3325.23	290.766
3327.74	284.387
3330.26	296.767
3332.77	294.307
3335.29	285.664
3337.8	294.289
3340.32	297.057
3342.84	291.293
3345.35	297.605
3347.87	302.997
3350.38	288.705
3352.9	296.524
3355.41	295.545
3357.93	298.501
3360.44	302.317
3362.96	292.955
3365.47	297.603
3367.99	301.522
3370.5	298.484
3373.02	312.723
3375.53	291.952
3378.05	306.046
3380.56	302.163
3383.08	301.226
3385.59	307.761
3388.11	322.649
3390.625	311.167
3393.14	316.931
3395.66	306.864
3398.17	318.774
3400.69	308.881
3403.2	309.41
3405.72	308.98
3408.23	309.994
3410.75	318.787
3413.26	317.633
3415.78	318.597
3418.29	318.005
3420.81	319.923
3423.32	323.234
3425.84	314.729
3428.35	327.623
3430.87	335.616
3433.38	339.687
3435.9	331.835
3438.41	335.253
3440.93	333.498
3443.45	324.937
3445.96	328.688
3448.48	333.813
3450.99	330.527
3453.51	337.272
3456.02	331.636
3458.54	338.723
3461.05	344.315
3463.57	333.115
3466.08	345.361
3468.6	336.808
3471.11	363.34
3473.63	327.046
3476.14	334.419
3478.66	343.155
3481.17	346.852
3483.69	346.644
3486.2	347.594
3488.72	360.566
3491.23	362.206
3493.75	363.467
3496.27	351.067
3498.78	350.204
3501.3	351.652
3503.81	361.721
3506.33	360.883
3508.84	345.52
3511.36	353.752
3513.87	361.977
3516.39	365.26
3518.9	356.281
3521.42	358.035
3523.93	368.48
3526.45	367.51
3528.96	360.245
3531.48	375.861
3533.99	373.671
3536.51	365.592
3539.02	377.495
3541.54	378.239
3544.05	372.792
3546.57	380.074
3549.09	388.465
3551.6	367.069
3554.12	364.646
3556.63	374.608
3559.15	376.69
3561.66	382.219
3564.18	372.744
3566.69	384.688
3569.21	374.052
3571.72	380.125
3574.24	387.758
3576.75	380.018
3579.27	370.5
3581.78	388.918
3584.3	393.654
3586.81	400.141
3589.33	394.758
3591.84	395.617
3594.36	385.324
3596.875	385.515
3599.39	402.403
3601.91	397.589
3604.42	403.497
3606.94	400.361
3609.45	388.244
3611.97	403.689
3614.48	399.295
3617	399.62
3619.51	394.33
3622.03	391.363
3624.54	409.873
3627.06	412.518
3629.57	410.549
3632.09	421.625
3634.6	415.073
3637.12	403.688
3639.63	406.13
3642.15	416.831
3644.66	415.537
3647.18	426.713
3649.7	419.223
3652.21	409.593
3654.73	422.657
3657.24	409.528
3659.76	412.21
3662.27	420.661
3664.79	437.427
3667.3	426.79
3669.82	428.84
3672.33	418.352
3674.85	416.264
3677.36	421.459
3679.88	431.857
3682.39	427.577
3684.91	434.584
3687.42	430.222
3689.94	439.415
3692.45	434.624
3694.97	437.439
3697.48	439.285
3700	444.802