File: Example Data/Raman/Kara/12-20-10/Si-Graphene/2 etoh dispersed/SG_4.txt
400	112.924
402.515	116.171
405.03	119.404
407.546	128.33
410.061	117.45
412.576	120.453
415.091	122.411
417.607	124.936
420.122	131.463
422.637	129.024
425.152	129.243
427.668	130.947
430.183	134.105
432.698	136.678
435.213	133.42
437.729	141.171
440.244	140.753
442.759	143.967
445.274	145.983
447.79	134.298
450.305	128.423
452.82	116.656
455.335	110.24
457.851	108.533
460.366	106.863
462.881	98.5288
465.396	98.9846
467.912	97.153
470.427	98.1511
472.942	99.6411
475.457	94.2327
477.973	97.6703
480.488	103.048
483.003	110.618
485.518	119.628
488.034	124.712
490.549	109.96
493.064	126.121
495.579	130.478
498.095	135.284
500.61	145.682
503.125	158.304
505.64	168.977
508.155	204.704
510.671	239.924
513.186	305.281
515.701	445.249
518.216	701.561
520.732	1277.29
523.247	2556.88
525.762	4454.76
528.277	6332.37
530.793	7191.77
533.308	5621.83
535.823	3579.18
538.338	2125.96
540.854	1256.66
543.369	811.093
545.884	606.142
548.399	473.516
550.915	387.879
553.43	336.27
555.945	298.109
558.46	264.102
560.976	249.124
563.491	224.173
566.006	204.368
568.521	189.856
571.037	180.958
573.552	175.513
576.067	164.585
578.582	162.763
581.098	153.885
583.613	146.437
586.128	142.242
588.643	138.087
591.159	132.779
593.674	132.246
596.189	132.679
598.704	133.257
601.219	133.445
603.735	132.254
606.25	125.281
608.765	122.351
611.281	125.433
613.796	131.494
616.311	136.637
618.826	138.925
621.341	149.241
623.857	155.863
626.372	164.646
628.887	163.107
631.402	152.633
633.918	149.874
636.433	138.714
638.948	139.312
641.463	136.243
643.979	136.788
646.494	139.756
649.009	133.315
651.524	134.651
654.04	131.239
656.555	131.385
659.07	129.102
661.585	125.637
664.101	129.65
666.616	132.158
669.131	134.82
671.646	128.482
674.162	127.126
676.677	129.504
679.192	123.054
681.707	121.881
684.223	125.542
686.738	132.035
689.253	133.668
691.768	126.477
694.284	115.189
696.799	121.396
699.314	125.983
701.829	121.14
704.344	116.036
706.86	111.748
709.375	108.433
711.89	114.291
714.406	106.384
716.921	112.768
719.436	107.319
721.951	101.332
724.466	102.412
726.982	96.9443
729.497	110.256
732.012	112.693
734.527	108.888
737.043	111.598
739.558	117.959
742.073	115.294
744.588	115.969
747.104	113.425
749.619	113.06
752.134	108.659
754.649	105.285
757.165	109.957
759.68	119.544
762.195	117.853
764.71	113.717
767.226	113.33
769.741	115.434
772.256	116.53
774.771	114.203
777.287	110.985
779.802	119.106
782.317	118.359
784.832	119.66
787.348	120.349
789.863	119.634
792.378	134.763
794.893	124.919
797.409	121.688
799.924	128.48
802.439	130.938
804.954	129.296
807.469	134.44
809.985	133.419
812.5	136.236
815.015	146.112
817.531	141.19
820.046	133.741
822.561	134.22
825.076	134.143
827.591	145.052
830.107	152.943
832.622	152.087
835.137	150.899
837.652	147.337
840.168	140.445
842.683	141.446
845.198	142.129
847.713	142.659
850.229	150.232
852.744	146.178
855.259	137.651
857.774	139.8
860.29	139.831
862.805	140.515
865.32	134.754
867.835	135.221
870.351	139.014
872.866	136.898
875.381	128.471
877.896	136.001
880.412	125.027
882.927	129.863
885.442	128.622
887.957	126.954
890.473	126.194
892.988	122.595
895.503	120.278
898.018	131.617
900.534	126.511
903.049	118.137
905.564	118.179
908.079	123.534
910.594	124.356
913.11	120.129
915.625	122.195
918.14	116.197
920.656	116.564
923.171	114.015
925.686	115.236
928.201	124.156
930.716	124.972
933.232	134.976
935.747	158.733
938.262	185.844
940.777	220.392
943.293	252.928
945.808	285.144
948.323	332.875
950.838	379.88
953.354	373.728
955.869	378.505
958.384	372.728
960.899	370.06
963.415	373.043
965.93	371.218
968.445	370.012
970.96	362.91
973.476	366.726
975.991	368.518
978.506	367.977
981.021	373.685
983.537	379.869
986.052	369.98
988.567	393.583
991.082	392.635
993.598	364.113
996.113	337.61
998.628	311.901
1001.14	278.138
1003.66	237.772
1006.17	207.229
1008.69	189.834
1011.2	172.747
1013.72	163.971
1016.23	154.221
1018.75	142.212
1021.27	135.054
1023.78	134.735
1026.3	120.442
1028.81	126.199
1031.33	111.795
1033.84	101.712
1036.36	104.295
1038.87	101.709
1041.39	89.1585
1043.9	85.4243
1046.42	79.5553
1048.93	69.7634
1051.45	68.6
1053.96	69.6326
1056.48	63.7471
1058.99	59.1452
1061.51	61.6338
1064.02	62.565
1066.54	60.8892
1069.05	48.9723
1071.57	49.3075
1074.09	49.147
1076.6	50.7081
1079.12	51.3411
1081.63	49.4011
1084.15	49.5747
1086.66	55.3616
1089.18	50.2677
1091.69	45.8081
1094.21	44.8
1096.72	42.9075
1099.24	43.8424
1101.75	44.031
1104.27	38.1097
1106.78	40.8386
1109.3	48.2374
1111.81	43.7432
1114.33	40.213
1116.84	39.5599
1119.36	44.0358
1121.875	49.1815
1124.39	49.365
1126.91	46.1363
1129.42	41.6167
1131.94	43.0297
1134.45	38.5388
1136.97	43.0081
1139.48	39.1502
1142	33.9988
1144.51	35.0496
1147.03	35.0102
1149.54	32.4697
1152.06	31.0535
1154.57	35.9409
1157.09	32.9676
1159.6	30.8528
1162.12	28.6701
1164.63	28.8967
1167.15	31.2925
1169.66	30.3047
1172.18	31.5971
1174.7	28.4026
1177.21	33.6869
1179.73	32.2108
1182.24	31.4429
1184.76	31.1043
1187.27	28.523
1189.79	25.7479
1192.3	27.2
1194.82	27.63
1197.33	34.9251
1199.85	29.0725
1202.36	29.1011
1204.88	28.9867
1207.39	28.0957
1209.91	29.0238
1212.42	30.9131
1214.94	29.8425
1217.45	28.2705
1219.97	29.163
1222.48	27.4895
1225	28.2475
1227.52	26.0356
1230.03	26.5238
1232.55	28.6279
1235.06	28.8141
1237.58	28.1727
1240.09	28.7779
1242.61	28.6127
1245.12	30.7596
1247.64	29.7278
1250.15	30.367
1252.67	30.2134
1255.18	28.2563
1257.7	25.2376
1260.21	24.6503
1262.73	28.0027
1265.24	23.9736
1267.76	34.0245
1270.27	30.4249
1272.79	27.8186
1275.3	31.2936
1277.82	29.2656
1280.34	26.7318
1282.85	26.6022
1285.37	25.9244
1287.88	28.735
1290.4	26.2875
1292.91	27.7275
1295.43	25.4045
1297.94	29.9906
1300.46	27.9213
1302.97	27.7854
1305.49	28.8324
1308	27.4604
1310.52	26.0632
1313.03	27.527
1315.55	31.1189
1318.06	30.0351
1320.58	23.3605
1323.09	26.2862
1325.61	26.5831
1328.125	28.773
1330.64	29.6222
1333.16	28.6
1335.67	28.4808
1338.19	28.6463
1340.7	30.2917
1343.22	29.4755
1345.73	34.5494
1348.25	29.7146
1350.76	30.0638
1353.28	28.812
1355.79	28.7822
1358.31	29.147
1360.82	28.8883
1363.34	29.775
1365.85	30.4129
1368.37	28.8868
1370.88	31.9762
1373.4	28.5726
1375.91	31.12
1378.43	31.6559
1380.95	31.0958
1383.46	27.3423
1385.98	27.7336
1388.49	33.5326
1391.01	34.1003
1393.52	29.264
1396.04	36.754
1398.55	28.5889
1401.07	26.7653
1403.58	29.4201
1406.1	26.8824
1408.61	29.3374
1411.13	29.1554
1413.64	26.6379
1416.16	26.3105
1418.67	29.1292
1421.19	32.5991
1423.7	30.789
1426.22	28.2
1428.73	28.2
1431.25	31.7291
1433.77	29.4882
1436.28	31.2263
1438.8	32.5777
1441.31	29.6333
1443.83	24.872
1446.34	27.9397
1448.86	35.3386
1451.37	29.6458
1453.89	24.8355
1456.4	35.4196
1458.92	32.1153
1461.43	31.6453
1463.95	29.5049
1466.46	29.8702
1468.98	33.5525
1471.49	29.3068
1474.01	27.1169
1476.52	28.8294
1479.04	26.8149
1481.55	28.4039
1484.07	35.6294
1486.59	29.1898
1489.1	33.1446
1491.62	28.1657
1494.13	28.6545
1496.65	26.0026
1499.16	25.8999
1501.68	26.5738
1504.19	30.5145
1506.71	28.4282
1509.22	23.862
1511.74	23.9526
1514.25	21.9918
1516.77	27.7976
1519.28	25.5205
1521.8	22.7523
1524.31	20.346
1526.83	21.7663
1529.34	23.2741
1531.86	24.0336
1534.375	26.5385
1536.89	27.3387
1539.41	26.7984
1541.92	25.9091
1544.44	23.9929
1546.95	20.9905
1549.47	19.6871
1551.98	25.5674
1554.5	24.2896
1557.01	25.4319
1559.53	33.6152
1562.04	39.5548
1564.56	38.9715
1567.07	31.793
1569.59	28.5449
1572.1	23.9782
1574.62	22.8644
1577.13	27.0282
1579.65	28.0927
1582.16	24.6866
1584.68	24.492
1587.2	25.7854
1589.71	24.6657
1592.23	23.6998
1594.74	25.7539
1597.26	26.713
1599.77	27.4783
1602.29	23.3747
1604.8	24.6386
1607.32	24.1649
1609.83	28.8063
1612.35	28.1
1614.86	23.5406
1617.38	24.3462
1619.89	26.4
1622.41	24.7845
1624.92	21.3922
1627.44	24.5954
1629.95	21.2445
1632.47	24.0119
1634.98	24.5748
1637.5	24.4206
1640.02	22.3944
1642.53	28.5107
1645.05	26.2564
1647.56	26.5628
1650.08	26.8869
1652.59	22.8717
1655.11	20.1804
1657.62	21.7659
1660.14	22.8281
1662.65	22.5779
1665.17	23.9176
1667.68	23.5368
1670.2	28.1487
1672.71	24.9045
1675.23	23.6091
1677.74	24.3637
1680.26	17.2132
1682.77	22.8015
1685.29	24.1573
1687.8	22.0068
1690.32	19.9835
1692.84	24.7395
1695.35	25.8484
1697.87	24.2
1700.38	25.0239
1702.9	23.4152
1705.41	21.1415
1707.93	23.2866
1710.44	22.5789
1712.96	25.2544
1715.47	23.6883
1717.99	22.5977
1720.5	18.4651
1723.02	20.1722
1725.53	22.0665
1728.05	21.8469
1730.56	25.1285
1733.08	28.1465
1735.59	25.2859
1738.11	22.4982
1740.625	22.1799
1743.14	23.6854
1745.66	22.6724
1748.17	22.9479
1750.69	25.6147
1753.2	23.7397
1755.72	19.2565
1758.23	19.0743
1760.75	21.3484
1763.26	24.5157
1765.78	23.2437
1768.29	22.2455
1770.81	21.4142
1773.32	27.2177
1775.84	18.2415
1778.35	25.8078
1780.87	17.1958
1783.38	24.9125
1785.9	22.9345
1788.41	25.9166
1790.93	26.2062
1793.45	21.6663
1795.96	22.3453
1798.48	25.3954
1800.99	23.4865
1803.51	21.3983
1806.02	21.8
1808.54	25.2842
1811.05	26.5357
1813.57	20.1999
1816.08	20.7374
1818.6	22.7471
1821.11	22.1707
1823.63	22.7653
1826.14	22.5194
1828.66	21.9808
1831.17	21.4693
1833.69	16.1298
1836.2	22.6741
1838.72	19.5921
1841.23	23.5697
1843.75	19.3068
1846.27	20.2651
1848.78	21.0778
1851.3	23.0238
1853.81	25.1931
1856.33	25.249
1858.84	23.431
1861.36	26.4378
1863.87	22.1367
1866.39	19.1598
1868.9	17.9181
1871.42	18.6785
1873.93	21.4819
1876.45	21.0989
1878.96	22.4128
1881.48	22.2783
1883.99	20.009
1886.51	20.1733
1889.02	21.8555
1891.54	21.9722
1894.05	20.1477
1896.57	21.8274
1899.09	23.0264
1901.6	23.1795
1904.12	22.9564
1906.63	22.4774
1909.15	24.2547
1911.66	27.9444
1914.18	20.1553
1916.69	21.472
1919.21	21.4198
1921.72	22.0988
1924.24	18.8159
1926.75	27.3763
1929.27	20.36
1931.78	21.9855
1934.3	25.5697
1936.81	23.2557
1939.33	25.7219
1941.84	23.9454
1944.36	24.1194
1946.875	24.954
1949.39	23.8547
1951.91	22.6329
1954.42	23.2873
1956.94	22.1178
1959.45	21.6931
1961.97	23.0099
1964.48	24.5211
1967	24.6177
1969.51	22.8185
1972.03	22.7587
1974.54	21.9738
1977.06	23.8616
1979.57	23.9255
1982.09	24.1112
1984.6	22.0845
1987.12	20.8658
1989.63	23.6517
1992.15	23.3369
1994.66	22.918
1997.18	20.5579
1999.7	24.7735
2002.21	24.9752
2004.73	21.489
2007.24	21.0929
2009.76	23.1369
2012.27	22.885
2014.79	25.7564
2017.3	25.1313
2019.82	23.9253
2022.33	22.2266
2024.85	23.2363
2027.36	26.1915
2029.88	27.1832
2032.39	21.5767
2034.91	23.1211
2037.42	22.2575
2039.94	21.4562
2042.45	21.5834
2044.97	22.686
2047.48	22.2641
2050	23.4342
2052.52	20.8151
2055.03	23.1496
2057.55	25.2972
2060.06	24.9294
2062.58	27.1187
2065.09	23.6721
2067.61	23.6088
2070.12	22.1998
2072.64	22.9079
2075.15	21.9477
2077.67	24.8525
2080.18	23.0391
2082.7	20.8332
2085.21	19.7985
2087.73	26.0098
2090.24	22.76
2092.76	23.4728
2095.27	22.8448
2097.79	21.558
2100.3	18.6843
2102.82	18.9
2105.34	24.0271
2107.85	25.0282
2110.37	23.5775
2112.88	23.6601
2115.4	24.2215
2117.91	26.2254
2120.43	22.8946
2122.94	23.2936
2125.46	25.3339
2127.97	22.5544
2130.49	20.8162
2133	24.6277
2135.52	23.988
2138.03	23.0337
2140.55	20.8038
2143.06	23.1213
2145.58	21.4926
2148.09	25.1413
2150.61	22.9288
2153.125	22.5792
2155.64	26.7053
2158.16	24.2701
2160.67	23.8255
2163.19	24.6983
2165.7	23.2902
2168.22	21.0438
2170.73	25.4924
2173.25	25.0583
2175.76	23.5705
2178.28	23.4701
2180.79	26.3333
2183.31	23.5565
2185.82	23.3954
2188.34	22.476
2190.85	26.5006
2193.37	25.3862
2195.88	25.842
2198.4	27.3156
2200.91	24.3486
2203.43	28.4418
2205.95	23.86
2208.46	23.2258
2210.98	21.2387
2213.49	23.474
2216.01	24.9889
2218.52	27.1291
2221.04	27.0396
2223.55	27.1432
2226.07	24.4482
2228.58	22.6537
2231.1	25.3587
2233.61	24.5388
2236.13	26.1271
2238.64	29.2507
2241.16	29.278
2243.67	24.1093
2246.19	24.2698
2248.7	25.782
2251.22	23.2966
2253.73	25.7207
2256.25	20.4395
2258.77	23.468
2261.28	29.4332
2263.8	27.6115
2266.31	25.6783
2268.83	25.9746
2271.34	29.2516
2273.86	27.4732
2276.37	24.4919
2278.89	28.268
2281.4	27.6569
2283.92	24.0015
2286.43	26.0096
2288.95	25.7957
2291.46	30.0293
2293.98	30.5477
2296.49	30.8754
2299.01	32.561
2301.52	29.5441
2304.04	26.8163
2306.55	27.5527
2309.07	27.683
2311.59	27.4286
2314.1	27.3426
2316.62	27.4368
2319.13	26.7279
2321.65	27.3436
2324.16	26.2897
2326.68	30.4158
2329.19	36.1595
2331.71	48.0853
2334.22	68.3123
2336.74	77.3729
2339.25	59.0647
2341.77	39.0711
2344.28	31.0209
2346.8	28.9466
2349.31	27.1081
2351.83	29.4623
2354.34	28.8688
2356.86	28.2782
2359.375	29.3703
2361.89	23.9758
2364.41	25.5983
2366.92	28.0016
2369.44	30.2807
2371.95	28.1349
2374.47	29.6078
2376.98	30.2101
2379.5	28.7333
2382.01	28.0672
2384.53	29.3312
2387.04	31.8275
2389.56	29.6022
2392.07	30.0633
2394.59	31.3363
2397.1	31.0867
2399.62	32.4361
2402.13	33.1656
2404.65	32.3452
2407.16	31.6157
2409.68	32.6636
2412.2	33.4734
2414.71	31.5183
2417.23	33.6621
2419.74	33.8082
2422.26	30.3407
2424.77	34.1144
2427.29	36.6742
2429.8	38.2672
2432.32	35.2056
2434.83	37.325
2437.35	42.1293
2439.86	41.8733
2442.38	43.1882
2444.89	42.9211
2447.41	43.1996
2449.92	39.2833
2452.44	38.5108
2454.95	35.5572
2457.47	31.7449
2459.98	33.7454
2462.5	35.8556
2465.02	35.4468
2467.53	35.6628
2470.05	36.5712
2472.56	38.5508
2475.08	38.6387
2477.59	36.8685
2480.11	33.9273
2482.62	33.1632
2485.14	33.3063
2487.65	33.6731
2490.17	35.9606
2492.68	36.2439
2495.2	28.6109
2497.71	32.3035
2500.23	34.8611
2502.74	33.4684
2505.26	34.4936
2507.77	34.9153
2510.29	30.248
2512.8	34.3716
2515.32	35.2614
2517.84	33.7098
2520.35	33.2383
2522.87	31.8839
2525.38	34.9645
2527.9	38.6356
2530.41	34.3834
2532.93	35.7321
2535.44	33.1718
2537.96	31.5657
2540.47	27.8733
2542.99	35.9746
2545.5	37.767
2548.02	34.2592
2550.53	32.3585
2553.05	34.7434
2555.56	34.11
2558.08	35.3855
2560.59	34.2901
2563.11	37.1467
2565.625	36.0202
2568.14	34.7278
2570.66	33.7584
2573.17	34.7232
2575.69	35.8132
2578.2	37.8613
2580.72	34.1946
2583.23	34.6526
2585.75	36.9619
2588.26	36.9362
2590.78	33.0295
2593.29	33.5187
2595.81	34.949
2598.32	36.2112
2600.84	35.5924
2603.35	31.0814
2605.87	34.5027
2608.38	36.4601
2610.9	37.5263
2613.41	36.3877
2615.93	35.3996
2618.45	32.1657
2620.96	32.8571
2623.48	36.385
2625.99	34.0488
2628.51	34.7896
2631.02	37.5292
2633.54	34.9221
2636.05	34.5364
2638.57	33.1862
2641.08	36.6366
2643.6	34.9859
2646.11	33.7996
2648.63	34.8144
2651.14	36.5675
2653.66	36.442
2656.17	36.2353
2658.69	33.1792
2661.2	34.2892
2663.72	37.4801
2666.23	37.8311
2668.75	36.5081
2671.27	38.4272
2673.78	37.3234
2676.3	35.4814
2678.81	38.3584
2681.33	38.1508
2683.84	36.9967
2686.36	37.5886
2688.87	38.0791
2691.39	34.7281
2693.9	43.1957
2696.42	39.1006
2698.93	38.4162
2701.45	37.9557
2703.96	38.8109
2706.48	36.9468
2708.99	37.3247
2711.51	39.5065
2714.02	40.0947
2716.54	37.9821
2719.05	38.2043
2721.57	37.0926
2724.09	36.4491
2726.6	38.8325
2729.12	36.8063
2731.63	39.1198
2734.15	34.5223
2736.66	35.9566
2739.18	39.0859
2741.69	40.0383
2744.21	38.7423
2746.72	38.5793
2749.24	37.9628
2751.75	36.1987
2754.27	40.4623
2756.78	39.9526
2759.3	36.9316
2761.81	41.4445
2764.33	42.9298
2766.84	39.3502
2769.36	39.2977
2771.875	38.3323
2774.39	40.2967
2776.91	39.2535
2779.42	39.4526
2781.94	37.1867
2784.45	39.4451
2786.97	40.3981
2789.48	37.6585
2792	40.6731
2794.51	39.5645
2797.03	40.6432
2799.54	40.0807
2802.06	42
2804.57	39.0323
2807.09	39.4451
2809.6	41.8403
2812.12	40.1648
2814.63	42.6797
2817.15	41.2491
2819.66	44.7355
2822.18	39.7478
2824.7	39.853
2827.21	36.273
2829.73	40.4911
2832.24	37.9879
2834.76	39.5469
2837.27	42.7859
2839.79	44.413
2842.3	39.1261
2844.82	39.3657
2847.33	38.2189
2849.85	43.7841
2852.36	41.8894
2854.88	44.3149
2857.39	44.8214
2859.91	46.7223
2862.42	41.7757
2864.94	41.9207
2867.45	44.8075
2869.97	37.7171
2872.48	38.4357
2875	36.8151
2877.52	40.7988
2880.03	46.8475
2882.55	45.4667
2885.06	44.0611
2887.58	44.0102
2890.09	47.8483
2892.61	41.0747
2895.12	38.4857
2897.64	39.5952
2900.15	39.248
2902.67	43.8646
2905.18	45.2971
2907.7	42.8281
2910.21	43.4744
2912.73	45.6998
2915.24	42.6941
2917.76	40.3303
2920.27	41.1252
2922.79	41.788
2925.3	44.6886
2927.82	40.5265
2930.34	39.3248
2932.85	45.5859
2935.37	47.111
2937.88	43.9875
2940.4	48.18
2942.91	45.4804
2945.43	41.093
2947.94	41.8304
2950.46	45.2826
2952.97	44.1551
2955.49	41.1735
2958	40.4245
2960.52	47.9135
2963.03	42.901
2965.55	44.9723
2968.06	45.5826
2970.58	49.6415
2973.09	46.5314
2975.61	47.1821
2978.125	44.7344
2980.64	43.0494
2983.16	44.062
2985.67	42.1051
2988.19	43.5619
2990.7	45.9012
2993.22	44.1986
2995.73	41.7366
2998.25	41.4935
3000.76	47.1882
3003.28	42.7865
3005.79	43.5512
3008.31	43.6342
3010.82	47.0299
3013.34	47.956
3015.85	43.949
3018.37	44.7425
3020.88	44.7556
3023.4	46.1201
3025.91	44.8171
3028.43	47.1738
3030.95	48.0635
3033.46	48.3777
3035.98	48.3056
3038.49	46.3903
3041.01	43.5582
3043.52	45.4123
3046.04	46.4188
3048.55	43.6912
3051.07	42.2408
3053.58	41.8875
3056.1	47.1512
3058.61	46.1571
3061.13	47.5704
3063.64	42.9871
3066.16	44.0838
3068.67	43.9592
3071.19	49.3657
3073.7	44.7532
3076.22	46.8004
3078.73	48.9998
3081.25	44.6738
3083.77	53.1647
3086.28	47.5239
3088.8	44.352
3091.31	47.6664
3093.83	48.6496
3096.34	47.3774
3098.86	50.3085
3101.37	45.9094
3103.89	46.798
3106.4	49.195
3108.92	49.8814
3111.43	48.7244
3113.95	47.1246
3116.46	47.4967
3118.98	49.0118
3121.49	48.4406
3124.01	45.9603
3126.52	50.0952
3129.04	44.0812
3131.55	44.1318
3134.07	47.9597
3136.59	49.6075
3139.1	49.5353
3141.62	54.9638
3144.13	43.5544
3146.65	47.479
3149.16	43.8574
3151.68	43.7899
3154.19	49.9369
3156.71	50.8857
3159.22	46.5668
3161.74	45.7581
3164.25	56.5461
3166.77	47.8702
3169.28	48.5701
3171.8	47.2351
3174.31	49.0964
3176.83	44.0111
3179.34	47.6048
3181.86	42.723
3184.375	44.004
3186.89	47.2459
3189.41	47.2779
3191.92	48.3318
3194.44	48.1935
3196.95	46.5766
3199.47	50.0817
3201.98	48.1736
3204.5	51.184
3207.01	52.3791
3209.53	49.0364
3212.04	52.0496
3214.56	48.6197
3217.07	51.7205
3219.59	53.6083
3222.1	55.839
3224.62	52.5014
3227.13	48.7807
3229.65	50.4411
3232.16	51.1106
3234.68	50.3663
3237.2	54.0679
3239.71	53.1236
3242.23	53.3549
3244.74	48.4941
3247.26	57.6319
3249.77	53.545
3252.29	48.0313
3254.8	50.6509
3257.32	51.241
3259.83	50.4585
3262.35	49.2317
3264.86	50.2899
3267.38	50.0056
3269.89	53.9931
3272.41	52.9939
3274.92	54.9497
3277.44	51.6439
3279.95	53.5695
3282.47	55.6737
3284.98	46.712
3287.5	54.235
3290.02	53.5224
3292.53	51.6983
3295.05	58.5825
3297.56	59.8899
3300.08	53.1095
3302.59	54.0838
3305.11	49.4629
3307.62	53.5114
3310.14	55.3664
3312.65	55.1367
3315.17	51.4106
3317.68	56.9323
3320.2	54.4059
3322.71	53.2228
3325.23	54.6792
3327.74	51.688
3330.26	57.5233
3332.77	49.7519
3335.29	48.6866
3337.8	52.281
3340.32	56.0766
3342.84	58.0401
3345.35	51.0562
3347.87	53.6994
3350.38	52.6958
3352.9	57.8384
3355.41	61.2765
3357.93	57.7676
3360.44	53.481
3362.96	53.3971
3365.47	51.7262
3367.99	53.3899
3370.5	56.7935
3373.02	60.3626
3375.53	58.0166
3378.05	55.777
3380.56	55.8054
3383.08	55.7405
3385.59	56.87
3388.11	57.7127
3390.625	53.509
3393.14	57.8606
3395.66	55.756
3398.17	58.2115
3400.69	52.0638
3403.2	50.7691
3405.72	55.8915
3408.23	54.9428
3410.75	56.1379
3413.26	56.2603
3415.78	51.5785
3418.29	58.534
3420.81	55.4605
3423.32	54.3874
3425.84	53.9158
3428.35	52.2986
3430.87	49.7301
3433.38	56.9784
3435.9	54.3779
3438.41	54.3408
3440.93	57.5736
3443.45	54.723
3445.96	51.9282
3448.48	57.2073
3450.99	54.1299
3453.51	55.8114
3456.02	56.1987
3458.54	53.7204
3461.05	54.7528
3463.57	60.1836
3466.08	54.3076
3468.6	52.1999
3471.11	53.8785
3473.63	62.5783
3476.14	56.6422
3478.66	57.4245
3481.17	57.523
3483.69	61.4195
3486.2	54.2838
3488.72	51.5272
3491.23	60.0911
3493.75	57.4542
3496.27	56.6313
3498.78	56.4447
3501.3	54.5445
3503.81	54.9819
3506.33	55.075
3508.84	59.4453
3511.36	68.0812
3513.87	59.0545
3516.39	55.0928
3518.9	55.5331
3521.42	58.9113
3523.93	53.1268
3526.45	51.4897
3528.96	55.486
3531.48	59.989
3533.99	57.0703
3536.51	60.8791
3539.02	59.5882
3541.54	59.8566
3544.05	52.9574
3546.57	52.2282
3549.09	65.3083
3551.6	55.7402
3554.12	63.665
3556.63	59.9166
3559.15	57.936
3561.66	57.7468
3564.18	55.4429
3566.69	60.7357
3569.21	54.9741
3571.72	53.9423
3574.24	56.6971
3576.75	58.7352
3579.27	58.301
3581.78	56.133
3584.3	58.5706
3586.81	64.3157
3589.33	62.6792
3591.84	61.4205
3594.36	57.884
3596.875	69.3427
3599.39	67.3244
3601.91	62.8109
3604.42	61.4161
3606.94	62.6045
3609.45	55.6762
3611.97	62.6023
3614.48	57.8378
3617	63.893
3619.51	61.1265
3622.03	60.8463
3624.54	56.4766
3627.06	60.8528
3629.57	56.7927
3632.09	59.0473
3634.6	60.8735
3637.12	57.8152
3639.63	59.5519
3642.15	58.8044
3644.66	56.6438
3647.18	66.0773
3649.7	64.073
3652.21	56.523
3654.73	63.4213
3657.24	56.6165
3659.76	67.0227
3662.27	62.3081
3664.79	63.8848
3667.3	58.058
3669.82	67.6343
3672.33	62.0401
3674.85	61.2001
3677.36	58.1551
3679.88	60.1336
3682.39	61.7483
3684.91	65.1401
3687.42	61.2949
3689.94	63.3097
3692.45	61.0758
3694.97	58.9713
3697.48	57.3292
3700	58.3505