File: Example Data/Raman/Kara/12-20-10/Si-Graphene/1 etoh pressed/SG_1.txt
400	127.247
402.515	130.742
405.03	134.394
407.546	144.79
410.061	147.875
412.576	156.489
415.091	166.728
417.607	176.157
420.122	181.948
422.637	177.233
425.152	189.8
427.668	198.267
430.183	199.494
432.698	196.633
435.213	198.588
437.729	211.389
440.244	211.529
442.759	214.279
445.274	220.713
447.79	223.874
450.305	236.441
452.82	250.687
455.335	253.308
457.851	257.15
460.366	271.126
462.881	278.316
465.396	279.855
467.912	286.702
470.427	304.435
472.942	324.854
475.457	331.465
477.973	341.286
480.488	371.196
483.003	399.033
485.518	425.809
488.034	456.035
490.549	485.868
493.064	521.074
495.579	585.685
498.095	677.862
500.61	785.005
503.125	895.858
505.64	1071.21
508.155	1146.27
510.671	1105.36
513.186	965.003
515.701	762.049
518.216	547.168
520.732	415.619
523.247	325.744
525.762	261.777
528.277	216.064
530.793	184.402
533.308	156.57
535.823	156.526
538.338	139.116
540.854	127.504
543.369	125.83
545.884	113.673
548.399	108.89
550.915	107.353
553.43	102.108
555.945	97.657
558.46	97.5099
560.976	97.9122
563.491	89.981
566.006	92.9026
568.521	93.4396
571.037	92.8633
573.552	94.5992
576.067	88.8044
578.582	90.5161
581.098	88.9964
583.613	92.2533
586.128	96.468
588.643	94.581
591.159	101.878
593.674	95.935
596.189	96.7562
598.704	98.1712
601.219	96.6692
603.735	94.5152
606.25	99.3295
608.765	98.6005
611.281	93.6704
613.796	91.2235
616.311	92.6914
618.826	94.1517
621.341	100.308
623.857	92.5838
626.372	94.7348
628.887	91.8262
631.402	83.6886
633.918	90.1319
636.433	94.1293
638.948	94.3058
641.463	90.7841
643.979	90.9428
646.494	94.9525
649.009	94.7423
651.524	94.0745
654.04	92.5163
656.555	89.3455
659.07	85.5038
661.585	85.0274
664.101	91.2164
666.616	85.3635
669.131	81.7745
671.646	85.3079
674.162	84.5303
676.677	80.3079
679.192	82.8
681.707	82.8
684.223	86.5421
686.738	82.6593
689.253	80.5116
691.768	79.7745
694.284	76.0145
696.799	79.8735
699.314	77.4027
701.829	77.8417
704.344	78.3018
706.86	77.6701
709.375	75.8464
711.89	72.2695
714.406	77.3163
716.921	82.7778
719.436	85.977
721.951	87.4519
724.466	87.3715
726.982	84.1729
729.497	80.9713
732.012	85.663
734.527	85.5204
737.043	81.7886
739.558	79.3121
742.073	82.4409
744.588	91.3863
747.104	87.616
749.619	89.3254
752.134	89.5168
754.649	92.1228
757.165	98.0816
759.68	90.5857
762.195	96.1666
764.71	87.3647
767.226	88.0064
769.741	91.4822
772.256	92.3731
774.771	95.0178
777.287	98.4057
779.802	83.585
782.317	87.2903
784.832	90.5123
787.348	90.6915
789.863	94.7305
792.378	102.526
794.893	91.8327
797.409	94.6642
799.924	92.8108
802.439	93.0022
804.954	97.6464
807.469	100.028
809.985	95.0939
812.5	107.512
815.015	105.618
817.531	99.9588
820.046	96.027
822.561	97.3677
825.076	104.404
827.591	92.9827
830.107	94.7396
832.622	100.696
835.137	102.105
837.652	101.443
840.168	102.55
842.683	101.262
845.198	108.089
847.713	111.096
850.229	108.332
852.744	110.464
855.259	113.689
857.774	109.061
860.29	102.385
862.805	106.489
865.32	114.495
867.835	114.458
870.351	110.586
872.866	110.542
875.381	116.731
877.896	120.063
880.412	116.291
882.927	111.028
885.442	112.054
887.957	114.261
890.473	116.526
892.988	121.482
895.503	127.241
898.018	123.461
900.534	127.225
903.049	131.67
905.564	130.758
908.079	131.469
910.594	137.847
913.11	132.114
915.625	130.737
918.14	139.75
920.656	143.928
923.171	140.716
925.686	139.046
928.201	141.849
930.716	136.651
933.232	139.238
935.747	137.621
938.262	130.881
940.777	127.157
943.293	125.962
945.808	124.632
948.323	124.282
950.838	128.948
953.354	118.222
955.869	124.897
958.384	125.041
960.899	114.7
963.415	104.863
965.93	103.765
968.445	98.2095
970.96	98.3827
973.476	89.1929
975.991	89.576
978.506	88.938
981.021	88.7836
983.537	88.8142
986.052	79.3169
988.567	80.1846
991.082	81.7358
993.598	72.9076
996.113	75.069
998.628	77.2526
1001.14	73.8832
1003.66	70.0881
1006.17	65.8194
1008.69	68.6026
1011.2	64.1088
1013.72	64.903
1016.23	63.2668
1018.75	61.5374
1021.27	62.82
1023.78	65.1951
1026.3	66.8995
1028.81	59.7466
1031.33	59
1033.84	63.9725
1036.36	61.327
1038.87	57.7216
1041.39	60.4415
1043.9	63.1113
1046.42	62.5345
1048.93	59.9116
1051.45	62.6825
1053.96	61.4057
1056.48	58.0143
1058.99	58.2947
1061.51	60.7697
1064.02	57.6182
1066.54	55.496
1069.05	59.1762
1071.57	58.5134
1074.09	56.6327
1076.6	52.9379
1079.12	51.9476
1081.63	53.0602
1084.15	51.3421
1086.66	56.8301
1089.18	48.9257
1091.69	45.1662
1094.21	49.2763
1096.72	50.4868
1099.24	46.4598
1101.75	44.2951
1104.27	48.6744
1106.78	49.9216
1109.3	51.3309
1111.81	53.5772
1114.33	52.1316
1116.84	48.0412
1119.36	47.8216
1121.875	48.9824
1124.39	46.7088
1126.91	45.5574
1129.42	48.0188
1131.94	49.6084
1134.45	51.5091
1136.97	49.4919
1139.48	50.1571
1142	50.7735
1144.51	49.6496
1147.03	50.2393
1149.54	50.5954
1152.06	52.7197
1154.57	48.5406
1157.09	50.4532
1159.6	50.2792
1162.12	52.4492
1164.63	53.2243
1167.15	49.5234
1169.66	49.1203
1172.18	55.2393
1174.7	49.5603
1177.21	45.8746
1179.73	47.7892
1182.24	45.2773
1184.76	44.3881
1187.27	46.4154
1189.79	48.8245
1192.3	51.5889
1194.82	46.3685
1197.33	45.8347
1199.85	44.6344
1202.36	45.1228
1204.88	44.7867
1207.39	46.6187
1209.91	49.9074
1212.42	50.682
1214.94	49.5799
1217.45	54.4502
1219.97	47.4886
1222.48	46.1737
1225	54.0808
1227.52	58.2104
1230.03	54.511
1232.55	49.7442
1235.06	49.1789
1237.58	51.8251
1240.09	57.1768
1242.61	58.5576
1245.12	51.4015
1247.64	53.7805
1250.15	52.9422
1252.67	57.5966
1255.18	61.1106
1257.7	58.151
1260.21	54.9002
1262.73	57.628
1265.24	57.021
1267.76	59.8927
1270.27	60.1728
1272.79	58.371
1275.3	57.4038
1277.82	62.0049
1280.34	65.983
1282.85	63.278
1285.37	58.1533
1287.88	59.22
1290.4	62.5234
1292.91	61.2634
1295.43	61.5422
1297.94	62.0537
1300.46	61.1489
1302.97	64.9518
1305.49	69.5947
1308	68.2534
1310.52	64.5581
1313.03	68.1304
1315.55	69.827
1318.06	70.1883
1320.58	66.8803
1323.09	69.6644
1325.61	74.1399
1328.125	75.3322
1330.64	75.1956
1333.16	74.0628
1335.67	72.5962
1338.19	74.7304
1340.7	76.9283
1343.22	71.4836
1345.73	77.1012
1348.25	78.9214
1350.76	80.3711
1353.28	76.5853
1355.79	74.2
1358.31	73.2033
1360.82	73.2974
1363.34	74.368
1365.85	71.9149
1368.37	76.3181
1370.88	77.5902
1373.4	81.2077
1375.91	78.1933
1378.43	69.618
1380.95	69.3732
1383.46	71.8644
1385.98	71.7891
1388.49	70.8722
1391.01	70.0762
1393.52	68.6234
1396.04	72.9368
1398.55	70.3711
1401.07	65.6298
1403.58	68.186
1406.1	64.7917
1408.61	64.5791
1411.13	67.8126
1413.64	67.2023
1416.16	61.637
1418.67	57.5853
1421.19	57.7327
1423.7	58.526
1426.22	68.932
1428.73	60.6996
1431.25	62.8704
1433.77	63.2
1436.28	64.0563
1438.8	61.8817
1441.31	62.0379
1443.83	63.8626
1446.34	65.8418
1448.86	66.7759
1451.37	63.9562
1453.89	65.8681
1456.4	64.7696
1458.92	60.5473
1461.43	67.8487
1463.95	72.3456
1466.46	69.7193
1468.98	68.9158
1471.49	70.1027
1474.01	68.5735
1476.52	64.5015
1479.04	63.9502
1481.55	65.7372
1484.07	59.7694
1486.59	64.3342
1489.1	61.6636
1491.62	67.3801
1494.13	76.5162
1496.65	70.6956
1499.16	67.2003
1501.68	70.4621
1504.19	68.7577
1506.71	67.6568
1509.22	70.9888
1511.74	71.8178
1514.25	71.1457
1516.77	70.9293
1519.28	67.6
1521.8	67.6588
1524.31	70.6203
1526.83	73.5846
1529.34	75.7519
1531.86	75.4774
1534.375	68.834
1536.89	68.3986
1539.41	72.1123
1541.92	73.5136
1544.44	71.5298
1546.95	68.5456
1549.47	71.4332
1551.98	79.1489
1554.5	81.1104
1557.01	80.0065
1559.53	81.6804
1562.04	91.4732
1564.56	92.2064
1567.07	80.993
1569.59	75.4898
1572.1	77.38
1574.62	83.3431
1577.13	87.4698
1579.65	86.2741
1582.16	85.7429
1584.68	88.0322
1587.2	81.535
1589.71	79.512
1592.23	80.6814
1594.74	86.4701
1597.26	81.8522
1599.77	81.9087
1602.29	78.5572
1604.8	80.6124
1607.32	81.1477
1609.83	82.3279
1612.35	82.9814
1614.86	82.6919
1617.38	79.87
1619.89	73.0069
1622.41	68.2538
1624.92	68.276
1627.44	68.0879
1629.95	69.6044
1632.47	67.4915
1634.98	71.8067
1637.5	70.9237
1640.02	62.7777
1642.53	64.3003
1645.05	70.058
1647.56	70.4297
1650.08	69.3623
1652.59	71.7661
1655.11	67.8186
1657.62	65.4137
1660.14	68.2399
1662.65	63.3967
1665.17	67.02
1667.68	69.6367
1670.2	69.3237
1672.71	65.9864
1675.23	65.7842
1677.74	64.4634
1680.26	63.1423
1682.77	68.5592
1685.29	69.6
1687.8	67.2606
1690.32	68.6978
1692.84	65.4539
1695.35	61.2146
1697.87	64.8112
1700.38	65.6468
1702.9	63.8656
1705.41	68.851
1707.93	69.4326
1710.44	65.2701
1712.96	62.6304
1715.47	63.7396
1717.99	64.3201
1720.5	61.8991
1723.02	74.9868
1725.53	69.2272
1728.05	65.7985
1730.56	66.565
1733.08	73.6831
1735.59	75.8928
1738.11	74.0886
1740.625	73.3266
1743.14	71.4135
1745.66	68.7149
1748.17	68.087
1750.69	66.9315
1753.2	63.4699
1755.72	63.5295
1758.23	66.4143
1760.75	64.1992
1763.26	67.0558
1765.78	70.9812
1768.29	70.374
1770.81	74.6634
1773.32	69.7263
1775.84	66.0976
1778.35	73.2501
1780.87	69.9059
1783.38	71.7542
1785.9	76.8217
1788.41	75.891
1790.93	73.0705
1793.45	73.1334
1795.96	69.6069
1798.48	68.8279
1800.99	73.453
1803.51	71.9192
1806.02	69.9547
1808.54	72.3363
1811.05	71.4748
1813.57	71.5333
1816.08	73.5092
1818.6	76.5772
1821.11	71.4109
1823.63	73.0453
1826.14	67.5942
1828.66	73.8275
1831.17	72.3026
1833.69	74.0649
1836.2	77.337
1838.72	69.2859
1841.23	80.9465
1843.75	75.7686
1846.27	74.467
1848.78	78.8595
1851.3	73.4647
1853.81	77.6276
1856.33	77.3826
1858.84	70.5777
1861.36	80.7227
1863.87	83.1888
1866.39	78.76
1868.9	79.6378
1871.42	79.6429
1873.93	78.6693
1876.45	80.1642
1878.96	81.4936
1881.48	80.369
1883.99	79.6457
1886.51	82.32
1889.02	85.9867
1891.54	83.3479
1894.05	79.7818
1896.57	76.9726
1899.09	76.3283
1901.6	80.046
1904.12	82.5485
1906.63	86.587
1909.15	77.4777
1911.66	82.7211
1914.18	85.096
1916.69	78.6979
1919.21	83.9649
1921.72	83.7265
1924.24	77.5086
1926.75	83.1184
1929.27	83.9656
1931.78	85.6395
1934.3	82.2011
1936.81	79.9425
1939.33	82.6327
1941.84	83.6014
1944.36	82.2484
1946.875	81.846
1949.39	84.7177
1951.91	81.723
1954.42	84.3065
1956.94	87.1014
1959.45	85.1982
1961.97	83.4143
1964.48	86.5256
1967	86.8222
1969.51	78.4819
1972.03	82.5567
1974.54	86.379
1977.06	81.9924
1979.57	81.7302
1982.09	81.6334
1984.6	82.2876
1987.12	86.4263
1989.63	88.3413
1992.15	87.4503
1994.66	79.1941
1997.18	87.4337
1999.7	85.5536
2002.21	91.4064
2004.73	88.5885
2007.24	91.2197
2009.76	91.8956
2012.27	85.0373
2014.79	93.1927
2017.3	88.2291
2019.82	92.0083
2022.33	92.216
2024.85	92.8604
2027.36	97.7858
2029.88	94.8504
2032.39	85.1046
2034.91	97.6126
2037.42	98.954
2039.94	96.2109
2042.45	93.6153
2044.97	93.943
2047.48	94
2050	93.2947
2052.52	94.5924
2055.03	89.6445
2057.55	96.9464
2060.06	89.6826
2062.58	99.7594
2065.09	101.218
2067.61	99.3824
2070.12	102.84
2072.64	98.8936
2075.15	97.2869
2077.67	92.2439
2080.18	93.4075
2082.7	99.6673
2085.21	96.8886
2087.73	94.6547
2090.24	92.3245
2092.76	101.378
2095.27	99.2669
2097.79	96.2933
2100.3	98.6491
2102.82	97.622
2105.34	99.1404
2107.85	102.47
2110.37	101.77
2112.88	99.6011
2115.4	98.8747
2117.91	102.03
2120.43	99.6928
2122.94	100.739
2125.46	101.662
2127.97	101.62
2130.49	105.67
2133	108.347
2135.52	104.124
2138.03	100.057
2140.55	105.088
2143.06	100.925
2145.58	101.795
2148.09	107.85
2150.61	109.234
2153.125	108.415
2155.64	107.924
2158.16	110.95
2160.67	112.762
2163.19	109.934
2165.7	109.738
2168.22	110.544
2170.73	109.516
2173.25	110.234
2175.76	108.768
2178.28	107.778
2180.79	108.962
2183.31	108.453
2185.82	110.972
2188.34	106.308
2190.85	109.122
2193.37	114.043
2195.88	111.334
2198.4	112.49
2200.91	112.997
2203.43	104.678
2205.95	114.264
2208.46	116.693
2210.98	117.804
2213.49	111.992
2216.01	115.467
2218.52	110.094
2221.04	116.006
2223.55	118.791
2226.07	110.216
2228.58	111.741
2231.1	117.349
2233.61	118.605
2236.13	114.316
2238.64	113.223
2241.16	116.084
2243.67	118.946
2246.19	120.355
2248.7	123.636
2251.22	123.179
2253.73	121.992
2256.25	118.495
2258.77	124.166
2261.28	125.273
2263.8	125.656
2266.31	125.418
2268.83	127.165
2271.34	126.257
2273.86	128.626
2276.37	122.416
2278.89	128.043
2281.4	126.292
2283.92	127.472
2286.43	126.89
2288.95	125.805
2291.46	129.98
2293.98	131.308
2296.49	136.941
2299.01	138.134
2301.52	135.929
2304.04	128.867
2306.55	131.447
2309.07	136.012
2311.59	138.527
2314.1	136.097
2316.62	136.609
2319.13	137.81
2321.65	132.001
2324.16	134.518
2326.68	134.319
2329.19	138.879
2331.71	147.201
2334.22	146.205
2336.74	142.543
2339.25	140.379
2341.77	140.163
2344.28	141.043
2346.8	138.486
2349.31	143.303
2351.83	141.971
2354.34	137.863
2356.86	144.199
2359.375	145.619
2361.89	145.805
2364.41	142.844
2366.92	135.321
2369.44	147.171
2371.95	147.239
2374.47	134.552
2376.98	141.603
2379.5	153.835
2382.01	139.825
2384.53	147.271
2387.04	147.041
2389.56	149.225
2392.07	149.885
2394.59	145.352
2397.1	149.942
2399.62	153.954
2402.13	154.44
2404.65	151.603
2407.16	152.02
2409.68	155.845
2412.2	160.051
2414.71	160.404
2417.23	161.281
2419.74	158.839
2422.26	156.36
2424.77	159.997
2427.29	169.227
2429.8	168.919
2432.32	170.152
2434.83	168.662
2437.35	184.47
2439.86	189.428
2442.38	187.701
2444.89	184.934
2447.41	177.45
2449.92	182.287
2452.44	166.229
2454.95	166.328
2457.47	170.699
2459.98	163.828
2462.5	163.787
2465.02	172.025
2467.53	175.25
2470.05	174.645
2472.56	169.134
2475.08	163.586
2477.59	165.131
2480.11	165.331
2482.62	168.72
2485.14	174.786
2487.65	176.4
2490.17	170.48
2492.68	168.038
2495.2	169.455
2497.71	166.961
2500.23	173.299
2502.74	173.768
2505.26	176.827
2507.77	173.777
2510.29	180.276
2512.8	172.154
2515.32	173.639
2517.84	175.017
2520.35	176.53
2522.87	173.982
2525.38	178.891
2527.9	177.509
2530.41	173.15
2532.93	183.003
2535.44	184.027
2537.96	182.305
2540.47	180.781
2542.99	186.758
2545.5	192.334
2548.02	184.648
2550.53	183.009
2553.05	187.262
2555.56	184.095
2558.08	184.875
2560.59	188.371
2563.11	186.448
2565.625	191.663
2568.14	187.133
2570.66	184.1
2573.17	187.294
2575.69	189.406
2578.2	186.106
2580.72	193.052
2583.23	189.491
2585.75	187.754
2588.26	189.423
2590.78	193.492
2593.29	194.161
2595.81	196.251
2598.32	190.263
2600.84	186.709
2603.35	191.816
2605.87	195.267
2608.38	189.15
2610.9	187.705
2613.41	194.278
2615.93	194.607
2618.45	192.474
2620.96	190.483
2623.48	192.742
2625.99	195.337
2628.51	197.583
2631.02	196.251
2633.54	198.321
2636.05	201.626
2638.57	197.485
2641.08	196.145
2643.6	203.397
2646.11	199.312
2648.63	201.241
2651.14	199.327
2653.66	209.521
2656.17	204.872
2658.69	207.22
2661.2	204.626
2663.72	200.921
2666.23	206.6
2668.75	207.008
2671.27	213.133
2673.78	212.394
2676.3	212.77
2678.81	210.166
2681.33	212.701
2683.84	212.245
2686.36	212.55
2688.87	211.866
2691.39	206.324
2693.9	216.57
2696.42	218.635
2698.93	210.485
2701.45	210.917
2703.96	212.004
2706.48	217.613
2708.99	211.077
2711.51	217.441
2714.02	226.425
2716.54	223.21
2719.05	221.994
2721.57	225.435
2724.09	218.499
2726.6	212.26
2729.12	215.154
2731.63	218.948
2734.15	218.299
2736.66	220.814
2739.18	222.681
2741.69	225.3
2744.21	225.326
2746.72	229.67
2749.24	221.629
2751.75	222.236
2754.27	226.644
2756.78	228.775
2759.3	226.845
2761.81	230.34
2764.33	230.026
2766.84	232.119
2769.36	227.765
2771.875	226.163
2774.39	233.038
2776.91	235.49
2779.42	231.625
2781.94	236.51
2784.45	232.499
2786.97	235.411
2789.48	234.56
2792	233.597
2794.51	227.463
2797.03	235.1
2799.54	239.877
2802.06	239.878
2804.57	243.399
2807.09	234.644
2809.6	234.216
2812.12	238.258
2814.63	240.508
2817.15	246.51
2819.66	251.535
2822.18	243.164
2824.7	242.449
2827.21	241.757
2829.73	240.713
2832.24	240.818
2834.76	253.397
2837.27	252.415
2839.79	247.335
2842.3	251.684
2844.82	245.564
2847.33	249.701
2849.85	255.621
2852.36	254.993
2854.88	255.423
2857.39	250.399
2859.91	246.67
2862.42	258.181
2864.94	258.354
2867.45	256.233
2869.97	259.589
2872.48	261.876
2875	252.444
2877.52	254.411
2880.03	271.963
2882.55	267.897
2885.06	260.243
2887.58	268.874
2890.09	270.695
2892.61	271.662
2895.12	267.151
2897.64	261.259
2900.15	264.662
2902.67	267.252
2905.18	271.413
2907.7	276.85
2910.21	268.354
2912.73	273.967
2915.24	273.867
2917.76	274.908
2920.27	276.527
2922.79	272.256
2925.3	275.059
2927.82	275.67
2930.34	281.434
2932.85	274.333
2935.37	281.981
2937.88	290.867
2940.4	288.702
2942.91	282.904
2945.43	291.543
2947.94	277.899
2950.46	285.956
2952.97	288.686
2955.49	288.251
2958	290.861
2960.52	287.527
2963.03	279.772
2965.55	289.43
2968.06	296.867
2970.58	293.173
2973.09	295.653
2975.61	296.038
2978.125	287.387
2980.64	287.983
2983.16	295.983
2985.67	283.848
2988.19	290.93
2990.7	295.913
2993.22	281.495
2995.73	295.805
2998.25	299.13
3000.76	297.468
3003.28	288.082
3005.79	295.271
3008.31	296.883
3010.82	298.008
3013.34	297.772
3015.85	288.599
3018.37	289.697
3020.88	295.876
3023.4	300.697
3025.91	305.545
3028.43	298.725
3030.95	304.47
3033.46	302.085
3035.98	307.337
3038.49	311.817
3041.01	310.796
3043.52	309.219
3046.04	311.758
3048.55	312.809
3051.07	309.86
3053.58	305.607
3056.1	305.674
3058.61	300.781
3061.13	305.789
3063.64	320.624
3066.16	308.501
3068.67	316.434
3071.19	318.85
3073.7	324.607
3076.22	328.993
3078.73	316.532
3081.25	308.411
3083.77	317.96
3086.28	326.795
3088.8	325.411
3091.31	327.439
3093.83	324.629
3096.34	320.855
3098.86	320.166
3101.37	327.272
3103.89	330.41
3106.4	330.532
3108.92	331.25
3111.43	335.861
3113.95	342.875
3116.46	336.486
3118.98	330.001
3121.49	348.338
3124.01	349.13
3126.52	338.843
3129.04	325.028
3131.55	331.356
3134.07	332.678
3136.59	344.849
3139.1	346.22
3141.62	339.93
3144.13	339.742
3146.65	348.4
3149.16	345.558
3151.68	340.679
3154.19	344.355
3156.71	351.065
3159.22	349.653
3161.74	343.314
3164.25	352.79
3166.77	358.066
3169.28	353.316
3171.8	364.727
3174.31	361.941
3176.83	363.208
3179.34	350.063
3181.86	349.825
3184.375	358.643
3186.89	363.224
3189.41	360.538
3191.92	358.203
3194.44	358.053
3196.95	351.497
3199.47	368.372
3201.98	369.858
3204.5	368.173
3207.01	371.177
3209.53	367.101
3212.04	384.92
3214.56	381.455
3217.07	371.995
3219.59	371.94
3222.1	383.788
3224.62	387.176
3227.13	386.805
3229.65	397.857
3232.16	385.353
3234.68	391.053
3237.2	386.196
3239.71	401.269
3242.23	398.02
3244.74	395.718
3247.26	393.059
3249.77	400.031
3252.29	393.281
3254.8	394.271
3257.32	392.33
3259.83	393.357
3262.35	397.347
3264.86	393.038
3267.38	400.325
3269.89	415.39
3272.41	397.212
3274.92	403.676
3277.44	411.568
3279.95	404.232
3282.47	405.599
3284.98	400.889
3287.5	403.643
3290.02	413.266
3292.53	414.664
3295.05	405.845
3297.56	419.853
3300.08	412.702
3302.59	415.333
3305.11	412.916
3307.62	425.241
3310.14	426.837
3312.65	412.384
3315.17	415.951
3317.68	415.629
3320.2	422.863
3322.71	416.998
3325.23	431.304
3327.74	426.455
3330.26	432.183
3332.77	439.656
3335.29	426.792
3337.8	431.006
3340.32	436.361
3342.84	435.441
3345.35	429.316
3347.87	437.525
3350.38	448.004
3352.9	437.664
3355.41	430.252
3357.93	429.592
3360.44	443.173
3362.96	443.012
3365.47	443.885
3367.99	441.257
3370.5	449.794
3373.02	455.582
3375.53	442.664
3378.05	443.445
3380.56	447.195
3383.08	445.028
3385.59	449.745
3388.11	430.505
3390.625	446.183
3393.14	466.347
3395.66	459.355
3398.17	462.753
3400.69	452.188
3403.2	478.905
3405.72	460.536
3408.23	464.698
3410.75	475.692
3413.26	465.236
3415.78	464.234
3418.29	467.817
3420.81	465.738
3423.32	461.661
3425.84	472.714
3428.35	480.014
3430.87	484.293
3433.38	486.637
3435.9	483.064
3438.41	484.259
3440.93	489.75
3443.45	501.453
3445.96	488.069
3448.48	485.229
3450.99	488.812
3453.51	489.298
3456.02	486.917
3458.54	488.263
3461.05	489.661
3463.57	500.833
3466.08	504.189
3468.6	501.059
3471.11	492.434
3473.63	496.542
3476.14	500.53
3478.66	497.262
3481.17	508.071
3483.69	501.159
3486.2	521.008
3488.72	513.965
3491.23	515.118
3493.75	507.244
3496.27	512.366
3498.78	509.724
3501.3	517.2
3503.81	518.879
3506.33	523.512
3508.84	524.049
3511.36	511.355
3513.87	527.559
3516.39	517.226
3518.9	520.751
3521.42	518.352
3523.93	523.879
3526.45	523.656
3528.96	526.835
3531.48	530.733
3533.99	526.955
3536.51	541.323
3539.02	520.577
3541.54	535.585
3544.05	531.174
3546.57	534.448
3549.09	533.954
3551.6	530.125
3554.12	550.657
3556.63	552.913
3559.15	551.312
3561.66	546.648
3564.18	552.925
3566.69	560.263
3569.21	550.51
3571.72	540.928
3574.24	567.677
3576.75	547.245
3579.27	568.189
3581.78	571.549
3584.3	561.395
3586.81	579.73
3589.33	559.477
3591.84	569.595
3594.36	568.057
3596.875	570.228
3599.39	566.936
3601.91	571.269
3604.42	585.468
3606.94	577.782
3609.45	570.448
3611.97	589.092
3614.48	581.022
3617	594.527
3619.51	594.115
3622.03	585.793
3624.54	596.966
3627.06	596.734
3629.57	590.448
3632.09	599.86
3634.6	591.985
3637.12	598.827
3639.63	592.448
3642.15	590.503
3644.66	606.343
3647.18	611.234
3649.7	589.445
3652.21	615.491
3654.73	617.492
3657.24	608.07
3659.76	623.489
3662.27	606.652
3664.79	600.553
3667.3	603.846
3669.82	609.688
3672.33	613.87
3674.85	617.136
3677.36	617.215
3679.88	625.807
3682.39	618.417
3684.91	607.974
3687.42	620.643
3689.94	632.852
3692.45	634.115
3694.97	623.361
3697.48	633.532
3700	631.36