File: Example Data/Raman/CNT - TIM/Raytheon/Al foil/2010/01-04-10/Al - B23 - top_3.txt
200	129.787
201.307	137.992
202.613	132.463
203.92	130.412
205.227	137.57
206.534	133.42
207.84	138.389
209.147	142.305
210.454	143.807
211.761	144.395
213.067	145.361
214.374	136.874
215.681	129.026
216.988	137.145
218.294	144.292
219.601	144.025
220.908	148.318
222.215	141.597
223.521	136.909
224.828	135.975
226.135	137.094
227.442	140.39
228.748	144.932
230.055	140.948
231.362	137.586
232.669	139.365
233.975	139.586
235.282	136.805
236.589	135.159
237.895	135.917
239.202	138.374
240.509	142.042
241.816	135.539
243.122	138.149
244.429	133.464
245.736	129.232
247.043	134.251
248.349	139.37
249.656	137.384
250.963	131.85
252.27	129.475
253.576	149.149
254.883	140.045
256.19	132.605
257.497	127.421
258.803	131.598
260.11	130.714
261.417	124.776
262.724	128.297
264.03	126.238
265.337	133.746
266.644	126.719
267.95	131.626
269.257	126.127
270.564	124.386
271.871	125.283
273.177	121.939
274.484	119.45
275.791	125.12
277.098	128.185
278.404	123.666
279.711	120.842
281.018	123.368
282.325	118.372
283.631	114.248
284.938	117.051
286.245	118.305
287.552	118.365
288.858	115.647
290.165	118.645
291.472	118.638
292.779	116.659
294.085	118.312
295.392	119.28
296.699	117.092
298.005	114.531
299.312	110.355
300.619	105.439
301.926	103.388
303.232	115.649
304.539	116.425
305.846	116.882
307.153	115.865
308.459	110.341
309.766	108.266
311.073	115.171
312.38	100.862
313.686	116.674
314.993	123.342
316.3	115.905
317.607	102.41
318.913	104.065
320.22	108.598
321.527	104.488
322.834	104.772
324.14	105.102
325.447	116.703
326.754	90.8516
328.061	103.387
329.367	111.526
330.674	114.058
331.981	102.194
333.287	91.4648
334.594	99.0259
335.901	101.93
337.208	106.284
338.514	92.1137
339.821	99.5333
341.128	103.317
342.435	93.4953
343.741	90.0456
345.048	93.7566
346.355	94.797
347.662	94.2173
348.968	97.4542
350.275	100.005
351.582	96.145
352.889	93.0943
354.195	81.6449
355.502	85.621
356.809	87.5725
358.116	83.8551
359.422	83.8146
360.729	87.8727
362.036	101.379
363.342	100.888
364.649	76.8532
365.956	72.2595
367.263	80.7983
368.569	88.137
369.876	92.8989
371.183	87.1865
372.49	78.2079
373.796	84.1565
375.103	73.1363
376.41	71.9698
377.717	82.4538
379.023	76.8537
380.33	82.2461
381.637	90.3923
382.944	84.8651
384.25	74.555
385.557	76.6747
386.864	86.6877
388.171	86.0126
389.477	70.7332
390.784	64.6024
392.091	75.5566
393.398	73.6965
394.704	69.7152
396.011	75.7734
397.318	74.7875
398.624	68.8478
399.931	81.6789
401.238	90.5914
402.545	74.087
403.851	79.0216
405.158	61.3296
406.465	65.1258
407.772	72.201
409.078	72.4449
410.385	67.3984
411.692	68.0825
412.999	78.5135
414.305	81.6134
415.612	62.5854
416.919	66.6153
418.226	63.7409
419.532	68.129
420.839	62.4546
422.146	68.9476
423.453	72.7896
424.759	67.3207
426.066	65.0943
427.373	69.7544
428.68	67.9719
429.986	64.0993
431.293	60.6609
432.6	61.7321
433.906	68.426
435.213	67.1586
436.52	67.8981
437.827	62.7974
439.133	56.2374
440.44	53.4467
441.747	50.7908
443.054	68.3741
444.36	52.2746
445.667	58.3689
446.974	53.671
448.281	52.5214
449.587	55.9102
450.894	58.4902
452.201	51.9804
453.508	44.6922
454.814	45.9387
456.121	45.3604
457.428	38.5207
458.735	46.7883
460.041	58.354
461.348	52.6753
462.655	52.6663
463.961	54.6654
465.268	41.1499
466.575	33.994
467.882	43.5997
469.188	53.234
470.495	51.2032
471.802	43.4904
473.109	44.6549
474.415	39.1458
475.722	43.4744
477.029	32.0852
478.336	30.3748
479.642	34.8337
480.949	28.975
482.256	25.1466
483.563	36.4597
484.869	46.1761
486.176	35.6697
487.483	19.5631
488.79	29.9796
490.096	26.7446
491.403	31.6046
492.71	19.7829
494.017	9.90672
495.323	15.2052
496.63	16.51
497.937	15.1837
499.243	20.2855
500.55	16.851
501.857	8.72068
503.164	11.3353
504.47	19.0826
505.777	12.1044
507.084	7.5655
508.391	9.19393
509.697	12.2022
511.004	8.88967
512.311	-2.72402
513.618	-2.52456
514.924	5.7199
516.231	-4.51779
517.538	8.43964
518.845	1.19012
520.151	6.65752
521.458	2.33064
522.765	-3.70275
524.072	-1.05698
525.378	2.34773
526.685	0.0163335
527.992	0.938452
529.298	3.6138
530.605	3.35021
531.912	4.14803
533.219	-3.03938
534.525	3.99551
535.832	5.10695
537.139	-1.96697
538.446	-4.77779
539.752	-6.17832
541.059	-5.69519
542.366	-3.26034
543.673	4.75388
544.979	11.4304
546.286	5.711
547.593	-1.00058
548.9	11.4626
550.206	9.65845
551.513	4.79325
552.82	-6.52364
554.127	9.4563
555.433	15.7893
556.74	2.62554
558.047	-3.01079
559.354	-2.90738
560.66	-6.20984
561.967	-2.29592
563.274	7.94531
564.58	1.4452
565.887	-10.4238
567.194	-0.329417
568.501	1.53386
569.807	6.10993
571.114	-0.32048
572.421	11.5701
573.728	10.6093
575.034	7.49682
576.341	5.19404
577.648	1.29119
578.955	8.66156
580.261	17.2572
581.568	5.92595
582.875	11.0422
584.182	13.2365
585.488	12.5844
586.795	0.0538588
588.102	4.67906
589.409	6.17376
590.715	1.21862
592.022	4.71615
593.329	3.14566
594.635	-6.75383
595.942	-3.3179
597.249	4.87163
598.556	1.18298
599.862	10.5249
601.169	1.18873
602.476	2.38389
603.783	7.44849
605.089	0.526555
606.396	10.7404
607.703	2.90509
609.01	7.13855
610.316	-1.34494
611.623	-1.24881
612.93	-1.03556
614.237	-2.96137
615.543	3.73888
616.85	6.32046
618.157	3.85942
619.464	8.27016
620.77	11.533
622.077	15.447
623.384	9.23305
624.69	12.0707
625.997	17.7051
627.304	14.6595
628.611	10.5732
629.917	19.4089
631.224	21.6038
632.531	10.7062
633.838	5.14688
635.144	10.6389
636.451	16.1571
637.758	14.3774
639.065	13.7913
640.371	18.7889
641.678	8.04593
642.985	10.9644
644.292	11.4005
645.598	9.68672
646.905	17.0568
648.212	15.296
649.519	17.0675
650.825	24.8173
652.132	17.8973
653.439	5.40285
654.746	8.90156
656.052	6.23552
657.359	14.3479
658.666	19.4847
659.972	7.01719
661.279	8.84971
662.586	24.3155
663.893	12.1455
665.199	12.2305
666.506	14.5215
667.813	9.48185
669.12	10.0199
670.426	9.31674
671.733	5.72304
673.04	8.29645
674.347	8.90297
675.653	3.26431
676.96	5.56043
678.267	3.26636
679.574	16.3903
680.88	19.8692
682.187	16.5061
683.494	10.8372
684.801	16.5435
686.107	6.5769
687.414	4.35722
688.721	8.65127
690.028	12.8712
691.334	8.54185
692.641	4.03423
693.948	8.08225
695.254	7.98194
696.561	5.69756
697.868	7.60275
699.175	-0.883487
700.481	10.4452
701.788	-1.08645
703.095	13.6106
704.402	16.3787
705.708	10.1914
707.015	5.97113
708.322	3.66704
709.629	10.2723
710.935	1.57289
712.242	0.422069
713.549	6.45581
714.856	4.74575
716.162	8.50315
717.469	7.84206
718.776	6.21363
720.083	7.19829
721.389	19.4677
722.696	11.7856
724.003	15.5233
725.31	5.80005
726.616	14.6513
727.923	6.14062
729.23	-2.03016
730.536	20.8629
731.843	12.943
733.15	7.84197
734.457	16.463
735.763	13.1738
737.07	13.414
738.377	29.3696
739.684	30.7099
740.99	22.0481
742.297	32.849
743.604	18.4455
744.911	13.164
746.217	17.3611
747.524	17.5664
748.831	25.8284
750.138	20.8852
751.444	28.7693
752.751	24.0793
754.058	18.3808
755.365	13.7837
756.671	11.4372
757.978	19.9437
759.285	20.3711
760.591	16.4075
761.898	21.942
763.205	15.3093
764.512	10.6668
765.818	15.0521
767.125	18.831
768.432	9.64621
769.739	42.786
771.045	22.3896
772.352	23.1611
773.659	31.3529
774.966	22.7169
776.272	22.7892
777.579	9.98031
778.886	6.19289
780.193	8.83855
781.499	17.172
782.806	23.2866
784.113	26.555
785.42	29.03
786.726	30.3482
788.033	32.5256
789.34	30.1762
790.646	30.7106
791.953	31.4602
793.26	27.8993
794.567	24.0736
795.873	35.1033
797.18	30.0859
798.487	17.4534
799.794	34.2867
801.1	39.5232
802.407	32.4969
803.714	36.2934
805.021	32.0417
806.327	18.3919
807.634	36.5768
808.941	40.6384
810.248	35.6237
811.554	41.9186
812.861	39.7506
814.168	38.3488
815.475	36.4257
816.781	31.453
818.088	41.5041
819.395	35.694
820.702	34.0888
822.008	31.4895
823.315	29.8748
824.622	40.3433
825.928	27.4756
827.235	32.7333
828.542	26.5343
829.849	39.7678
831.155	34.3984
832.462	51.2515
833.769	44.7539
835.076	37.1914
836.382	35.917
837.689	27.5919
838.996	33.5914
840.303	44.4003
841.609	32.8302
842.916	31.7517
844.223	48.9665
845.53	40.2362
846.836	38.0669
848.143	31.7401
849.45	32.4564
850.757	45.6679
852.063	49.8512
853.37	59.4776
854.677	60.6488
855.984	38.6967
857.29	41.1427
858.597	45.2137
859.904	43.7915
861.21	51.3778
862.517	46.2922
863.824	47.788
865.131	45.8187
866.437	33.352
867.744	29.2072
869.051	31.391
870.358	31.7222
871.664	32.0471
872.971	27.8033
874.278	26.4405
875.585	24.0871
876.891	6.93597
878.198	24.0492
879.505	30.7412
880.812	15.6635
882.118	25.6264
883.425	28.581
884.732	26.8031
886.039	33.9902
887.345	22.6555
888.652	24.374
889.959	19.204
891.266	22.6093
892.572	17.4902
893.879	25.3801
895.186	17.4676
896.492	7.22316
897.799	12.6722
899.106	14.6241
900.413	20.7127
901.719	21.7507
903.026	12.5768
904.333	7.55219
905.64	11.1213
906.946	12.1429
908.253	10.9665
909.56	11.3467
910.867	8.96208
912.173	14.716
913.48	20.8236
914.787	13.7229
916.094	14.7609
917.4	10.3793
918.707	15.8699
920.014	11.271
921.32	-0.834881
922.627	-6.19763
923.934	0.554046
925.241	12.6272
926.547	22.3567
927.854	4.84863
929.161	10.7827
930.468	3.69321
931.774	8.59597
933.081	5.82261
934.388	3.82733
935.695	-1.45851
937.001	-1.59683
938.308	-5.49794
939.615	2.74953
940.922	9.18882
942.228	8.62968
943.535	9.9286
944.842	9.38417
946.149	9.20445
947.455	11.1149
948.762	4.76399
950.069	-1.79723
951.375	-0.0602008
952.682	-1.99224
953.989	4.12089
955.296	3.74037
956.602	-7.36141
957.909	-5.82128
959.216	-5.83874
960.523	-3.51851
961.829	-0.39907
963.136	7.81907
964.443	-0.0763464
965.75	-19.4822
967.056	1.52146
968.363	0.478188
969.67	-5.60745
970.977	-21.1115
972.283	-2.72692
973.59	-13.5854
974.897	-6.82794
976.204	6.36204
977.51	-4.5295
978.817	-8.22659
980.124	-4.64266
981.431	-0.929927
982.737	-7.06176
984.044	-18.3994
985.351	-5.96221
986.657	-10.5703
987.964	-18.2599
989.271	-18.272
990.578	-4.58142
991.884	-2.12964
993.191	-4.1217
994.498	-5.64868
995.805	-19.64
997.111	-17.3438
998.418	-7.58786
999.725	-0.08972
1001.03	9.7431
1002.34	-0.46408
1003.65	5.40921
1004.95	-4.24518
1006.26	-4.65366
1007.57	13.5418
1008.87	-0.912537
1010.18	-7.59973
1011.49	4.34767
1012.79	5.37892
1014.1	4.02177
1015.41	5.99262
1016.71	6.03675
1018.02	0.85752
1019.33	-3.59378
1020.63	1.46152
1021.94	0.942591
1023.25	9.11163
1024.55	1.48019
1025.86	0.146723
1027.17	-3.72429
1028.47	-3.96105
1029.78	3.53193
1031.09	4.00163
1032.39	6.34471
1033.7	10.3009
1035.01	-4.61984
1036.31	4.24667
1037.62	15.6441
1038.93	16.4158
1040.23	18.885
1041.54	11.3007
1042.85	8.26857
1044.15	9.60271
1045.46	13.8128
1046.77	18.2638
1048.07	11.4414
1049.38	8.93949
1050.69	16.4353
1051.99	16.5604
1053.3	13.9834
1054.61	5.09297
1055.91	3.58215
1057.22	0.0474708
1058.53	6.67826
1059.83	13.5809
1061.14	14.076
1062.45	14.4045
1063.76	7.5169
1065.06	6.90883
1066.37	16.1996
1067.68	19.9204
1068.98	4.01576
1070.29	-6.58579
1071.6	2.74743
1072.9	-2.63213
1074.21	-13.1854
1075.52	-8.57215
1076.82	4.45878
1078.13	18.8696
1079.44	18.2305
1080.74	7.69657
1082.05	6.83233
1083.36	13.2394
1084.66	2.61472
1085.97	-7.29563
1087.28	-11.8651
1088.58	-1.50988
1089.89	-2.28595
1091.2	3.14842
1092.5	-5.44821
1093.81	0.77999
1095.12	12.5508
1096.42	6.11603
1097.73	18.0486
1099.04	21.6506
1100.34	-0.982299
1101.65	6.42978
1102.96	17.4949
1104.26	14.4724
1105.57	-10.1905
1106.88	-6.24387
1108.18	12.4378
1109.49	22.9204
1110.8	15.5627
1112.1	3.50607
1113.41	2.34546
1114.72	19.2559
1116.02	3.0252
1117.33	26.7794
1118.64	20.9676
1119.94	6.02334
1121.25	31.3422
1122.56	14.7804
1123.87	23.8141
1125.17	32.9655
1126.48	24.3672
1127.79	26.1858
1129.09	20.0992
1130.4	40.0437
1131.71	28.7098
1133.01	29.7622
1134.32	50.9631
1135.63	23.2676
1136.93	46.3291
1138.24	46.978
1139.55	59.0358
1140.85	42.7166
1142.16	65.9023
1143.47	64.8814
1144.77	56.7867
1146.08	77.1923
1147.39	78.8559
1148.69	98.772
1150	63.6623
1151.31	94.4614
1152.61	88.9373
1153.92	99.823
1155.23	78.3018
1156.53	101.015
1157.84	87.8769
1159.15	119.477
1160.45	81.609
1161.76	107.593
1163.07	105.099
1164.37	113.609
1165.68	114.152
1166.99	115.023
1168.29	114.519
1169.6	95.5585
1170.91	136.081
1172.21	126.373
1173.52	135.232
1174.83	115.819
1176.13	89.9558
1177.44	95.9936
1178.75	125.676
1180.06	116.336
1181.36	106.623
1182.67	118.733
1183.98	117.682
1185.28	112.351
1186.59	131.094
1187.9	120.807
1189.2	130.854
1190.51	143.132
1191.82	136.611
1193.12	127.926
1194.43	124.548
1195.74	130.113
1197.04	122.835
1198.35	133.805
1199.66	128.348
1200.96	123.824
1202.27	137.57
1203.58	140.896
1204.88	132.539
1206.19	136.061
1207.5	157.415
1208.8	150.741
1210.11	156.133
1211.42	141.872
1212.72	145.455
1214.03	160.442
1215.34	152.555
1216.64	168.295
1217.95	158.615
1219.26	166.378
1220.56	166.641
1221.87	170.508
1223.18	165.193
1224.48	182.418
1225.79	188.226
1227.1	180.903
1228.4	195.061
1229.71	213.539
1231.02	229.113
1232.32	224.766
1233.63	212.265
1234.94	194.273
1236.24	216.072
1237.55	233.37
1238.86	254.717
1240.17	237.599
1241.47	255.329
1242.78	278.371
1244.09	275.637
1245.39	262.71
1246.7	278.994
1248.01	291.863
1249.31	294.223
1250.62	306.417
1251.93	319.338
1253.23	319.247
1254.54	331.961
1255.85	357.867
1257.15	367.912
1258.46	364.842
1259.77	371.157
1261.07	388.409
1262.38	392.428
1263.69	419.528
1264.99	434.236
1266.3	446.018
1267.61	465.371
1268.91	477.499
1270.22	485.07
1271.53	497.394
1272.83	514.145
1274.14	516.936
1275.45	529.165
1276.75	561.549
1278.06	580.664
1279.37	579.656
1280.67	599.203
1281.98	633.73
1283.29	618.133
1284.59	636.975
1285.9	680.839
1287.21	714.961
1288.51	724.954
1289.82	746.848
1291.13	757.286
1292.43	783.108
1293.74	801.827
1295.05	823.907
1296.35	836.287
1297.66	864.31
1298.97	896.09
1300.28	924.94
1301.58	961.304
1302.89	982.041
1304.2	1012.54
1305.5	1043.62
1306.81	1061.83
1308.12	1090.1
1309.42	1115.45
1310.73	1125.52
1312.04	1160.17
1313.34	1207.36
1314.65	1236.34
1315.96	1273.72
1317.26	1302.1
1318.57	1318.14
1319.88	1358.31
1321.18	1379.61
1322.49	1393.11
1323.8	1439.76
1325.1	1478.61
1326.41	1502.29
1327.72	1516.89
1329.02	1544.5
1330.33	1573.69
1331.64	1617.67
1332.94	1667.62
1334.25	1652.66
1335.56	1647.46
1336.86	1684.46
1338.17	1703.96
1339.48	1724.15
1340.78	1733.02
1342.09	1730.02
1343.4	1737.47
1344.7	1754.32
1346.01	1749.35
1347.32	1762.75
1348.62	1766.36
1349.93	1751.16
1351.24	1728.87
1352.54	1707.14
1353.85	1722.11
1355.16	1693.38
1356.46	1673.07
1357.77	1665.02
1359.08	1648.35
1360.39	1622.86
1361.69	1633.43
1363	1575.33
1364.31	1547.55
1365.61	1532.55
1366.92	1519.07
1368.23	1456.59
1369.53	1454.06
1370.84	1438.31
1372.15	1374.64
1373.45	1342.6
1374.76	1300.28
1376.07	1285.4
1377.37	1249.3
1378.68	1196.57
1379.99	1166.31
1381.29	1146.71
1382.6	1100.24
1383.91	1042.63
1385.21	1017.58
1386.52	1014.53
1387.83	973.814
1389.13	933.828
1390.44	919.539
1391.75	875.22
1393.05	833.199
1394.36	813.06
1395.67	795.864
1396.97	774.93
1398.28	740.995
1399.59	723.422
1400.89	678.47
1402.2	664.413
1403.51	639.503
1404.81	637.266
1406.12	598.435
1407.43	566.862
1408.73	546.806
1410.04	522.409
1411.35	518.069
1412.65	479.292
1413.96	450.211
1415.27	441.834
1416.57	421.274
1417.88	415.22
1419.19	407.037
1420.5	364.265
1421.8	365.733
1423.11	342.944
1424.42	350.615
1425.72	319.172
1427.03	298.519
1428.34	283.186
1429.64	294.276
1430.95	255.932
1432.26	232.217
1433.56	240.495
1434.87	224.564
1436.18	212.286
1437.48	208.161
1438.79	181.99
1440.1	166.909
1441.4	172.623
1442.71	182.393
1444.02	161.034
1445.32	147.154
1446.63	138.541
1447.94	122.616
1449.24	112.715
1450.55	105.471
1451.86	98.8267
1453.16	112.911
1454.47	94.2651
1455.78	76.0366
1457.08	62.6058
1458.39	63.8626
1459.7	62.3238
1461	72.8402
1462.31	70.3629
1463.62	44.9612
1464.92	51.2965
1466.23	38.5445
1467.54	24.4392
1468.84	31.9446
1470.15	11.7332
1471.46	21.3115
1472.76	17.0348
1474.07	15.2379
1475.38	5.73831
1476.69	-2.29814
1477.99	9.53624
1479.3	6.29178
1480.61	6.94015
1481.91	3.07838
1483.22	8.0097
1484.53	15.3734
1485.83	15.7573
1487.14	18.5506
1488.45	15.5631
1489.75	11.0689
1491.06	6.82491
1492.37	11.9838
1493.67	6.58121
1494.98	-5.08915
1496.29	-3.43041
1497.59	9.69024
1498.9	18.7334
1500.21	25.4998
1501.51	52.7918
1502.82	47.7052
1504.13	23.6273
1505.43	54.0334
1506.74	55.619
1508.05	84.3535
1509.35	86.5612
1510.66	100.317
1511.97	114.109
1513.27	131.881
1514.58	131.72
1515.89	141.026
1517.19	147.773
1518.5	163.235
1519.81	187.55
1521.11	191.141
1522.42	194.544
1523.73	212.296
1525.03	213.074
1526.34	238.602
1527.65	259.789
1528.95	256.887
1530.26	280.966
1531.57	291.675
1532.87	309.942
1534.18	345.204
1535.49	347.904
1536.8	353.794
1538.1	378.901
1539.41	414.142
1540.72	416.33
1542.02	456.794
1543.33	470.031
1544.64	494.463
1545.94	509.374
1547.25	540.437
1548.56	577.433
1549.86	600.111
1551.17	619.407
1552.48	650.968
1553.78	700.28
1555.09	704.698
1556.4	738.063
1557.7	790.665
1559.01	830.959
1560.32	849.639
1561.62	876.711
1562.93	892.53
1564.24	929.913
1565.54	960.598
1566.85	1052.08
1568.16	1055.5
1569.46	1096.34
1570.77	1134.72
1572.08	1155.05
1573.38	1209.58
1574.69	1277.88
1576	1353.88
1577.3	1367.59
1578.61	1437
1579.92	1484.89
1581.22	1536.32
1582.53	1611.47
1583.84	1632.56
1585.14	1652.05
1586.45	1708.62
1587.76	1762.18
1589.06	1774.86
1590.37	1799.63
1591.68	1917.66
1592.98	1933.67
1594.29	1946.55
1595.6	2042.21
1596.91	2068.02
1598.21	2110.91
1599.52	2081.47
1600.83	2114.59
1602.13	2143.6
1603.44	2142.06
1604.75	2150.85
1606.05	2176.43
1607.36	2146.46
1608.67	2115.08
1609.97	2114.68
1611.28	2072.17
1612.59	2039.02
1613.89	2044.21
1615.2	1993.02
1616.51	1899.63
1617.81	1881.21
1619.12	1836.72
1620.43	1803.3
1621.73	1717.55
1623.04	1632.36
1624.35	1606.02
1625.65	1546.87
1626.96	1494.24
1628.27	1406.32
1629.57	1326.57
1630.88	1249.86
1632.19	1193.74
1633.49	1152.9
1634.8	1102.43
1636.11	1026.45
1637.41	957.166
1638.72	922.632
1640.03	895.581
1641.33	840.172
1642.64	809.563
1643.95	731.172
1645.25	730.206
1646.56	664.913
1647.87	636.561
1649.17	579.229
1650.48	560.541
1651.79	523.801
1653.09	486.84
1654.4	453.638
1655.71	423.273
1657.02	389.475
1658.32	354.573
1659.63	334.502
1660.94	321.011
1662.24	280.411
1663.55	247.753
1664.86	240.463
1666.16	239.435
1667.47	222.42
1668.78	188.975
1670.08	142.358
1671.39	149.462
1672.7	140.876
1674	126.771
1675.31	103.009
1676.62	85.1344
1677.92	75.6493
1679.23	70.5759
1680.54	83.482
1681.84	59.8797
1683.15	50.4632
1684.46	26.1601
1685.76	16.2352
1687.07	24.5232
1688.38	14.2685
1689.68	9.86971
1690.99	-7.84623
1692.3	4.20674
1693.6	3.24711
1694.91	-3.81801
1696.22	-6.30981
1697.52	1.23831
1698.83	-1.04199
1700.14	-10.8556
1701.44	-4.1803
1702.75	-3.53987
1704.06	-4.60875
1705.36	-9.96755
1706.67	-4.02694
1707.98	-2.82174
1709.28	9.16529
1710.59	-3.07278
1711.9	9.1221
1713.2	6.82187
1714.51	12.9838
1715.82	14.2725
1717.13	3.68523
1718.43	-0.119416
1719.74	12.2987
1721.05	13.0253
1722.35	18.9921
1723.66	8.68312
1724.97	12.8177
1726.27	14.8545
1727.58	12.8155
1728.89	7.79398
1730.19	6.20191
1731.5	5.3688
1732.81	8.3365
1734.11	11.351
1735.42	5.88119
1736.73	4.73564
1738.03	8.23233
1739.34	18.1256
1740.65	20.8042
1741.95	2.44881
1743.26	4.1356
1744.57	15.6001
1745.87	-0.532175
1747.18	7.28038
1748.49	8.99512
1749.79	9.04906
1751.1	4.15174
1752.41	0.66043
1753.71	6.39217
1755.02	5.15607
1756.33	-1.05906
1757.63	5.5013
1758.94	-1.12347
1760.25	13.3958
1761.55	5.2943
1762.86	-1.23568
1764.17	12.9087
1765.47	-1.98247
1766.78	10.2447
1768.09	6.92031
1769.39	5.70259
1770.7	7.12463
1772.01	13.9323
1773.31	15.2014
1774.62	18.3568
1775.93	9.39002
1777.24	15.3437
1778.54	5.89779
1779.85	19.5041
1781.16	1.6925
1782.46	-2.90205
1783.77	4.71891
1785.08	-0.917002
1786.38	-1.09409
1787.69	2.37592
1789	5.62696
1790.3	3.97969
1791.61	7.80689
1792.92	-7.64549
1794.22	9.48005
1795.53	8.54717
1796.84	11.9715
1798.14	13.6573
1799.45	10.447
1800.76	0.993144
1802.06	-1.3627
1803.37	-6.46868
1804.68	2.58454
1805.98	8.58663
1807.29	-1.2029
1808.6	-1.64553
1809.9	-3.37039
1811.21	5.89603
1812.52	-15.9347
1813.82	13.9247
1815.13	7.97796
1816.44	-1.79457
1817.74	7.71001
1819.05	1.35995
1820.36	13.3268
1821.66	9.21043
1822.97	1.97534
1824.28	8.3127
1825.58	14.1863
1826.89	-1.27039
1828.2	3.34029
1829.5	-1.99471
1830.81	4.55403
1832.12	0.774261
1833.43	-1.25807
1834.73	-7.30472
1836.04	6.16214
1837.35	11.319
1838.65	4.49446
1839.96	1.06659
1841.27	11.0693
1842.57	-6.12413
1843.88	3.88567
1845.19	-0.198074
1846.49	-4.71503
1847.8	11.5613
1849.11	13.8236
1850.41	5.57585
1851.72	2.82646
1853.03	4.7726
1854.33	8.51385
1855.64	-2.12033
1856.95	7.62794
1858.25	-19.7926
1859.56	9.95833
1860.87	5.21573
1862.17	6.72002
1863.48	-0.786713
1864.79	-4.93246
1866.09	-6.37311
1867.4	3.80092
1868.71	11.2323
1870.01	11.1383
1871.32	8.02591
1872.63	-8.14363
1873.93	-0.177994
1875.24	-1.33778
1876.55	4.22099
1877.85	4.84132
1879.16	-13.0226
1880.47	-1.14423
1881.77	4.16771
1883.08	-0.762527
1884.39	-1.47903
1885.69	-10.2745
1887	-6.67026
1888.31	3.89342
1889.61	8.12291
1890.92	4.09796
1892.23	2.63121
1893.54	-5.97188
1894.84	-0.808823
1896.15	5.25505
1897.46	4.62202
1898.76	7.42387
1900.07	6.97821
1901.38	-9.87007
1902.68	-1.35472
1903.99	6.32703
1905.3	0.901291
1906.6	0.442902
1907.91	-6.28668
1909.22	3.50516
1910.52	-5.8019
1911.83	1.13844
1913.14	5.08856
1914.44	-4.52663
1915.75	-6.1357
1917.06	-16.9711
1918.36	-3.97054
1919.67	4.67429
1920.98	15.2446
1922.28	4.39095
1923.59	-2.67177
1924.9	7.40158
1926.2	0.576233
1927.51	3.54698
1928.82	4.76016
1930.12	-5.76077
1931.43	-2.61429
1932.74	-2.4783
1934.04	-6.31854
1935.35	-3.44987
1936.66	-8.50575
1937.96	1.08965
1939.27	-6.29668
1940.58	5.65425
1941.88	-3.17979
1943.19	3.07364
1944.5	1.00764
1945.8	-2.60789
1947.11	-0.527344
1948.42	-11.3175
1949.72	-9.87683
1951.03	-3.18042
1952.34	-3.04767
1953.65	-9.65448
1954.95	2.73158
1956.26	-3.40381
1957.57	4.58118
1958.87	9.61571
1960.18	-1.37172
1961.49	-2.25856
1962.79	-6.81947
1964.1	2.71411
1965.41	-9.22865
1966.71	3.0685
1968.02	-0.467209
1969.33	-4.82851
1970.63	0.713623
1971.94	4.10951
1973.25	4.96335
1974.55	-0.126068
1975.86	-0.90036
1977.17	7.18121
1978.47	7.69319
1979.78	13.8196
1981.09	0.231903
1982.39	3.9196
1983.7	-0.698807
1985.01	-4.72247
1986.31	-1.68564
1987.62	-8.59485
1988.93	2.69495
1990.23	2.75098
1991.54	-0.693878
1992.85	-0.388626
1994.15	-1.11147
1995.46	1.67484
1996.77	-4.40662
1998.07	11.6843
1999.38	10.528
2000.69	-11.428
2001.99	11.9014
2003.3	15.577
2004.61	9.76491
2005.91	6.54407
2007.22	8.26065
2008.53	11.3522
2009.83	-1.58096
2011.14	3.63936
2012.45	4.71552
2013.76	-3.2345
2015.06	0.276184
2016.37	7.05443
2017.68	6.36774
2018.98	12.0041
2020.29	11.3607
2021.6	8.35893
2022.9	6.04356
2024.21	13.6091
2025.52	7.61229
2026.82	1.69475
2028.13	4.7227
2029.44	9.34586
2030.74	9.53171
2032.05	1.36267
2033.36	-5.71407
2034.66	13.2279
2035.97	15.9857
2037.28	-5.39583
2038.58	5.89061
2039.89	15.1652
2041.2	16.598
2042.5	12.1553
2043.81	10.6874
2045.12	6.60892
2046.42	11.3406
2047.73	-12.1395
2049.04	4.61491
2050.34	9.50395
2051.65	7.1105
2052.96	13.8387
2054.26	6.33919
2055.57	11.0403
2056.88	10.1558
2058.18	5.46014
2059.49	11.6222
2060.8	8.03453
2062.1	7.21902
2063.41	2.95209
2064.72	9.69806
2066.02	5.90169
2067.33	15.5304
2068.64	2.89569
2069.95	10.4762
2071.25	15.1417
2072.56	14.7711
2073.87	17.0075
2075.17	9.69247
2076.48	14.6474
2077.79	7.00887
2079.09	8.08534
2080.4	3.21272
2081.71	10.7467
2083.01	11.9876
2084.32	14.0043
2085.63	8.64153
2086.93	14.4446
2088.24	14.3997
2089.55	5.4682
2090.85	5.88681
2092.16	20.7642
2093.47	13.2555
2094.77	11.5929
2096.08	18.9073
2097.39	7.37926
2098.69	9.50499
2100	10.3503