File: Example Data/Raman/CNT - TIM/Raytheon/Al foil/2010/01-04-10/Al - B23 -bottom.txt
200	113.551
201.307	117.398
202.613	117.973
203.92	118.123
205.227	118.13
206.534	120.37
207.84	125.782
209.147	129.933
210.454	130.055
211.761	135.143
213.067	134.583
214.374	127.413
215.681	123.564
216.988	128.117
218.294	128.061
219.601	119.419
220.908	129.668
222.215	128.768
223.521	129.041
224.828	132.37
226.135	132.549
227.442	129.653
228.748	131.771
230.055	134.088
231.362	114.826
232.669	116.947
233.975	124.208
235.282	120.972
236.589	126.376
237.895	134.744
239.202	128.506
240.509	121.517
241.816	126.38
243.122	121.479
244.429	117.36
245.736	124.141
247.043	120.7
248.349	123.099
249.656	130.704
250.963	127.154
252.27	130.347
253.576	123.003
254.883	113.009
256.19	115.264
257.497	126.969
258.803	126.743
260.11	120.922
261.417	121.009
262.724	124.479
264.03	126.888
265.337	121.525
266.644	120.504
267.95	121.662
269.257	116.101
270.564	121.966
271.871	125.987
273.177	117.744
274.484	110.187
275.791	105.331
277.098	117.072
278.404	111.485
279.711	106.582
281.018	113.696
282.325	119.186
283.631	119.111
284.938	114.84
286.245	109.607
287.552	114.489
288.858	108.668
290.165	103.285
291.472	110.235
292.779	108.529
294.085	109.096
295.392	107.191
296.699	104.92
298.005	109.583
299.312	106.579
300.619	104.678
301.926	114.015
303.232	101.884
304.539	103.631
305.846	107.394
307.153	103.803
308.459	97.9018
309.766	96.2796
311.073	94.0719
312.38	87.6687
313.686	100.145
314.993	97.8638
316.3	99.0173
317.607	95.0208
318.913	92.7845
320.22	94.9936
321.527	96.0486
322.834	92.3165
324.14	90.7216
325.447	105.023
326.754	96.1836
328.061	93.5755
329.367	89.7964
330.674	85.4314
331.981	85.0758
333.287	84.4719
334.594	81.371
335.901	85.2589
337.208	81.5144
338.514	92.249
339.821	95.0112
341.128	91.7134
342.435	91.305
343.741	85.7624
345.048	89.4249
346.355	92.2794
347.662	74.3178
348.968	83.284
350.275	94.9994
351.582	82.6193
352.889	79.1472
354.195	83.371
355.502	80.7738
356.809	76.4023
358.116	73.9033
359.422	72.0794
360.729	73.6019
362.036	80.6515
363.342	75.9075
364.649	79.6764
365.956	79.6879
367.263	78.6882
368.569	76.7917
369.876	80.2037
371.183	74.0569
372.49	64.9279
373.796	80.4525
375.103	74.1073
376.41	80.8241
377.717	78.3646
379.023	79.4464
380.33	77.8526
381.637	69.9505
382.944	71.3516
384.25	75.8294
385.557	73.2584
386.864	72.985
388.171	72.2806
389.477	63.3005
390.784	60.7918
392.091	61.5372
393.398	58.8784
394.704	63.8985
396.011	69.6433
397.318	64.6062
398.624	60.3835
399.931	71.1232
401.238	72.1552
402.545	67.555
403.851	61.6474
405.158	65.894
406.465	69.3378
407.772	67.4126
409.078	61.8673
410.385	59.0955
411.692	59.5141
412.999	62.9882
414.305	69.4031
415.612	55.0637
416.919	72.2246
418.226	67.119
419.532	62.2589
420.839	61.1652
422.146	60.0733
423.453	57.3032
424.759	58.6988
426.066	59.2246
427.373	53.6373
428.68	60.4274
429.986	45.0332
431.293	55.8789
432.6	58.1426
433.906	61.8501
435.213	50.5633
436.52	46.4833
437.827	52.2237
439.133	49.4399
440.44	44.2804
441.747	56.3351
443.054	50.119
444.36	49.6424
445.667	56.2047
446.974	49.4354
448.281	55.6602
449.587	42.1249
450.894	42.9368
452.201	45.7899
453.508	42.0432
454.814	40.8918
456.121	37.9362
457.428	43.0615
458.735	60.0455
460.041	49.7797
461.348	47.6031
462.655	48.2702
463.961	36.601
465.268	39.0799
466.575	44.2487
467.882	39.9181
469.188	32.5529
470.495	27.4576
471.802	27.8679
473.109	39.7202
474.415	32.6294
475.722	23.9967
477.029	36.5619
478.336	30.1205
479.642	28.0271
480.949	29.3279
482.256	37.2633
483.563	42.8446
484.869	31.4526
486.176	23.6409
487.483	19.2177
488.79	20.5493
490.096	18.0128
491.403	30.4256
492.71	17.1637
494.017	10.8847
495.323	18.0184
496.63	17.8137
497.937	12.8372
499.243	17.1398
500.55	20.0413
501.857	13.4266
503.164	23.1681
504.47	6.42766
505.777	7.0989
507.084	4.58392
508.391	5.74292
509.697	2.25516
511.004	1.97052
512.311	7.97671
513.618	10.024
514.924	5.4103
516.231	5.48207
517.538	7.84139
518.845	12.8931
520.151	11.2633
521.458	11.8594
522.765	5.66253
524.072	1.96901
525.378	1.92256
526.685	7.67394
527.992	5.59133
529.298	1.77966
530.605	8.32872
531.912	11.2816
533.219	5.86173
534.525	2.55846
535.832	3.91335
537.139	-2.23498
538.446	7.49147
539.752	9.98106
541.059	4.73954
542.366	-3.96448
543.673	3.22371
544.979	6.5404
546.286	-1.75274
547.593	1.62931
548.9	0.9774
550.206	2.33486
551.513	3.52183
552.82	-0.184736
554.127	9.21398
555.433	8.78709
556.74	4.18348
558.047	6.3569
559.354	4.30667
560.66	2.31038
561.967	6.03401
563.274	6.82758
564.58	0.97918
565.887	0.113694
567.194	2.79139
568.501	6.9165
569.807	10.5837
571.114	0.86758
572.421	8.72046
573.728	9.30158
575.034	9.75189
576.341	3.48374
577.648	2.27751
578.955	4.27608
580.261	1.71581
581.568	4.56201
582.875	5.90656
584.182	9.18766
585.488	5.58618
586.795	-1.37747
588.102	5.07216
589.409	12.6264
590.715	6.54334
592.022	-1.88914
593.329	-2.50003
594.635	5.75227
595.942	13.865
597.249	13.4881
598.556	6.17538
599.862	-0.9183
601.169	-0.536228
602.476	11.9253
603.783	0.312828
605.089	-5.99963
606.396	0.675175
607.703	-2.14962
609.01	1.77248
610.316	7.21236
611.623	7.4332
612.93	5.72834
614.237	8.0397
615.543	10.6772
616.85	10.1806
618.157	14.0517
619.464	11.344
620.77	4.88262
622.077	-3.96562
623.384	17.1157
624.69	13.799
625.997	4.4936
627.304	9.56804
628.611	9.39118
629.917	10.5664
631.224	10.4175
632.531	4.46735
633.838	2.11377
635.144	7.19205
636.451	8.62397
637.758	6.5894
639.065	10.6801
640.371	3.13682
641.678	14.756
642.985	-4.04957
644.292	4.53427
645.598	8.56508
646.905	2.60403
648.212	1.97658
649.519	-1.11256
650.825	-0.957735
652.132	8.2838
653.439	14.6004
654.746	13.0843
656.052	11.9496
657.359	10.3171
658.666	5.23423
659.972	3.60529
661.279	4.05167
662.586	10.4348
663.893	11.0861
665.199	4.46555
666.506	2.07903
667.813	6.92288
669.12	14.6624
670.426	15.3866
671.733	8.67095
673.04	1.74464
674.347	-0.425797
675.653	4.87916
676.96	8.92607
678.267	7.71349
679.574	4.61241
680.88	5.99782
682.187	2.82169
683.494	2.49565
684.801	-6.76047
686.107	-6.21934
687.414	5.00903
688.721	8.97321
690.028	3.46623
691.334	-0.737715
692.641	0.656884
693.948	6.86691
695.254	12.74
696.561	9.93521
697.868	14.1968
699.175	14.2845
700.481	-2.8196
701.788	1.15105
703.095	9.9541
704.402	4.4531
705.708	6.22317
707.015	13.0027
708.322	12.0788
709.629	2.56512
710.935	-0.164273
712.242	4.95325
713.549	3.91025
714.856	-1.42011
716.162	5.94738
717.469	18.538
718.776	10.7949
720.083	3.67067
721.389	12.2466
722.696	12.7753
724.003	15.82
725.31	9.05413
726.616	14.3595
727.923	4.21003
729.23	-5.1257
730.536	1.6084
731.843	10.4919
733.15	15.2786
734.457	13.5842
735.763	11.4126
737.07	13.3817
738.377	13.3577
739.684	13.7653
740.99	16.9144
742.297	3.00909
743.604	10.0399
744.911	14.762
746.217	12.8216
747.524	5.00937
748.831	9.72883
750.138	6.53308
751.444	10.7064
752.751	3.99028
754.058	19.6133
755.365	20.876
756.671	20.7709
757.978	19.203
759.285	15.2491
760.591	16.4826
761.898	16.3805
763.205	14.0435
764.512	15.7502
765.818	27.9985
767.125	16.1098
768.432	11.0761
769.739	21.4452
771.045	24.9807
772.352	23.6312
773.659	20.2128
774.966	12.5054
776.272	21.6362
777.579	15.1161
778.886	19.8535
780.193	20.6643
781.499	26.9383
782.806	25.4872
784.113	14.0458
785.42	14.9676
786.726	21.0759
788.033	18.5359
789.34	23.7845
790.646	29.0639
791.953	19.019
793.26	29.967
794.567	19.7316
795.873	12.9681
797.18	23.6401
798.487	10.1225
799.794	22.265
801.1	28.2956
802.407	28.1875
803.714	24.7972
805.021	26.5188
806.327	37.6562
807.634	40.7179
808.941	34.94
810.248	33.8893
811.554	26.2382
812.861	19.761
814.168	30.6634
815.475	34.0086
816.781	33.4409
818.088	24.791
819.395	21.16
820.702	38.0371
822.008	22.367
823.315	31.5625
824.622	37.2732
825.928	47.8859
827.235	35.9631
828.542	41.7292
829.849	32.719
831.155	25.5582
832.462	35.2249
833.769	22.3502
835.076	20.9709
836.382	30.984
837.689	37.1299
838.996	38.0104
840.303	40.5289
841.609	36.9348
842.916	27.9002
844.223	30.5839
845.53	26.6811
846.836	28.6495
848.143	21.3444
849.45	30.5597
850.757	35.4995
852.063	43.1041
853.37	39.3487
854.677	40.2938
855.984	45.4413
857.29	33.5067
858.597	44.1576
859.904	35.7239
861.21	27.6642
862.517	22.5221
863.824	23.1136
865.131	34.3306
866.437	27.1836
867.744	23.3267
869.051	23.6318
870.358	18.8277
871.664	16.4154
872.971	17.7597
874.278	13.0941
875.585	10.1061
876.891	23.3032
878.198	13.7948
879.505	20.7901
880.812	16.6059
882.118	15.3633
883.425	19.2685
884.732	8.42837
886.039	14.7082
887.345	13.2517
888.652	12.2697
889.959	23.6076
891.266	5.88277
892.572	17.2148
893.879	8.90489
895.186	11.3135
896.492	15.2571
897.799	9.72878
899.106	2.60282
900.413	7.63955
901.719	9.31917
903.026	14.4641
904.333	10.5597
905.64	0.349751
906.946	0.733364
908.253	-0.0219235
909.56	-2.33123
910.867	4.15572
912.173	9.73101
913.48	7.69915
914.787	14.9989
916.094	4.38671
917.4	-1.95708
918.707	1.74549
920.014	-2.09834
921.32	-9.63108
922.627	3.07921
923.934	-12.5926
925.241	-23.4607
926.547	-5.71497
927.854	2.50849
929.161	7.84938
930.468	-6.61316
931.774	-6.81446
933.081	-7.1449
934.388	-9.08133
935.695	-14.1018
937.001	-12.4431
938.308	-1.8704
939.615	-4.37325
940.922	-3.17986
942.228	-1.94012
943.535	-6.9236
944.842	-11.3605
946.149	-14.3882
947.455	-13.9243
948.762	-12.2849
950.069	-9.61017
951.375	-4.93239
952.682	-7.49922
953.989	-10.8191
955.296	-14.2284
956.602	-10.7725
957.909	-10.6269
959.216	-6.88068
960.523	-4.99038
961.829	-4.78918
963.136	-11.9135
964.443	-8.44594
965.75	-25.2764
967.056	-11.3006
968.363	-7.87392
969.67	-9.48908
970.977	1.91506
972.283	-9.28906
973.59	-5.86403
974.897	-6.49769
976.204	-11.2506
977.51	-7.74716
978.817	-3.14438
980.124	4.46507
981.431	-2.06871
982.737	-8.65666
984.044	-5.31098
985.351	-3.51296
986.657	1.89414
987.964	9.94513
989.271	0.892143
990.578	-4.8767
991.884	1.57596
993.191	0.685999
994.498	-5.41448
995.805	-0.66676
997.111	7.52457
998.418	7.54055
999.725	5.74654
1001.03	2.99913
1002.34	4.98652
1003.65	12.4279
1004.95	7.56771
1006.26	-0.204607
1007.57	4.06971
1008.87	6.62702
1010.18	6.00426
1011.49	3.393
1012.79	-9.82378
1014.1	0.486452
1015.41	3.22391
1016.71	8.46013
1018.02	-2.81099
1019.33	-3.55855
1020.63	13.5235
1021.94	13.1562
1023.25	-2.28822
1024.55	3.17161
1025.86	-9.2944
1027.17	5.56385
1028.47	-0.29929
1029.78	2.68617
1031.09	3.53385
1032.39	-12.9461
1033.7	17.2723
1035.01	8.77172
1036.31	12.8984
1037.62	9.43882
1038.93	19.4464
1040.23	10.5227
1041.54	9.17312
1042.85	3.40974
1044.15	10.5512
1045.46	2.70223
1046.77	9.82643
1048.07	11.3983
1049.38	10.0341
1050.69	6.18845
1051.99	3.78936
1053.3	11.8428
1054.61	6.06629
1055.91	-2.72216
1057.22	-5.3375
1058.53	-6.27235
1059.83	1.88432
1061.14	11.7806
1062.45	15.7944
1063.76	8.69848
1065.06	3.0667
1066.37	8.00289
1067.68	6.69387
1068.98	-0.880714
1070.29	2.2475
1071.6	12.8775
1072.9	8.70713
1074.21	8.28455
1075.52	12.9161
1076.82	10.6296
1078.13	3.74934
1079.44	2.45344
1080.74	-4.77901
1082.05	7.62199
1083.36	22.7052
1084.66	17.5757
1085.97	10.7805
1087.28	9.58489
1088.58	3.48919
1089.89	13.8581
1091.2	9.42929
1092.5	2.40818
1093.81	3.45484
1095.12	0.462802
1096.42	12.8328
1097.73	3.97307
1099.04	3.41096
1100.34	9.72374
1101.65	17.6501
1102.96	28.6993
1104.26	8.9125
1105.57	6.89507
1106.88	21.6043
1108.18	11.6594
1109.49	1.67919
1110.8	3.31359
1112.1	13.1361
1113.41	15.8819
1114.72	36.4767
1116.02	30.7828
1117.33	45.0026
1118.64	19.5701
1119.94	15.0883
1121.25	16.9257
1122.56	30.4701
1123.87	35.7025
1125.17	38.9255
1126.48	35.5109
1127.79	47.464
1129.09	31.0016
1130.4	36.7666
1131.71	35.9266
1133.01	58.5939
1134.32	59.9689
1135.63	62.9295
1136.93	58.8827
1138.24	75.7881
1139.55	74.6182
1140.85	70.7569
1142.16	83.9199
1143.47	85.8177
1144.77	73.4448
1146.08	87.1628
1147.39	91.7493
1148.69	99.3853
1150	109.587
1151.31	108.031
1152.61	109.928
1153.92	119.571
1155.23	133.357
1156.53	145.066
1157.84	120.897
1159.15	132.655
1160.45	118.072
1161.76	131.934
1163.07	123.381
1164.37	125.046
1165.68	135.918
1166.99	124.408
1168.29	138.209
1169.6	144.078
1170.91	140.94
1172.21	140.057
1173.52	155.728
1174.83	141.844
1176.13	147.257
1177.44	144.807
1178.75	130.754
1180.06	154.094
1181.36	168.466
1182.67	146.813
1183.98	142.572
1185.28	154.387
1186.59	154.429
1187.9	137.105
1189.2	131.757
1190.51	146.199
1191.82	149.791
1193.12	142.448
1194.43	140.044
1195.74	146.83
1197.04	147.15
1198.35	136.252
1199.66	143.279
1200.96	179.181
1202.27	168.3
1203.58	147.927
1204.88	143.837
1206.19	162.938
1207.5	168.327
1208.8	151.466
1210.11	170.888
1211.42	188.738
1212.72	162.48
1214.03	170.003
1215.34	168.605
1216.64	162.92
1217.95	173.765
1219.26	188.08
1220.56	196.269
1221.87	181.396
1223.18	181.79
1224.48	188.774
1225.79	200.334
1227.1	199.614
1228.4	206.482
1229.71	206.629
1231.02	218.011
1232.32	214.229
1233.63	204.561
1234.94	203.024
1236.24	225.079
1237.55	236.559
1238.86	243.954
1240.17	238.851
1241.47	229.349
1242.78	236.827
1244.09	253.268
1245.39	269.471
1246.7	268.485
1248.01	274.167
1249.31	294.732
1250.62	298.611
1251.93	294.206
1253.23	310.666
1254.54	310.328
1255.85	313.962
1257.15	329.52
1258.46	346.376
1259.77	342.355
1261.07	351.853
1262.38	364.227
1263.69	387.133
1264.99	381.796
1266.3	391.025
1267.61	392.357
1268.91	406.669
1270.22	430.208
1271.53	431.63
1272.83	435.074
1274.14	444.865
1275.45	451.322
1276.75	471.832
1278.06	490.538
1279.37	494.115
1280.67	517.435
1281.98	550.988
1283.29	565.637
1284.59	588.8
1285.9	596.818
1287.21	602.716
1288.51	619.611
1289.82	652.44
1291.13	672.385
1292.43	669.681
1293.74	698.997
1295.05	701.922
1296.35	727.717
1297.66	746.991
1298.97	761.89
1300.28	790.521
1301.58	808.851
1302.89	820.163
1304.2	833.602
1305.5	876.422
1306.81	896.699
1308.12	909.011
1309.42	936.832
1310.73	949.215
1312.04	995.341
1313.34	1011.74
1314.65	1041.12
1315.96	1039.3
1317.26	1068.43
1318.57	1089.38
1319.88	1115.11
1321.18	1159.32
1322.49	1162.72
1323.8	1189.51
1325.1	1210.16
1326.41	1212.56
1327.72	1239.09
1329.02	1258.84
1330.33	1279.23
1331.64	1283.58
1332.94	1322.39
1334.25	1335.11
1335.56	1324.21
1336.86	1344.46
1338.17	1366.21
1339.48	1360.59
1340.78	1340.31
1342.09	1350.98
1343.4	1366.62
1344.7	1383.94
1346.01	1376.05
1347.32	1364.13
1348.62	1337.16
1349.93	1344.17
1351.24	1358.57
1352.54	1357.65
1353.85	1336.73
1355.16	1343.21
1356.46	1331.59
1357.77	1297.1
1359.08	1292.98
1360.39	1272.3
1361.69	1253.23
1363	1228.99
1364.31	1243.24
1365.61	1208.66
1366.92	1180.81
1368.23	1148.28
1369.53	1120.4
1370.84	1097.28
1372.15	1067.66
1373.45	1060.76
1374.76	1041.38
1376.07	1019.9
1377.37	996.992
1378.68	956.554
1379.99	947.637
1381.29	921.713
1382.6	895.439
1383.91	880.404
1385.21	836.956
1386.52	811.658
1387.83	815.307
1389.13	762.24
1390.44	727.877
1391.75	724.363
1393.05	705.471
1394.36	668.163
1395.67	649.156
1396.97	627.44
1398.28	599.773
1399.59	574.179
1400.89	554.228
1402.2	545.567
1403.51	543.799
1404.81	519.86
1406.12	502.675
1407.43	476.248
1408.73	465.137
1410.04	437.809
1411.35	429.561
1412.65	392.559
1413.96	392.698
1415.27	371.58
1416.57	376.102
1417.88	332.59
1419.19	315.273
1420.5	325.041
1421.8	318.026
1423.11	295.172
1424.42	261.25
1425.72	263.473
1427.03	265.528
1428.34	254.5
1429.64	241.27
1430.95	213.214
1432.26	207.332
1433.56	212.545
1434.87	204.783
1436.18	188.749
1437.48	179.922
1438.79	175.847
1440.1	146.845
1441.4	149.459
1442.71	143.298
1444.02	152.408
1445.32	143.031
1446.63	111.377
1447.94	116.067
1449.24	134.482
1450.55	108.386
1451.86	127.452
1453.16	99.1265
1454.47	96.7392
1455.78	54.292
1457.08	82.9458
1458.39	54.5602
1459.7	70.8922
1461	68.115
1462.31	73.6603
1463.62	44.7137
1464.92	50.1063
1466.23	41.442
1467.54	45.7338
1468.84	19.4064
1470.15	24.6975
1471.46	27.2514
1472.76	21.7525
1474.07	9.74865
1475.38	27.549
1476.69	9.04143
1477.99	8.43263
1479.3	15.9321
1480.61	-0.156308
1481.91	0.999783
1483.22	11.4222
1484.53	20.563
1485.83	12.4269
1487.14	20.8701
1488.45	9.66138
1489.75	-3.78271
1491.06	-5.25281
1492.37	-12.7596
1493.67	3.90466
1494.98	1.04724
1496.29	-14.72
1497.59	-27.3137
1498.9	9.51782
1500.21	-2.1001
1501.51	17.6167
1502.82	18.9039
1504.13	17.5073
1505.43	47.5165
1506.74	7.94376
1508.05	61.569
1509.35	40.403
1510.66	55.8785
1511.97	65.7928
1513.27	82.5538
1514.58	87.4669
1515.89	74.9135
1517.19	77.534
1518.5	94.5716
1519.81	105.89
1521.11	128.311
1522.42	136.338
1523.73	134.781
1525.03	146.708
1526.34	159.673
1527.65	185.825
1528.95	203.975
1530.26	215.953
1531.57	224.178
1532.87	234.138
1534.18	224.676
1535.49	262.449
1536.8	276.645
1538.1	278.025
1539.41	323.342
1540.72	316.312
1542.02	321.882
1543.33	361.117
1544.64	368.04
1545.94	369.143
1547.25	386.689
1548.56	395.666
1549.86	415.592
1551.17	462.655
1552.48	494.161
1553.78	501.538
1555.09	542.301
1556.4	558.829
1557.7	587.227
1559.01	619.089
1560.32	646.414
1561.62	644.943
1562.93	693.159
1564.24	728.674
1565.54	748.864
1566.85	755.074
1568.16	805.259
1569.46	828.272
1570.77	849.018
1572.08	919.254
1573.38	937.389
1574.69	956.228
1576	1012.3
1577.3	1050.22
1578.61	1116.28
1579.92	1144.75
1581.22	1168.75
1582.53	1207.01
1583.84	1265.77
1585.14	1344.27
1586.45	1364.07
1587.76	1388.72
1589.06	1430.53
1590.37	1499.64
1591.68	1561.56
1592.98	1614.96
1594.29	1603.94
1595.6	1635.8
1596.91	1669.17
1598.21	1702.26
1599.52	1758.49
1600.83	1781.58
1602.13	1770.37
1603.44	1778.59
1604.75	1803.25
1606.05	1795.04
1607.36	1783.67
1608.67	1773.75
1609.97	1766.72
1611.28	1775.57
1612.59	1712.22
1613.89	1654.98
1615.2	1617.34
1616.51	1634.52
1617.81	1553
1619.12	1545.37
1620.43	1468.28
1621.73	1414.74
1623.04	1370.19
1624.35	1333.3
1625.65	1245.26
1626.96	1181.64
1628.27	1099.23
1629.57	1071.1
1630.88	1009.15
1632.19	970.124
1633.49	891.481
1634.8	839.532
1636.11	831.005
1637.41	760.509
1638.72	737.336
1640.03	692.799
1641.33	650.152
1642.64	616.199
1643.95	611.799
1645.25	574.565
1646.56	554.555
1647.87	485.916
1649.17	461.383
1650.48	445.34
1651.79	420.118
1653.09	385.688
1654.4	357.091
1655.71	333.72
1657.02	326.575
1658.32	306.653
1659.63	283.338
1660.94	268.649
1662.24	252.248
1663.55	227.901
1664.86	218.777
1666.16	188.896
1667.47	188.803
1668.78	183.066
1670.08	163.365
1671.39	130.973
1672.7	123.44
1674	98.0883
1675.31	101.49
1676.62	98.9449
1677.92	84.3114
1679.23	67.5155
1680.54	63.8304
1681.84	56.217
1683.15	46.0194
1684.46	62.8953
1685.76	14.2178
1687.07	59.5796
1688.38	21.1429
1689.68	17.556
1690.99	10.306
1692.3	17.7252
1693.6	13.4046
1694.91	2.52598
1696.22	18.6654
1697.52	10.6911
1698.83	7.13095
1700.14	21.5032
1701.44	9.56911
1702.75	3.52277
1704.06	27.4825
1705.36	27.4478
1706.67	34.803
1707.98	18.3981
1709.28	30.4338
1710.59	31.6285
1711.9	27.2833
1713.2	28.7554
1714.51	28.4038
1715.82	26.1821
1717.13	19.6796
1718.43	18.0038
1719.74	18.8263
1721.05	15.1126
1722.35	11.9899
1723.66	1.13366
1724.97	4.32105
1726.27	1.55269
1727.58	-2.68159
1728.89	10.1928
1730.19	5.16732
1731.5	1.41336
1732.81	0.422001
1734.11	7.67277
1735.42	2.80607
1736.73	7.77425
1738.03	4.71513
1739.34	-7.53048
1740.65	-4.31048
1741.95	-10.3586
1743.26	12.4138
1744.57	1.38268
1745.87	-3.70199
1747.18	-2.85423
1748.49	-3.9713
1749.79	-2.05124
1751.1	-1.16686
1752.41	1.18836
1753.71	0.47081
1755.02	2.44793
1756.33	-2.62867
1757.63	-6.76583
1758.94	-8.41472
1760.25	-4.10223
1761.55	-8.69019
1762.86	-7.08047
1764.17	-9.81578
1765.47	-4.13507
1766.78	-3.342
1768.09	-5.16241
1769.39	-7.67506
1770.7	-11.2432
1772.01	-8.66678
1773.31	-4.91112
1774.62	-9.16462
1775.93	-3.78053
1777.24	-7.91701
1778.54	-10.1736
1779.85	-3.77195
1781.16	-7.90901
1782.46	-17.7637
1783.77	1.80638
1785.08	-6.17256
1786.38	-3.86716
1787.69	-2.76893
1789	-3.40143
1790.3	-10.9036
1791.61	-1.27446
1792.92	0.139976
1794.22	3.34012
1795.53	-0.026397
1796.84	-11.9743
1798.14	-2.35171
1799.45	-2.68199
1800.76	-8.51111
1802.06	-10.8202
1803.37	-5.26633
1804.68	2.29269
1805.98	-7.11327
1807.29	-4.39816
1808.6	-0.0188098
1809.9	-3.46731
1811.21	-5.05128
1812.52	-8.34812
1813.82	-5.01488
1815.13	-2.05719
1816.44	-2.16576
1817.74	-7.69623
1819.05	-9.77163
1820.36	-6.55016
1821.66	-1.17396
1822.97	-10.0026
1824.28	7.73942
1825.58	-0.198032
1826.89	1.77461
1828.2	-5.72624
1829.5	-2.10128
1830.81	-7.25344
1832.12	-3.77919
1833.43	-4.36214
1834.73	0.382081
1836.04	-3.59321
1837.35	-3.84928
1838.65	-9.00656
1839.96	1.2197
1841.27	-2.15066
1842.57	1.13478
1843.88	-12.6077
1845.19	-3.14058
1846.49	-13.7206
1847.8	-13.05
1849.11	2.75164
1850.41	-1.22996
1851.72	4.86468
1853.03	-2.26869
1854.33	-9.86561
1855.64	-5.10391
1856.95	1.49126
1858.25	-6.63126
1859.56	-1.54474
1860.87	-7.05643
1862.17	-5.33831
1863.48	-10.0068
1864.79	-6.30377
1866.09	-9.49043
1867.4	-13.5366
1868.71	-4.21275
1870.01	-1.2454
1871.32	-17.7213
1872.63	-24.0724
1873.93	-0.325407
1875.24	-11.1268
1876.55	-14.4271
1877.85	-14.3536
1879.16	-7.05783
1880.47	-8.45434
1881.77	-8.48258
1883.08	-12.103
1884.39	-17.6691
1885.69	-3.30945
1887	-7.25491
1888.31	-6.02719
1889.61	-5.11117
1890.92	0.564844
1892.23	-10.0518
1893.54	-10.5181
1894.84	-3.34077
1896.15	-1.70962
1897.46	-7.41837
1898.76	-8.79332
1900.07	-5.5126
1901.38	-2.21359
1902.68	-3.59528
1903.99	-4.87272
1905.3	-3.25193
1906.6	-10.79
1907.91	-9.964
1909.22	-12.7096
1910.52	-12.301
1911.83	-3.51813
1913.14	-2.23544
1914.44	-12.3619
1915.75	-7.72691
1917.06	-9.27573
1918.36	-9.07503
1919.67	-10.1961
1920.98	-18.6711
1922.28	-15.4099
1923.59	-23.8744
1924.9	-17.4339
1926.2	-4.6505
1927.51	-18.142
1928.82	-10.3449
1930.12	-12.1306
1931.43	-10.8208
1932.74	-6.85406
1934.04	-11.277
1935.35	-8.46882
1936.66	-10.7795
1937.96	-2.22995
1939.27	-5.01479
1940.58	-5.23831
1941.88	-17.3819
1943.19	-14.1975
1944.5	-21.4105
1945.8	-19.2203
1947.11	-6.75645
1948.42	-14.1508
1949.72	-7.21402
1951.03	-4.1194
1952.34	-5.85011
1953.65	-8.88965
1954.95	-9.58546
1956.26	-5.46674
1957.57	-13.3046
1958.87	-15.8005
1960.18	-9.78981
1961.49	-10.3634
1962.79	-17.315
1964.1	-16.8211
1965.41	-12.6599
1966.71	-10.1067
1968.02	-12.3539
1969.33	-24.1197
1970.63	-11.9028
1971.94	-10.1572
1973.25	-3.32174
1974.55	-7.97082
1975.86	-19.5446
1977.17	-6.13815
1978.47	-26.2932
1979.78	-7.22609
1981.09	-4.89326
1982.39	-11.7058
1983.7	-10.8497
1985.01	-11.4595
1986.31	-14.5739
1987.62	-14.3186
1988.93	-19.1645
1990.23	-20.5356
1991.54	-9.51118
1992.85	-3.77467
1994.15	-7.42651
1995.46	-11.3487
1996.77	-13.0558
1998.07	-10.2151
1999.38	-16.7958
2000.69	-8.91007
2001.99	4.55247
2003.3	-9.58976
2004.61	-13.0703
2005.91	-13.6
2007.22	-6.82221
2008.53	-1.61767
2009.83	-5.69233
2011.14	4.55328
2012.45	-6.03842
2013.76	-12.518
2015.06	-5.22143
2016.37	-3.78009
2017.68	-8.68981
2018.98	-10.986
2020.29	-3.6706
2021.6	2.12078
2022.9	-15.45
2024.21	-7.95032
2025.52	-13.8422
2026.82	-9.81864
2028.13	-15.3538
2029.44	-9.71885
2030.74	-5.5441
2032.05	-13.5449
2033.36	-14.6196
2034.66	2.99673
2035.97	-5.18483
2037.28	-4.47983
2038.58	-2.03444
2039.89	-1.03779
2041.2	-4.09405
2042.5	1.00157
2043.81	3.4908
2045.12	-4.17747
2046.42	7.11863
2047.73	0.765238
2049.04	-1.41758
2050.34	-9.17424
2051.65	-1.64281
2052.96	-2.84448
2054.26	2.76719
2055.57	-12.4182
2056.88	-5.72776
2058.18	-8.54173
2059.49	-10.1226
2060.8	-7.40635
2062.1	4.33593
2063.41	-6.14112
2064.72	-4.24066
2066.02	-7.53272
2067.33	1.13531
2068.64	-7.63954
2069.95	-12.1779
2071.25	-6.44687
2072.56	-3.89353
2073.87	-3.27107
2075.17	-9.00887
2076.48	2.66021
2077.79	-17.6174
2079.09	-5.52978
2080.4	-4.50561
2081.71	-2.52994
2083.01	-5.39417
2084.32	-8.97978
2085.63	-6.39635
2086.93	12.9224
2088.24	-7.8076
2089.55	1.8983
2090.85	-7.75308
2092.16	-10.8157
2093.47	-14.9023
2094.77	-10.9995
2096.08	-8.60415
2097.39	-6.42738
2098.69	-10.9126
2100	-4.46081