File: Example Data/Raman/CNT - TIM/Raytheon/Al foil/2010/01-04-10/Al - B23 - top_2.txt
200	535.278
202.832	531.43
205.663	531.486
208.495	533.766
211.326	531.402
214.158	532.865
216.99	528.237
219.821	508.317
222.653	512.187
225.484	514.11
228.316	521.234
231.148	520.369
233.979	516.084
236.811	512.66
239.642	515.26
242.474	531.769
245.306	526.325
248.137	543.387
250.969	521.434
253.8	514.492
256.632	519.197
259.464	523.075
262.295	520.713
265.127	515.95
267.958	510.873
270.79	506.478
273.621	533.178
276.453	509.982
279.285	512.806
282.116	500.661
284.948	499.294
287.779	505.088
290.611	501.566
293.443	500.069
296.274	506.607
299.106	493.635
301.937	495.688
304.769	497.948
307.601	515.661
310.432	483.343
313.264	483.351
316.095	471.057
318.927	470.943
321.759	484.917
324.59	488.713
327.422	488.16
330.253	491.803
333.085	487.617
335.917	457.907
338.748	468.102
341.58	471.196
344.411	472.165
347.243	474.219
350.075	461.171
352.906	456.303
355.738	473.65
358.569	473.97
361.401	466.833
364.232	463.728
367.064	463.046
369.896	465.975
372.727	461.936
375.559	457.811
378.39	456.792
381.222	442.505
384.054	434.983
386.885	441.341
389.717	434.712
392.548	442.109
395.38	442.838
398.212	444.209
401.043	443.807
403.875	440.146
406.706	445.15
409.538	446.87
412.37	448.134
415.201	444.9
418.033	437.622
420.864	439.096
423.696	448.429
426.528	444.08
429.359	461.371
432.191	441.891
435.022	438.592
437.854	438.052
440.686	447.069
443.517	442.408
446.349	432.017
449.18	428.902
452.012	427.02
454.844	419.281
457.675	416.279
460.507	422.886
463.338	420.122
466.17	411.376
469.001	417.605
471.833	404.155
474.665	408.945
477.496	413.686
480.328	404.491
483.159	402.413
485.991	395.013
488.823	379.024
491.654	376.82
494.486	373.871
497.317	371.4
500.149	371.918
502.981	390.407
505.812	370.103
508.644	375.702
511.475	369.476
514.307	362.895
517.139	355.51
519.97	369.169
522.802	376.588
525.633	370.242
528.465	369.15
531.297	362.128
534.128	369.014
536.96	360.005
539.791	364.814
542.623	374.802
545.455	364.162
548.286	364.179
551.118	361.329
553.949	371.745
556.781	370.88
559.613	369.973
562.444	372.516
565.276	372.15
568.107	376.96
570.939	384.837
573.771	379.431
576.602	384.567
579.434	398.483
582.265	366.991
585.097	372.535
587.928	377.297
590.76	395.056
593.592	391.133
596.423	381.213
599.255	389.839
602.086	393.61
604.918	399.218
607.75	400.624
610.581	387.938
613.413	387.632
616.244	376.135
619.076	363.437
621.908	391.4
624.739	418.653
627.571	395.678
630.402	396.325
633.234	400.693
636.066	416.471
638.897	411.073
641.729	409.546
644.56	405.982
647.392	404.76
650.224	407.334
653.055	415.863
655.887	429.631
658.718	425.531
661.55	406.662
664.382	416.309
667.213	406.624
670.045	423.571
672.876	427.902
675.708	418.703
678.539	414.44
681.371	425.977
684.203	415.106
687.034	420.428
689.866	420.046
692.697	422.271
695.529	416.007
698.361	416.892
701.192	426.526
704.024	432.462
706.855	437.772
709.687	441.774
712.519	447.607
715.35	442.064
718.182	437.069
721.013	438.549
723.845	449.623
726.677	446.065
729.508	451.823
732.34	464.143
735.171	453.084
738.003	456.549
740.835	452.953
743.666	449.296
746.498	464.314
749.329	476.272
752.161	469.289
754.993	460.039
757.824	465.639
760.656	472.89
763.487	471.722
766.319	478.423
769.151	484.618
771.982	478.18
774.814	479.444
777.645	500.772
780.477	483.386
783.308	485.536
786.14	497.72
788.972	488.427
791.803	487.75
794.635	503.824
797.466	519.786
800.298	503.83
803.13	500.796
805.961	518.352
808.793	512.98
811.624	517.197
814.456	529.751
817.288	535.534
820.119	527.716
822.951	519.446
825.782	528.186
828.614	531.277
831.446	530.555
834.277	540.535
837.109	526.126
839.94	529.714
842.772	539.537
845.604	559.05
848.435	556.272
851.267	564.727
854.098	538.76
856.93	552.003
859.762	559.687
862.593	547.107
865.425	550.206
868.256	535.212
871.088	523.902
873.919	507.682
876.751	509.263
879.583	517.03
882.414	512.7
885.246	516.675
888.078	511.915
890.909	507.466
893.741	492.233
896.572	498.467
899.404	521.034
902.235	506.349
905.067	490.441
907.899	499.04
910.73	508.592
913.562	507.232
916.393	503.802
919.225	494.968
922.057	489.054
924.888	499.637
927.72	495.248
930.551	497.771
933.383	485.623
936.215	488.957
939.046	484.835
941.878	486.894
944.709	477.161
947.541	497.107
950.373	515.464
953.204	504.525
956.036	504.13
958.867	513.44
961.699	513.339
964.531	511.589
967.362	525.128
970.194	524.263
973.025	517.426
975.857	544.848
978.689	523.696
981.52	528.228
984.352	529.146
987.183	530.004
990.015	531.999
992.846	545.626
995.678	554.854
998.51	551.733
1001.34	562.166
1004.17	583.207
1007	593.12
1009.84	602.543
1012.67	613.5
1015.5	601.388
1018.33	598.865
1021.16	624.759
1023.99	635.415
1026.83	646.221
1029.66	657.667
1032.49	665.494
1035.32	679.219
1038.15	676.124
1040.98	695.527
1043.82	711.98
1046.65	709.146
1049.48	714.47
1052.31	723.526
1055.14	725.893
1057.97	730.652
1060.8	745.767
1063.64	754.504
1066.47	778.235
1069.3	795.42
1072.13	774.047
1074.96	791.807
1077.79	798.043
1080.63	795.015
1083.46	809.456
1086.29	822.83
1089.12	846.837
1091.95	865.456
1094.78	859.794
1097.62	875.842
1100.45	925.355
1103.28	930.947
1106.11	925.502
1108.94	926.494
1111.77	953.154
1114.61	952.52
1117.44	987.062
1120.27	970.826
1123.1	995.723
1125.93	1017.54
1128.76	1046.79
1131.59	1057.7
1134.43	1089.54
1137.26	1117.03
1140.09	1126.45
1142.92	1153.25
1145.75	1176.55
1148.58	1190.25
1151.42	1214.03
1154.25	1252.05
1157.08	1280.23
1159.91	1285.7
1162.74	1319.13
1165.57	1330.24
1168.41	1335.56
1171.24	1315.71
1174.07	1367.11
1176.9	1407.15
1179.73	1381.71
1182.56	1412.4
1185.39	1389.84
1188.23	1439.37
1191.06	1434.79
1193.89	1462.84
1196.72	1478.9
1199.55	1484.18
1202.38	1530.19
1205.22	1503.76
1208.05	1535.38
1210.88	1568
1213.71	1563.81
1216.54	1585.48
1219.37	1628.78
1222.21	1675.48
1225.04	1674.57
1227.87	1707.33
1230.7	1723.05
1233.53	1788.6
1236.36	1778.78
1239.2	1794.23
1242.03	1817.56
1244.86	1850.95
1247.69	1973.21
1250.52	1960.56
1253.35	2000.62
1256.18	2035
1259.02	2072.9
1261.85	2147.81
1264.68	2215.02
1267.51	2271.96
1270.34	2313.09
1273.17	2404.43
1276.01	2402.81
1278.84	2501.62
1281.67	2612.39
1284.5	2662.34
1287.33	2733.13
1290.16	2830.49
1293	2927.47
1295.83	3009.23
1298.66	3118.77
1301.49	3188.65
1304.32	3298.73
1307.15	3384.4
1309.99	3492.11
1312.82	3602.46
1315.65	3731.49
1318.48	3865.01
1321.31	3924.96
1324.14	4027.17
1326.97	4187.3
1329.81	4321.81
1332.64	4423.71
1335.47	4521.93
1338.3	4634.08
1341.13	4701.71
1343.96	4722.8
1346.8	4767.02
1349.63	4788.03
1352.46	4723.1
1355.29	4707.6
1358.12	4679.61
1360.95	4581.91
1363.79	4458.16
1366.62	4440.64
1369.45	4402.19
1372.28	4270.25
1375.11	4124.07
1377.94	3988.47
1380.77	3892.44
1383.61	3861.96
1386.44	3706.65
1389.27	3640.44
1392.1	3558.67
1394.93	3426.47
1397.76	3371.64
1400.6	3282.51
1403.43	3165.38
1406.26	3091.5
1409.09	3034.82
1411.92	2959.77
1414.75	2935.06
1417.59	2889.87
1420.42	2820.75
1423.25	2750.62
1426.08	2724.27
1428.91	2702.24
1431.74	2644.31
1434.58	2609.59
1437.41	2578.68
1440.24	2559.99
1443.07	2551.75
1445.9	2540.9
1448.73	2500.88
1451.56	2491.49
1454.4	2482.93
1457.23	2445.71
1460.06	2410.87
1462.89	2388.78
1465.72	2383.08
1468.55	2405.84
1471.39	2420.18
1474.22	2404.59
1477.05	2375.79
1479.88	2380.28
1482.71	2388.45
1485.54	2379.23
1488.38	2386.75
1491.21	2357.98
1494.04	2387.66
1496.87	2371.58
1499.7	2373.3
1502.53	2408.14
1505.37	2390.49
1508.2	2367.08
1511.03	2364.18
1513.86	2391.24
1516.69	2417.3
1519.52	2419.4
1522.35	2437.78
1525.19	2414.81
1528.02	2436
1530.85	2480.66
1533.68	2494.48
1536.51	2525.63
1539.34	2600.49
1542.18	2594.01
1545.01	2627.88
1547.84	2683.94
1550.67	2713.47
1553.5	2835.9
1556.33	2878.84
1559.17	2994.09
1562	3057.46
1564.83	3122.99
1567.66	3246.77
1570.49	3337.51
1573.32	3440.44
1576.16	3564.81
1578.99	3653.57
1581.82	3779.2
1584.65	3922.51
1587.48	4033.13
1590.31	4116.82
1593.14	4209.43
1595.98	4343.94
1598.81	4459.65
1601.64	4490.08
1604.47	4430.1
1607.3	4380.58
1610.13	4353.63
1612.97	4295.39
1615.8	4137.75
1618.63	3938.52
1621.46	3721.44
1624.29	3536.91
1627.12	3291.01
1629.96	3072.85
1632.79	2876.55
1635.62	2642.61
1638.45	2440.21
1641.28	2266.14
1644.11	2141.64
1646.94	1993.62
1649.78	1841.11
1652.61	1736.48
1655.44	1599
1658.27	1513.44
1661.1	1401.3
1663.93	1328.54
1666.77	1243.3
1669.6	1138.79
1672.43	1051.26
1675.26	983.255
1678.09	911.035
1680.92	855.846
1683.76	817.112
1686.59	774.535
1689.42	725.6
1692.25	679.504
1695.08	653.3
1697.91	653.958
1700.75	619.768
1703.58	590.769
1706.41	578.934
1709.24	552.259
1712.07	547.041
1714.9	520.423
1717.73	507.242
1720.57	506.672
1723.4	507.351
1726.23	477.093
1729.06	469.368
1731.89	454.84
1734.72	441.964
1737.56	440.75
1740.39	441.856
1743.22	413.183
1746.05	411.216
1748.88	427.24
1751.71	421.446
1754.55	414.498
1757.38	404.904
1760.21	396.435
1763.04	391.249
1765.87	395.507
1768.7	395.391
1771.54	395.757
1774.37	385.708
1777.2	396.15
1780.03	381.224
1782.86	383.114
1785.69	375.827
1788.52	373.727
1791.36	366.999
1794.19	359.511
1797.02	368.279
1799.85	363.286
1802.68	372.606
1805.51	371.916
1808.35	358.793
1811.18	352.754
1814.01	374.076
1816.84	375.63
1819.67	364.298
1822.5	361.496
1825.34	359.744
1828.17	363.072
1831	356.54
1833.83	359.141
1836.66	343.828
1839.49	357.117
1842.32	354.099
1845.16	368.441
1847.99	345.849
1850.82	365.573
1853.65	347.976
1856.48	333.898
1859.31	342.39
1862.15	358.92
1864.98	358.942
1867.81	347.454
1870.64	353.353
1873.47	353.167
1876.3	357.581
1879.14	360.923
1881.97	355.447
1884.8	355.344
1887.63	357.761
1890.46	352.629
1893.29	342.619
1896.13	355.736
1898.96	364.245
1901.79	350.928
1904.62	365.173
1907.45	343.972
1910.28	356.838
1913.11	353.951
1915.95	361.922
1918.78	356.88
1921.61	346.833
1924.44	345.885
1927.27	353.021
1930.1	350.675
1932.94	350.5
1935.77	347.604
1938.6	326.61
1941.43	360.989
1944.26	348.654
1947.09	347.249
1949.93	354.467
1952.76	346.811
1955.59	350.878
1958.42	349.965
1961.25	339.249
1964.08	349.407
1966.92	345.03
1969.75	355.037
1972.58	342.834
1975.41	362.912
1978.24	358.572
1981.07	354.995
1983.9	356.846
1986.74	344.836
1989.57	360.476
1992.4	356.257
1995.23	359.739
1998.06	345.732
2000.89	358.564
2003.73	370.476
2006.56	358.992
2009.39	345.687
2012.22	359.214
2015.05	362.127
2017.88	357.274
2020.72	361.295
2023.55	344.455
2026.38	347.976
2029.21	353.048
2032.04	346.009
2034.87	345.836
2037.7	353.822
2040.54	357.845
2043.37	347.543
2046.2	343.586
2049.03	361.733
2051.86	358.324
2054.69	363.122
2057.53	357.902
2060.36	352.873
2063.19	362.452
2066.02	370.85
2068.85	361.322
2071.68	353.528
2074.52	351.972
2077.35	352.258
2080.18	369.017
2083.01	371.819
2085.84	357.569
2088.67	367.372
2091.51	351.322
2094.34	368.021
2097.17	361.314
2100	367.569