File: Example Data/Raman/CNT - TIM/Raytheon/Al foil/2010/06-08-10/Ola - B9 - top_2.txt
300	230.64
301.488	247.454
302.977	248.378
304.465	249.844
305.953	239.074
307.442	239.642
308.93	245.139
310.418	234.663
311.906	249.163
313.395	242.378
314.883	234.283
316.371	228.688
317.86	240.676
319.348	243.003
320.836	242.269
322.325	236.873
323.813	247.333
325.301	254.133
326.79	239.008
328.278	226.883
329.766	234.56
331.254	230.91
332.743	228.663
334.231	254.84
335.719	242.961
337.208	231.828
338.696	226.018
340.184	242.622
341.673	239.874
343.161	226.214
344.649	233.543
346.137	241.557
347.626	228.495
349.114	224.874
350.602	236.52
352.091	215.557
353.579	231.233
355.067	228.309
356.556	239.263
358.044	227.499
359.532	223.36
361.021	225.891
362.509	226.57
363.997	215.145
365.485	230.905
366.974	218.171
368.462	214.344
369.95	213.101
371.439	224.291
372.927	214.884
374.415	218.543
375.904	215.921
377.392	213.961
378.88	214.674
380.369	223.613
381.857	214.016
383.345	214.899
384.833	211.38
386.322	211.96
387.81	221.055
389.298	206.809
390.787	211.897
392.275	215.174
393.763	203.854
395.252	212.14
396.74	210.979
398.228	200.018
399.717	205.104
401.205	210.534
402.693	212.835
404.181	206.585
405.67	219.527
407.158	218.433
408.646	210.127
410.135	196.021
411.623	208.182
413.111	207.583
414.6	213.305
416.088	200.333
417.576	201.972
419.064	208.285
420.553	218.204
422.041	209.713
423.529	202.883
425.018	200.834
426.506	185.767
427.994	206.839
429.483	204.075
430.971	190.649
432.459	202.337
433.948	199.08
435.436	191.598
436.924	200.43
438.412	203.408
439.901	187.465
441.389	191.976
442.877	193.531
444.366	218.129
445.854	196.624
447.342	196.785
448.831	194.2
450.319	198.376
451.807	193.999
453.296	189.832
454.784	204.511
456.272	186.622
457.76	185.731
459.249	185.083
460.737	187.408
462.225	191.604
463.714	187.818
465.202	183.336
466.69	182.482
468.179	189.009
469.667	185.494
471.155	190.725
472.644	183.862
474.132	172.028
475.62	182.075
477.108	188.1
478.597	185.222
480.085	180.635
481.573	177.969
483.062	182.8
484.55	171.701
486.038	183.225
487.527	177.42
489.015	174.033
490.503	187.109
491.991	176.487
493.48	175.397
494.968	186.29
496.456	178.697
497.945	163.706
499.433	178.275
500.921	169.053
502.41	170.885
503.898	177.514
505.386	179.746
506.875	177.138
508.363	176.435
509.851	170.993
511.339	161.66
512.828	165.423
514.316	161.789
515.804	180.652
517.293	170.464
518.781	165.579
520.269	165.518
521.758	167.902
523.246	176.763
524.734	171.861
526.223	156.838
527.711	180.873
529.199	166.283
530.687	159.627
532.176	164.253
533.664	171.368
535.152	169.505
536.641	167.918
538.129	169.625
539.617	170.384
541.106	174.096
542.594	161.144
544.082	167.104
545.57	173.268
547.059	171.267
548.547	172.015
550.035	173.106
551.524	173.364
553.012	184.313
554.5	169.66
555.989	167.53
557.477	177.525
558.965	170.013
560.454	162.985
561.942	166.598
563.43	163.949
564.919	159.104
566.407	159.358
567.895	176.061
569.383	173.828
570.872	166.681
572.36	168.088
573.848	181.138
575.337	169.62
576.825	170.096
578.313	171.175
579.802	174.103
581.29	181.309
582.778	169.116
584.266	175.917
585.755	172.009
587.243	179.281
588.731	169.579
590.22	173.556
591.708	173.045
593.196	182.49
594.685	165.567
596.173	171.016
597.661	171.631
599.15	182.384
600.638	181.789
602.126	178.456
603.614	174.695
605.103	184.682
606.591	176.893
608.079	185.669
609.568	179.792
611.056	177.845
612.544	176.079
614.033	167.738
615.521	180.846
617.009	181.469
618.497	175.581
619.986	173.559
621.474	174.682
622.962	182.791
624.451	189.478
625.939	202.896
627.427	190.653
628.916	195.553
630.404	187.707
631.892	196.197
633.381	187.444
634.869	181.685
636.357	184.694
637.846	192.696
639.334	194.148
640.822	197.3
642.31	195.015
643.799	181.73
645.287	189.211
646.775	187.496
648.264	206.435
649.752	192.35
651.24	190.255
652.729	193.893
654.217	196.004
655.705	197.509
657.193	188.94
658.682	202.44
660.17	194.048
661.658	192.703
663.147	208.887
664.635	196.492
666.123	202.238
667.612	195.972
669.1	200.423
670.588	193.962
672.077	193.098
673.565	192.045
675.053	197.329
676.541	204.866
678.03	195.422
679.518	205.351
681.006	204.245
682.495	214.448
683.983	197.868
685.471	208.262
686.96	212.333
688.448	194.806
689.936	213.938
691.424	201.813
692.913	194.923
694.401	198.725
695.889	200.569
697.378	189.889
698.866	202.812
700.354	211.021
701.843	211.043
703.331	220.349
704.819	206.114
706.308	201.94
707.796	204.363
709.284	211.176
710.773	205.059
712.261	214.852
713.749	211.56
715.237	207.592
716.726	218.37
718.214	209.749
719.702	225.386
721.191	211.426
722.679	224.001
724.167	220.892
725.656	220.798
727.144	227.239
728.632	228.111
730.12	219.924
731.609	236.848
733.097	233.015
734.585	224.881
736.074	240.813
737.562	224.834
739.05	227.747
740.539	230.727
742.027	221.261
743.515	235.292
745.004	224.207
746.492	231.286
747.98	234.505
749.468	233.875
750.957	236.211
752.445	241.623
753.933	227.313
755.422	233.253
756.91	231.862
758.398	234.2
759.887	243.059
761.375	246.577
762.863	243.185
764.352	241.746
765.84	244.631
767.328	244.026
768.816	240.818
770.305	241.713
771.793	246.642
773.281	249.316
774.77	255.044
776.258	245.69
777.746	237.98
779.235	253.005
780.723	245.602
782.211	258.224
783.7	257.836
785.188	251.842
786.676	259.004
788.164	250.933
789.653	258.644
791.141	254.111
792.629	266.547
794.118	256.243
795.606	246.744
797.094	261.498
798.583	282.8
800.071	260.421
801.559	265.92
803.047	272.174
804.536	271.852
806.024	266.238
807.512	270.136
809.001	278.616
810.489	267.698
811.977	268.651
813.466	272.383
814.954	280.728
816.442	272.74
817.931	288.571
819.419	265.703
820.907	270.823
822.395	289.27
823.884	290.683
825.372	281.631
826.86	278.708
828.349	276.069
829.837	287.843
831.325	281.978
832.814	286.909
834.302	281.424
835.79	283.793
837.279	288.916
838.767	288.504
840.255	283.028
841.743	277.893
843.232	276.663
844.72	280.029
846.208	291.174
847.697	277.286
849.185	288.604
850.673	287.885
852.162	289.256
853.65	286.233
855.138	290.84
856.627	285.917
858.115	282.631
859.603	279.38
861.091	285.018
862.58	281.219
864.068	276.923
865.556	276.669
867.045	260.011
868.533	272.394
870.021	270.708
871.51	271.639
872.998	269.046
874.486	274.502
875.974	270.083
877.463	261.167
878.951	248.643
880.439	261.947
881.928	258.654
883.416	263.088
884.904	247.397
886.393	245.42
887.881	246.47
889.369	244.593
890.858	244.513
892.346	250.379
893.834	227.302
895.322	244.447
896.811	236.536
898.299	233.984
899.787	230.835
901.276	230.956
902.764	218.954
904.252	223.716
905.741	228.941
907.229	218.979
908.717	212.123
910.206	216.721
911.694	212.175
913.182	203.065
914.67	230.188
916.159	221.154
917.647	222.785
919.135	210.256
920.624	214.867
922.112	203.941
923.6	203.362
925.089	209.105
926.577	215.617
928.065	211.38
929.554	200.413
931.042	211.367
932.53	208.921
934.018	216.699
935.507	219.299
936.995	200.003
938.483	205.497
939.972	216.239
941.46	197.003
942.948	203.678
944.437	210.253
945.925	207.404
947.413	207.109
948.901	201.768
950.39	209.227
951.878	221.084
953.366	207.021
954.855	197.687
956.343	206.746
957.831	212.623
959.32	198.634
960.808	214.737
962.296	210.228
963.785	201.235
965.273	206.469
966.761	195.467
968.249	208.834
969.738	215.78
971.226	215.575
972.714	202.563
974.203	212.867
975.691	210.946
977.179	206.162
978.668	206.084
980.156	210.799
981.644	208.012
983.133	221.881
984.621	219.406
986.109	213.121
987.597	224.579
989.086	222.082
990.574	223.934
992.062	225.446
993.551	221.898
995.039	220.242
996.527	223.605
998.016	235.972
999.504	224.666
1000.99	227.08
1002.48	226.358
1003.97	230.801
1005.46	234.322
1006.95	237.207
1008.43	232.047
1009.92	240.863
1011.41	240.687
1012.9	236.7
1014.39	238.135
1015.88	249.278
1017.36	238.5
1018.85	235.66
1020.34	247.048
1021.83	245.099
1023.32	251.471
1024.81	246.322
1026.29	262.307
1027.78	253.56
1029.27	261.411
1030.76	274.762
1032.25	293.865
1033.73	258.397
1035.22	266.742
1036.71	260.256
1038.2	281.376
1039.69	281.023
1041.18	271.585
1042.66	268.453
1044.15	278.934
1045.64	301.48
1047.13	289.491
1048.62	286.038
1050.11	290.376
1051.59	281.987
1053.08	290.25
1054.57	295.939
1056.06	284.365
1057.55	302.487
1059.04	285.958
1060.52	298.036
1062.01	294.074
1063.5	300.088
1064.99	291.266
1066.48	296.183
1067.97	298.823
1069.45	284.243
1070.94	299.923
1072.43	293.044
1073.92	304.017
1075.41	296.653
1076.9	308.402
1078.38	316.108
1079.87	315.737
1081.36	306.781
1082.85	305.903
1084.34	308.78
1085.83	308.947
1087.31	313.296
1088.8	317.477
1090.29	313.651
1091.78	308.472
1093.27	319.11
1094.76	314.386
1096.24	325.398
1097.73	322.211
1099.22	336.123
1100.71	328.483
1102.2	325.13
1103.69	333.675
1105.17	344.49
1106.66	336.009
1108.15	340.035
1109.64	351.799
1111.13	329.786
1112.62	349.592
1114.1	348.204
1115.59	349.789
1117.08	345.054
1118.57	344.006
1120.06	355.249
1121.55	359.508
1123.03	354.244
1124.52	356.203
1126.01	359.457
1127.5	363.344
1128.99	348.381
1130.47	351.854
1131.96	374.463
1133.45	371.827
1134.94	363.283
1136.43	379.285
1137.92	377
1139.4	382.96
1140.89	388.479
1142.38	385.531
1143.87	383.434
1145.36	395.791
1146.85	400.122
1148.33	382.983
1149.82	393.748
1151.31	418.438
1152.8	411.557
1154.29	425.964
1155.78	418.079
1157.26	427.293
1158.75	421.739
1160.24	403.338
1161.73	424.082
1163.22	441.247
1164.71	412.347
1166.19	414.413
1167.68	422.529
1169.17	433.242
1170.66	422.788
1172.15	427.059
1173.64	441.704
1175.12	437.16
1176.61	433.878
1178.1	434.988
1179.59	439.577
1181.08	434.252
1182.57	434.663
1184.05	417.623
1185.54	457.198
1187.03	442.379
1188.52	443.475
1190.01	459.876
1191.5	462.683
1192.98	461.789
1194.47	460.253
1195.96	456.486
1197.45	464.533
1198.94	449.394
1200.43	459.277
1201.91	494.193
1203.4	455.737
1204.89	475.905
1206.38	476.285
1207.87	483.097
1209.36	492.935
1210.84	480.051
1212.33	480
1213.82	488.675
1215.31	491.119
1216.8	494.61
1218.28	515.879
1219.77	498.432
1221.26	500.333
1222.75	518.922
1224.24	517.961
1225.73	530.32
1227.21	519.06
1228.7	544.026
1230.19	548.729
1231.68	552.633
1233.17	540.556
1234.66	537.545
1236.14	552.758
1237.63	565.544
1239.12	573.394
1240.61	560.622
1242.1	562.239
1243.59	578.658
1245.07	607.506
1246.56	587.43
1248.05	620.292
1249.54	601.439
1251.03	606.39
1252.52	613.116
1254	605.223
1255.49	628.302
1256.98	639.559
1258.47	646.301
1259.96	660.534
1261.45	667.533
1262.93	667.195
1264.42	678.055
1265.91	684.748
1267.4	693.193
1268.89	720.174
1270.38	701.464
1271.86	737.263
1273.35	738.963
1274.84	766.54
1276.33	762.699
1277.82	759.954
1279.31	822.266
1280.79	807.189
1282.28	805.915
1283.77	840.612
1285.26	831.476
1286.75	824.039
1288.24	881.698
1289.72	888.187
1291.21	889.874
1292.7	933.248
1294.19	933.273
1295.68	957.384
1297.17	960.255
1298.65	973.247
1300.14	1004.71
1301.63	1023.89
1303.12	1066.63
1304.61	1066.86
1306.09	1101.47
1307.58	1131.72
1309.07	1141.05
1310.56	1169.79
1312.05	1143.64
1313.54	1227.33
1315.02	1253.01
1316.51	1256
1318	1267.18
1319.49	1313.21
1320.98	1336.68
1322.47	1383.64
1323.95	1414.15
1325.44	1407.62
1326.93	1430.45
1328.42	1454.63
1329.91	1475.82
1331.4	1487.87
1332.88	1540.56
1334.37	1528.84
1335.86	1551.79
1337.35	1569.25
1338.84	1584.13
1340.33	1587.32
1341.81	1593.75
1343.3	1623.63
1344.79	1610.51
1346.28	1625.52
1347.77	1605.14
1349.26	1611.8
1350.74	1611.23
1352.23	1596.22
1353.72	1594.97
1355.21	1562.2
1356.7	1544.93
1358.19	1548.49
1359.67	1522.16
1361.16	1473.72
1362.65	1507.06
1364.14	1440.44
1365.63	1423.54
1367.12	1404.42
1368.6	1407.56
1370.09	1370.64
1371.58	1352.03
1373.07	1310.91
1374.56	1276.94
1376.05	1264.99
1377.53	1243.5
1379.02	1199.67
1380.51	1201.99
1382	1149.58
1383.49	1148.83
1384.98	1103.01
1386.46	1088.27
1387.95	1048.26
1389.44	1077.26
1390.93	1068.25
1392.42	1052.75
1393.91	1020.55
1395.39	1029.6
1396.88	975.964
1398.37	978.674
1399.86	966.699
1401.35	950.699
1402.83	926.413
1404.32	935.594
1405.81	903.22
1407.3	900.783
1408.79	873.285
1410.28	868.997
1411.76	870.345
1413.25	864.336
1414.74	864.22
1416.23	829.971
1417.72	847.37
1419.21	828.316
1420.69	853.776
1422.18	804.414
1423.67	824.212
1425.16	798.932
1426.65	788.466
1428.14	807.521
1429.62	763.978
1431.11	769.756
1432.6	772.227
1434.09	785.403
1435.58	748.495
1437.07	767.349
1438.55	738.206
1440.04	763.75
1441.53	727.116
1443.02	743.374
1444.51	742.035
1446	752.445
1447.48	713.102
1448.97	731.979
1450.46	731.521
1451.95	733.179
1453.44	728.684
1454.93	717.513
1456.41	716.597
1457.9	722.737
1459.39	713.32
1460.88	704.571
1462.37	716.207
1463.86	711.864
1465.34	715.707
1466.83	703.732
1468.32	706.587
1469.81	717.534
1471.3	709.94
1472.79	716.288
1474.27	707.495
1475.76	698.495
1477.25	694.422
1478.74	713.745
1480.23	722.781
1481.72	720.428
1483.2	711.565
1484.69	692.134
1486.18	717.021
1487.67	700.558
1489.16	717.934
1490.64	722.583
1492.13	725.255
1493.62	713.859
1495.11	720.054
1496.6	695.89
1498.09	718.798
1499.57	736.237
1501.06	699.889
1502.55	709.408
1504.04	708.653
1505.53	710.682
1507.02	725.21
1508.5	707.79
1509.99	724.533
1511.48	733.799
1512.97	732.931
1514.46	716.309
1515.95	728.143
1517.43	749.759
1518.92	757.181
1520.41	747.572
1521.9	738.784
1523.39	747.195
1524.88	793.093
1526.36	762.353
1527.85	769.819
1529.34	775.181
1530.83	784.589
1532.32	774.739
1533.81	806.107
1535.29	807.756
1536.78	816.928
1538.27	814.71
1539.76	823.401
1541.25	857.246
1542.74	821.468
1544.22	862.043
1545.71	892.104
1547.2	896.292
1548.69	885.04
1550.18	934.303
1551.67	956.107
1553.15	966.65
1554.64	985.47
1556.13	1024.83
1557.62	1028.4
1559.11	1060.06
1560.6	1024.77
1562.08	1091.75
1563.57	1096.63
1565.06	1109.88
1566.55	1123.35
1568.04	1176.41
1569.53	1209.13
1571.01	1208.84
1572.5	1267.97
1573.99	1266.17
1575.48	1298.38
1576.97	1324.13
1578.45	1337.68
1579.94	1366.79
1581.43	1389.22
1582.92	1428.61
1584.41	1403.43
1585.9	1462.37
1587.38	1433.72
1588.87	1448.23
1590.36	1463.97
1591.85	1505.86
1593.34	1505.76
1594.83	1491.92
1596.31	1467.63
1597.8	1481.45
1599.29	1506.91
1600.78	1444.18
1602.27	1473.85
1603.76	1453.87
1605.24	1467.87
1606.73	1426.16
1608.22	1436.29
1609.71	1377.69
1611.2	1314.76
1612.69	1335.65
1614.17	1303.97
1615.66	1262.96
1617.15	1246.21
1618.64	1219.21
1620.13	1189.48
1621.62	1140.82
1623.1	1102.02
1624.59	1016.82
1626.08	1016.75
1627.57	1011.94
1629.06	966.446
1630.55	876.011
1632.03	870.025
1633.52	831.626
1635.01	804.954
1636.5	782.876
1637.99	727.935
1639.48	712.302
1640.96	685.567
1642.45	685.925
1643.94	620.422
1645.43	607.583
1646.92	589.025
1648.41	568.936
1649.89	518.306
1651.38	519.432
1652.87	513.477
1654.36	491.633
1655.85	463.766
1657.34	444.488
1658.82	420.155
1660.31	422.168
1661.8	391.812
1663.29	394.707
1664.78	370.227
1666.27	345
1667.75	341.169
1669.24	316.892
1670.73	316.985
1672.22	293.5
1673.71	289.887
1675.19	309.319
1676.68	285.852
1678.17	257.005
1679.66	272.063
1681.15	252.888
1682.64	247.888
1684.12	230.643
1685.61	232.766
1687.1	220.028
1688.59	228.76
1690.08	214.814
1691.57	207.483
1693.05	198.444
1694.54	196.781
1696.03	195.489
1697.52	191.505
1699.01	192.379
1700.5	179.679
1701.98	171.783
1703.47	193.832
1704.96	178.849
1706.45	171.499
1707.94	178.722
1709.43	162.1
1710.91	170.715
1712.4	166.916
1713.89	165.004
1715.38	162.257
1716.87	157.869
1718.36	159.158
1719.84	158.878
1721.33	149.131
1722.82	155.129
1724.31	152.329
1725.8	152.142
1727.29	149.229
1728.77	153.401
1730.26	143.432
1731.75	137.319
1733.24	144.503
1734.73	144.19
1736.22	143.967
1737.7	140.604
1739.19	146.173
1740.68	134.792
1742.17	136.857
1743.66	141.994
1745.15	136.82
1746.63	137.397
1748.12	134.751
1749.61	131.832
1751.1	137.053
1752.59	140.371
1754.08	129.917
1755.56	136.04
1757.05	134.144
1758.54	135.564
1760.03	129.629
1761.52	128.008
1763.01	118.561
1764.49	133.54
1765.98	130.825
1767.47	131.385
1768.96	131.893
1770.45	128.089
1771.93	128.362
1773.42	127.258
1774.91	126.152
1776.4	124.964
1777.89	122.229
1779.38	129.39
1780.86	124.249
1782.35	122.882
1783.84	121.986
1785.33	123.198
1786.82	124.478
1788.31	127.007
1789.79	123.827
1791.28	121.605
1792.77	126.947
1794.26	120.235
1795.75	129.839
1797.24	116.86
1798.72	125.714
1800.21	121.542
1801.7	116.792
1803.19	117.952
1804.68	120.785
1806.17	120.724
1807.65	114.385
1809.14	109.303
1810.63	116.884
1812.12	122.506
1813.61	115.215
1815.1	116.631
1816.58	122.575
1818.07	116.675
1819.56	115.161
1821.05	109.801
1822.54	115.985
1824.03	102.745
1825.51	121.696
1827	122.073
1828.49	110.373
1829.98	112.485
1831.47	113.272
1832.96	108.888
1834.44	110.076
1835.93	117.675
1837.42	123.733
1838.91	114.161
1840.4	119.418
1841.89	113.596
1843.37	115.49
1844.86	114.162
1846.35	113.554
1847.84	116
1849.33	108.826
1850.82	123.521
1852.3	116.819
1853.79	108.096
1855.28	112.195
1856.77	117.419
1858.26	115.044
1859.74	110.365
1861.23	114.776
1862.72	112.974
1864.21	98.8595
1865.7	117.319
1867.19	108.075
1868.67	115.84
1870.16	111.382
1871.65	104.514
1873.14	114.606
1874.63	109.943
1876.12	103.598
1877.6	114.755
1879.09	105.164
1880.58	115.139
1882.07	119.887
1883.56	108.543
1885.05	115.22
1886.53	122.198
1888.02	117.718
1889.51	114.83
1891	110.844
1892.49	109.337
1893.98	108.126
1895.46	115.837
1896.95	118.879
1898.44	111.159
1899.93	113.911
1901.42	114.944
1902.91	119.901
1904.39	116.667
1905.88	112.799
1907.37	108.219
1908.86	108.112
1910.35	101.319
1911.84	104.707
1913.32	115.589
1914.81	111.333
1916.3	114.151
1917.79	113.202
1919.28	112.947
1920.77	108.824
1922.25	114.265
1923.74	112.894
1925.23	114.221
1926.72	111.238
1928.21	109.479
1929.7	117.074
1931.18	109.974
1932.67	108.14
1934.16	101.6
1935.65	113.163
1937.14	109.948
1938.63	113.186
1940.11	106.845
1941.6	116.724
1943.09	96.8266
1944.58	107.617
1946.07	109.358
1947.55	104.435
1949.04	104.496
1950.53	113.387
1952.02	107.031
1953.51	112.606
1955	121.423
1956.48	114.741
1957.97	114.485
1959.46	111.679
1960.95	112.275
1962.44	104.808
1963.93	102.717
1965.41	112.617
1966.9	107.83
1968.39	111.686
1969.88	102.918
1971.37	99.898
1972.86	109.438
1974.34	119.439
1975.83	113.656
1977.32	116.014
1978.81	115.03
1980.3	114.863
1981.79	115.584
1983.27	114.982
1984.76	111.829
1986.25	114.854
1987.74	124.561
1989.23	115.116
1990.72	111.437
1992.2	112.64
1993.69	117.553
1995.18	102.031
1996.67	118.858
1998.16	110.107
1999.65	114.957
2001.13	110.238
2002.62	111.408
2004.11	120.372
2005.6	109.001
2007.09	118.387
2008.58	116.344
2010.06	117.476
2011.55	120.481
2013.04	117.864
2014.53	113.811
2016.02	112.795
2017.51	111.595
2018.99	126.087
2020.48	101.09
2021.97	124.633
2023.46	121.979
2024.95	116.224
2026.44	112.192
2027.92	114.843
2029.41	108.015
2030.9	102.192
2032.39	119.952
2033.88	114.102
2035.36	123.028
2036.85	121.468
2038.34	123.264
2039.83	115.531
2041.32	119.721
2042.81	114.852
2044.29	115.209
2045.78	106.004
2047.27	123.194
2048.76	116.94
2050.25	114.169
2051.74	107.332
2053.22	122.476
2054.71	116.559
2056.2	114.486
2057.69	107.686
2059.18	113.76
2060.67	125.865
2062.15	120.696
2063.64	111.662
2065.13	109.678
2066.62	110.295
2068.11	118.825
2069.6	113.231
2071.08	113.223
2072.57	108.728
2074.06	110.837
2075.55	119.252
2077.04	111.034
2078.53	110.535
2080.01	115.636
2081.5	111.626
2082.99	107.708
2084.48	109.131
2085.97	116.804
2087.46	117.533
2088.94	115.603
2090.43	116.944
2091.92	113.538
2093.41	106.882
2094.9	112.002
2096.39	111.142
2097.87	112.507
2099.36	117.787
2100.85	109.362
2102.34	111.954
2103.83	112.249
2105.32	111.652
2106.8	114.613
2108.29	113.567
2109.78	116.521
2111.27	116.17
2112.76	118.522
2114.25	120.126
2115.73	100.597
2117.22	109.31
2118.71	118.904
2120.2	104.628
2121.69	115.278
2123.18	112.461
2124.66	119.836
2126.15	120.021
2127.64	112.581
2129.13	111.955
2130.62	112.29
2132.1	112.808
2133.59	111.923
2135.08	114.059
2136.57	113.848
2138.06	114.919
2139.55	109.614
2141.03	114.562
2142.52	113.721
2144.01	116.409
2145.5	113.75
2146.99	109.483
2148.48	116.423
2149.96	125.811
2151.45	114.323
2152.94	109.554
2154.43	119.725
2155.92	109.043
2157.41	117.432
2158.89	116.906
2160.38	113.474
2161.87	107.382
2163.36	114.461
2164.85	116.126
2166.34	114.366
2167.82	117.767
2169.31	120.402
2170.8	111.631
2172.29	124.732
2173.78	117.427
2175.27	109.523
2176.75	115.251
2178.24	111.374
2179.73	123.822
2181.22	118.109
2182.71	127.618
2184.2	119.463
2185.68	124.667
2187.17	122.108
2188.66	114.332
2190.15	122.376
2191.64	120.566
2193.13	119.698
2194.61	123.348
2196.1	116.988
2197.59	123.786
2199.08	110.739
2200.57	124.253
2202.06	122.245
2203.54	130.815
2205.03	124.85
2206.52	118.231
2208.01	111.702
2209.5	118.995
2210.99	135.848
2212.47	116.292
2213.96	120.637
2215.45	121.417
2216.94	112.001
2218.43	125.316
2219.92	117.052
2221.4	127.955
2222.89	106.925
2224.38	126.712
2225.87	119.733
2227.36	121.569
2228.84	120.754
2230.33	121.392
2231.82	118.467
2233.31	122.226
2234.8	120.874
2236.29	121.38
2237.77	121.03
2239.26	116.9
2240.75	132.598
2242.24	130.56
2243.73	125.434
2245.22	120.339
2246.7	117.392
2248.19	133.259
2249.68	123.797
2251.17	122.254
2252.66	121.787
2254.15	131.027
2255.63	124.155
2257.12	121.46
2258.61	131.463
2260.1	117.667
2261.59	130.462
2263.08	120.972
2264.56	118.379
2266.05	130.673
2267.54	123.92
2269.03	115.454
2270.52	125.48
2272.01	122.73
2273.49	128.076
2274.98	133.705
2276.47	122.285
2277.96	129.086
2279.45	127.059
2280.94	130.987
2282.42	130.731
2283.91	129.333
2285.4	129.107
2286.89	144.205
2288.38	129.955
2289.87	133.927
2291.35	124.835
2292.84	127.714
2294.33	129.825
2295.82	126.292
2297.31	126.346
2298.8	126.9
2300.28	129.728
2301.77	123.37
2303.26	129.102
2304.75	132.562
2306.24	123.77
2307.73	126.193
2309.21	122.962
2310.7	131.305
2312.19	127.661
2313.68	134.695
2315.17	137.344
2316.65	141.455
2318.14	131.683
2319.63	133.079
2321.12	123.835
2322.61	137.314
2324.1	135.496
2325.58	135.893
2327.07	156.145
2328.56	150.702
2330.05	194.082
2331.54	218.825
2333.03	182.028
2334.51	135.129
2336	128.381
2337.49	134.588
2338.98	147.648
2340.47	143.282
2341.96	144.524
2343.44	141.851
2344.93	142.653
2346.42	140.409
2347.91	145.262
2349.4	145.214
2350.89	145.635
2352.37	140.129
2353.86	146.525
2355.35	147.53
2356.84	136.94
2358.33	152.67
2359.82	146.914
2361.3	147.568
2362.79	136.703
2364.28	149.274
2365.77	155.032
2367.26	148.432
2368.75	144.353
2370.23	150.799
2371.72	161.22
2373.21	154.249
2374.7	147.087
2376.19	150.146
2377.68	151.692
2379.16	154.826
2380.65	158.865
2382.14	151.189
2383.63	160.107
2385.12	161.893
2386.61	153.862
2388.09	168.684
2389.58	165.105
2391.07	166.372
2392.56	167.304
2394.05	171.939
2395.54	169.187
2397.02	172.466
2398.51	168.421
2400	176.39