File: Example Data/Raman/CNT - TIM/Raytheon/Al foil/2010/06-08-10/Ola - B7 - top_2.txt
300	384.826
301.488	392.198
302.977	403.353
304.465	399.293
305.953	413.213
307.442	413.126
308.93	405.664
310.418	405.622
311.906	397.396
313.395	394.044
314.883	402.209
316.371	406.727
317.86	397.309
319.348	393.175
320.836	398.512
322.325	395.257
323.813	394.884
325.301	397.748
326.79	373.535
328.278	378.447
329.766	383.731
331.254	373.922
332.743	383.481
334.231	381.171
335.719	400.972
337.208	393.668
338.696	378.606
340.184	385.652
341.673	374.008
343.161	389.024
344.649	376.2
346.137	381.67
347.626	377.213
349.114	385.923
350.602	398.526
352.091	389.803
353.579	376.137
355.067	362.173
356.556	353.673
358.044	366.478
359.532	372.783
361.021	365.263
362.509	382.4
363.997	364.738
365.485	370.184
366.974	389.791
368.462	362.039
369.95	364.452
371.439	360.822
372.927	361.874
374.415	371.93
375.904	345.22
377.392	360.099
378.88	373.87
380.369	356.209
381.857	361.306
383.345	359.426
384.833	348.358
386.322	354.631
387.81	362.617
389.298	343.387
390.787	373.835
392.275	371.194
393.763	353.827
395.252	355.187
396.74	359.283
398.228	351.264
399.717	360.565
401.205	358.118
402.693	359.037
404.181	364.548
405.67	353.678
407.158	367.438
408.646	358.661
410.135	336.723
411.623	353.842
413.111	350.474
414.6	346.613
416.088	354.66
417.576	344.78
419.064	342.278
420.553	341.004
422.041	356.218
423.529	344.087
425.018	340.439
426.506	351.595
427.994	347.706
429.483	355.394
430.971	355.679
432.459	344.402
433.948	342.993
435.436	328.365
436.924	341.243
438.412	348.907
439.901	333.589
441.389	339.569
442.877	337.918
444.366	326.878
445.854	340.961
447.342	323.555
448.831	333.312
450.319	350.134
451.807	339.598
453.296	324.062
454.784	344.821
456.272	324.8
457.76	325.269
459.249	314.929
460.737	298.723
462.225	331.405
463.714	315.187
465.202	329.157
466.69	331.701
468.179	333.708
469.667	330.414
471.155	327.229
472.644	335.991
474.132	319.385
475.62	328.538
477.108	315.015
478.597	310.254
480.085	316.141
481.573	310.954
483.062	306.57
484.55	319.218
486.038	309.825
487.527	304.078
489.015	301.65
490.503	319.011
491.991	296.59
493.48	295.208
494.968	298.38
496.456	302.078
497.945	295.529
499.433	304.896
500.921	293.652
502.41	306.158
503.898	297.406
505.386	278.254
506.875	281.744
508.363	294.856
509.851	300.987
511.339	283.822
512.828	282.863
514.316	311.636
515.804	297.888
517.293	294.968
518.781	291.272
520.269	289.228
521.758	291.821
523.246	294.881
524.734	290.285
526.223	289.195
527.711	278.771
529.199	296.187
530.687	280.37
532.176	287.22
533.664	284.075
535.152	292.968
536.641	285.858
538.129	287.595
539.617	297.63
541.106	296.686
542.594	285.27
544.082	291.649
545.57	295.325
547.059	297.357
548.547	290.333
550.035	297.681
551.524	300.1
553.012	303.176
554.5	275.206
555.989	292.093
557.477	280.964
558.965	301.182
560.454	294.535
561.942	289.949
563.43	297.253
564.919	309.506
566.407	287.793
567.895	292.089
569.383	288.38
570.872	289.104
572.36	299.22
573.848	310.275
575.337	306.471
576.825	300.414
578.313	296.732
579.802	308.565
581.29	300.04
582.778	295.04
584.266	303.609
585.755	294.037
587.243	300.635
588.731	297.77
590.22	307.104
591.708	301.544
593.196	304.101
594.685	293.638
596.173	296.421
597.661	309.702
599.15	294.991
600.638	291.031
602.126	297.937
603.614	302.074
605.103	308.197
606.591	292.574
608.079	288.995
609.568	304.647
611.056	299.989
612.544	294.321
614.033	288.957
615.521	294.839
617.009	316.612
618.497	312.298
619.986	308.753
621.474	306.178
622.962	310.746
624.451	317.083
625.939	315.153
627.427	306.338
628.916	310.055
630.404	311.936
631.892	304.392
633.381	299.834
634.869	317.447
636.357	324.841
637.846	318.366
639.334	324.985
640.822	312.592
642.31	310.106
643.799	308.181
645.287	311.835
646.775	314.525
648.264	329.512
649.752	319.974
651.24	339.607
652.729	317.134
654.217	330.468
655.705	338.559
657.193	339.818
658.682	311.843
660.17	323.306
661.658	312.675
663.147	326.74
664.635	326.259
666.123	327.427
667.612	317.324
669.1	325.718
670.588	321.458
672.077	331.758
673.565	334.407
675.053	321.527
676.541	330.231
678.03	329.701
679.518	316.208
681.006	327.536
682.495	326.456
683.983	327.533
685.471	333.718
686.96	312.707
688.448	341.085
689.936	341.485
691.424	320.338
692.913	321.271
694.401	337.398
695.889	328.034
697.378	345.777
698.866	331.087
700.354	319.232
701.843	329.683
703.331	339.134
704.819	330.343
706.308	330.121
707.796	339.281
709.284	341.863
710.773	327.767
712.261	349.731
713.749	323.686
715.237	331.891
716.726	324.165
718.214	339.881
719.702	364.316
721.191	362.421
722.679	335.063
724.167	354.711
725.656	341.451
727.144	319.251
728.632	365.551
730.12	341.91
731.609	354.466
733.097	350.452
734.585	336.536
736.074	362.64
737.562	355.667
739.05	359.961
740.539	357.757
742.027	338.684
743.515	346.733
745.004	356.04
746.492	349.56
747.98	361.414
749.468	351.253
750.957	358.051
752.445	366.443
753.933	381.65
755.422	365.563
756.91	368.99
758.398	372.824
759.887	360.924
761.375	372.86
762.863	385.263
764.352	369.524
765.84	377.418
767.328	372.348
768.816	371.506
770.305	356.045
771.793	377.929
773.281	366.864
774.77	378.66
776.258	357.116
777.746	384.805
779.235	386.644
780.723	382.896
782.211	369.405
783.7	388.129
785.188	392.876
786.676	378.934
788.164	367.769
789.653	380.777
791.141	383.938
792.629	385.302
794.118	383.022
795.606	373.41
797.094	390.28
798.583	380.457
800.071	390.775
801.559	390.077
803.047	406.06
804.536	388.089
806.024	379.746
807.512	402.414
809.001	391.751
810.489	407.097
811.977	394.612
813.466	405.486
814.954	392.448
816.442	402.927
817.931	396.708
819.419	402.95
820.907	402.717
822.395	401.382
823.884	404.548
825.372	410.473
826.86	396.189
828.349	405.154
829.837	396.622
831.325	406.578
832.814	423.532
834.302	397.362
835.79	400.523
837.279	395.402
838.767	407.163
840.255	412.745
841.743	418.732
843.232	421.304
844.72	425.334
846.208	413.229
847.697	424.996
849.185	438.912
850.673	411.796
852.162	421.62
853.65	440.585
855.138	416.091
856.627	425.218
858.115	424.324
859.603	416.15
861.091	416.076
862.58	416.225
864.068	410.255
865.556	431.828
867.045	392.517
868.533	388.988
870.021	385.662
871.51	388.812
872.998	392.789
874.486	387.507
875.974	380.24
877.463	393.922
878.951	385.899
880.439	377.898
881.928	376.152
883.416	380.764
884.904	379.847
886.393	379.965
887.881	378.182
889.369	368.366
890.858	376.124
892.346	385.533
893.834	370.291
895.322	364.205
896.811	362.999
898.299	362.372
899.787	353.744
901.276	373.754
902.764	343.726
904.252	368.751
905.741	360.356
907.229	363.394
908.717	352.026
910.206	366.387
911.694	352.829
913.182	362.936
914.67	347.188
916.159	353.78
917.647	344.821
919.135	338.124
920.624	352.541
922.112	354.642
923.6	353.691
925.089	345.303
926.577	341.998
928.065	348.02
929.554	348.287
931.042	345.524
932.53	355.449
934.018	349.628
935.507	342.036
936.995	347.784
938.483	345.059
939.972	360.811
941.46	353.763
942.948	335.838
944.437	353.253
945.925	347.345
947.413	340.764
948.901	350.946
950.39	344.787
951.878	340.565
953.366	334.44
954.855	345.041
956.343	327.63
957.831	356.257
959.32	357.31
960.808	354.435
962.296	355.025
963.785	350.873
965.273	355.292
966.761	371.275
968.249	353.352
969.738	345.741
971.226	352.218
972.714	358.514
974.203	351.101
975.691	368.428
977.179	351.465
978.668	354.781
980.156	372.606
981.644	358.284
983.133	395.847
984.621	360.292
986.109	364.67
987.597	379.906
989.086	349.037
990.574	359.5
992.062	380.406
993.551	372.821
995.039	376.818
996.527	367.193
998.016	380.484
999.504	392.663
1000.99	392.537
1002.48	397.505
1003.97	388.072
1005.46	401.956
1006.95	393.659
1008.43	400.474
1009.92	403.466
1011.41	394.464
1012.9	408.379
1014.39	415.249
1015.88	416.051
1017.36	433.9
1018.85	423.822
1020.34	424.025
1021.83	425.887
1023.32	434.25
1024.81	427.168
1026.29	435.584
1027.78	442.22
1029.27	425.742
1030.76	461.557
1032.25	445.469
1033.73	462.273
1035.22	444.153
1036.71	446.707
1038.2	455.387
1039.69	473.723
1041.18	460.556
1042.66	456.214
1044.15	464.361
1045.64	474.57
1047.13	460.687
1048.62	467.172
1050.11	477.71
1051.59	504.124
1053.08	479.924
1054.57	480.287
1056.06	478.53
1057.55	482.729
1059.04	491.418
1060.52	485.81
1062.01	500.01
1063.5	487.841
1064.99	476.487
1066.48	494.083
1067.97	496.201
1069.45	481.876
1070.94	506.585
1072.43	503.891
1073.92	489.591
1075.41	502.267
1076.9	508.142
1078.38	502.988
1079.87	506.914
1081.36	519.622
1082.85	519.313
1084.34	514.331
1085.83	514.696
1087.31	514.593
1088.8	521.629
1090.29	516.284
1091.78	524.051
1093.27	537.46
1094.76	534.75
1096.24	537.565
1097.73	539.242
1099.22	551.468
1100.71	532.228
1102.2	542.66
1103.69	542.718
1105.17	559.552
1106.66	572.667
1108.15	558.764
1109.64	556.304
1111.13	545.473
1112.62	566.799
1114.1	569.281
1115.59	585.628
1117.08	574.138
1118.57	594.435
1120.06	592.766
1121.55	593.652
1123.03	584.244
1124.52	585.93
1126.01	587.661
1127.5	600.65
1128.99	602.143
1130.47	605.981
1131.96	620.497
1133.45	627.473
1134.94	609.901
1136.43	619.891
1137.92	638.263
1139.4	626.68
1140.89	637.103
1142.38	643.395
1143.87	637.767
1145.36	646.292
1146.85	637.873
1148.33	670.911
1149.82	664.164
1151.31	648.639
1152.8	681.363
1154.29	665.567
1155.78	675.674
1157.26	679.822
1158.75	676.326
1160.24	663.01
1161.73	681.48
1163.22	690.987
1164.71	704.054
1166.19	702.541
1167.68	696.266
1169.17	696.641
1170.66	712.73
1172.15	716.114
1173.64	718.919
1175.12	686.354
1176.61	713.902
1178.1	736.52
1179.59	735.859
1181.08	729.35
1182.57	724.102
1184.05	719.04
1185.54	724.051
1187.03	741.027
1188.52	745.688
1190.01	740.033
1191.5	753.595
1192.98	756.064
1194.47	770.954
1195.96	744.919
1197.45	748.323
1198.94	763.178
1200.43	792.558
1201.91	800.786
1203.4	805.129
1204.89	796.525
1206.38	814.263
1207.87	803.638
1209.36	804.796
1210.84	817.452
1212.33	821.672
1213.82	838.916
1215.31	842.706
1216.8	847.448
1218.28	864.163
1219.77	881.42
1221.26	849.167
1222.75	844.177
1224.24	866.71
1225.73	864.066
1227.21	898.044
1228.7	883.624
1230.19	891.729
1231.68	919.189
1233.17	918.065
1234.66	941.949
1236.14	933.719
1237.63	945.083
1239.12	945.001
1240.61	945.195
1242.1	964.998
1243.59	991.815
1245.07	995.237
1246.56	1034.54
1248.05	998.768
1249.54	1007.7
1251.03	1035.63
1252.52	1041.83
1254	1070.96
1255.49	1059.24
1256.98	1083.41
1258.47	1071.55
1259.96	1091.52
1261.45	1100.9
1262.93	1138.67
1264.42	1135.33
1265.91	1139.2
1267.4	1163.72
1268.89	1163.66
1270.38	1190.88
1271.86	1207.89
1273.35	1183.2
1274.84	1211.36
1276.33	1240.67
1277.82	1277.03
1279.31	1282.47
1280.79	1319.56
1282.28	1310.53
1283.77	1359.51
1285.26	1368.43
1286.75	1351.65
1288.24	1408.67
1289.72	1425.86
1291.21	1436.45
1292.7	1445.26
1294.19	1476.58
1295.68	1488.26
1297.17	1525.61
1298.65	1567.9
1300.14	1542.86
1301.63	1605.12
1303.12	1658.72
1304.61	1689.49
1306.09	1677.24
1307.58	1713.29
1309.07	1734.98
1310.56	1780.6
1312.05	1806.22
1313.54	1844.67
1315.02	1860.95
1316.51	1924.59
1318	1937.2
1319.49	1981.35
1320.98	2003.06
1322.47	1989.93
1323.95	2040.67
1325.44	2065.72
1326.93	2101.29
1328.42	2140.41
1329.91	2127.27
1331.4	2149.63
1332.88	2227.44
1334.37	2218.67
1335.86	2221.34
1337.35	2200.78
1338.84	2225.1
1340.33	2274.91
1341.81	2249.14
1343.3	2277.5
1344.79	2262.47
1346.28	2283.87
1347.77	2270.26
1349.26	2274.2
1350.74	2242.54
1352.23	2210.47
1353.72	2224.67
1355.21	2194.22
1356.7	2193.37
1358.19	2167.8
1359.67	2113.59
1361.16	2168.67
1362.65	2082.59
1364.14	2085.54
1365.63	2053.69
1367.12	2003.9
1368.6	1997.47
1370.09	1966.08
1371.58	1898.04
1373.07	1887.11
1374.56	1865.95
1376.05	1853.48
1377.53	1817.88
1379.02	1803.48
1380.51	1813.51
1382	1724.74
1383.49	1733.97
1384.98	1708.96
1386.46	1684.27
1387.95	1621.63
1389.44	1659.31
1390.93	1616.07
1392.42	1580.61
1393.91	1565.41
1395.39	1570.66
1396.88	1533.54
1398.37	1516.63
1399.86	1506.98
1401.35	1473.18
1402.83	1458.05
1404.32	1467.47
1405.81	1442.19
1407.3	1410.51
1408.79	1401.77
1410.28	1397.39
1411.76	1378.38
1413.25	1395.32
1414.74	1364.28
1416.23	1383.4
1417.72	1350.92
1419.21	1310.8
1420.69	1317.26
1422.18	1342.28
1423.67	1287.91
1425.16	1273.5
1426.65	1285.49
1428.14	1228.41
1429.62	1261.54
1431.11	1242.88
1432.6	1252.63
1434.09	1245.12
1435.58	1242.5
1437.07	1286.65
1438.55	1253.3
1440.04	1235.96
1441.53	1212.86
1443.02	1268.02
1444.51	1212.97
1446	1227.27
1447.48	1187.26
1448.97	1217.61
1450.46	1194.04
1451.95	1200.51
1453.44	1222.55
1454.93	1190.96
1456.41	1182.77
1457.9	1175.41
1459.39	1213.97
1460.88	1189.86
1462.37	1170.43
1463.86	1196.91
1465.34	1172.28
1466.83	1184.25
1468.32	1187.2
1469.81	1203.6
1471.3	1165.62
1472.79	1182.74
1474.27	1180.94
1475.76	1180.91
1477.25	1166.72
1478.74	1179.02
1480.23	1182.55
1481.72	1164.22
1483.2	1178.57
1484.69	1199.42
1486.18	1174.74
1487.67	1180.7
1489.16	1156.49
1490.64	1181.48
1492.13	1167.26
1493.62	1164.03
1495.11	1189.64
1496.6	1200.72
1498.09	1199.51
1499.57	1170.94
1501.06	1188.45
1502.55	1150.29
1504.04	1191.85
1505.53	1195.02
1507.02	1200.6
1508.5	1214.85
1509.99	1201.52
1511.48	1202.58
1512.97	1216.15
1514.46	1222.74
1515.95	1172.2
1517.43	1224.06
1518.92	1217.58
1520.41	1246.92
1521.9	1213.81
1523.39	1247.48
1524.88	1240.52
1526.36	1253.28
1527.85	1238.07
1529.34	1236.54
1530.83	1272.44
1532.32	1298.36
1533.81	1248.8
1535.29	1308.59
1536.78	1334.92
1538.27	1312.87
1539.76	1360.82
1541.25	1369.24
1542.74	1374.41
1544.22	1401.97
1545.71	1422.3
1547.2	1416.19
1548.69	1439.25
1550.18	1486.37
1551.67	1507.85
1553.15	1520.76
1554.64	1541.01
1556.13	1602.2
1557.62	1611.83
1559.11	1649.27
1560.6	1615.95
1562.08	1664.42
1563.57	1695.7
1565.06	1738.08
1566.55	1772.45
1568.04	1813.65
1569.53	1831.94
1571.01	1849.83
1572.5	1893.59
1573.99	1917.97
1575.48	1955.29
1576.97	1940.99
1578.45	2005.95
1579.94	2026.14
1581.43	2061.67
1582.92	2080.94
1584.41	2073.42
1585.9	2115.58
1587.38	2105.9
1588.87	2096.48
1590.36	2147.06
1591.85	2149.21
1593.34	2179.45
1594.83	2136.94
1596.31	2169.16
1597.8	2139.89
1599.29	2129.6
1600.78	2081.52
1602.27	2062.74
1603.76	2035.47
1605.24	2029.44
1606.73	2025.24
1608.22	1954.81
1609.71	1942.4
1611.2	1870.67
1612.69	1843.01
1614.17	1820.72
1615.66	1744.18
1617.15	1730.56
1618.64	1683.22
1620.13	1634.85
1621.62	1585.58
1623.1	1506.58
1624.59	1477.79
1626.08	1457.92
1627.57	1356.51
1629.06	1337.81
1630.55	1262.42
1632.03	1242.32
1633.52	1176.8
1635.01	1144.64
1636.5	1088.91
1637.99	1049.75
1639.48	1019.31
1640.96	987.417
1642.45	940.667
1643.94	933.653
1645.43	865.644
1646.92	852.668
1648.41	818.674
1649.89	804.116
1651.38	782.718
1652.87	739.099
1654.36	710.798
1655.85	692.272
1657.34	664.379
1658.82	654.237
1660.31	605.312
1661.8	594.932
1663.29	579.775
1664.78	557.937
1666.27	546.8
1667.75	531.207
1669.24	510.505
1670.73	485.857
1672.22	477.535
1673.71	484.68
1675.19	462.068
1676.68	443.159
1678.17	421.288
1679.66	412.636
1681.15	414.219
1682.64	396.217
1684.12	392.231
1685.61	373.473
1687.1	357.293
1688.59	355.721
1690.08	361.713
1691.57	352.176
1693.05	346.359
1694.54	330.976
1696.03	334.424
1697.52	313.609
1699.01	324.663
1700.5	311.17
1701.98	304.162
1703.47	302.779
1704.96	312.193
1706.45	302.708
1707.94	298.391
1709.43	311.008
1710.91	281.298
1712.4	295.698
1713.89	282.618
1715.38	272.22
1716.87	283.108
1718.36	277.85
1719.84	277.539
1721.33	281.087
1722.82	286.634
1724.31	271.194
1725.8	252.488
1727.29	258.979
1728.77	273.094
1730.26	261.629
1731.75	267.171
1733.24	266.086
1734.73	251.774
1736.22	248.878
1737.7	247.062
1739.19	251.288
1740.68	249.221
1742.17	243.617
1743.66	245.807
1745.15	250.86
1746.63	240.277
1748.12	235.402
1749.61	242.967
1751.1	237.89
1752.59	242.343
1754.08	235.538
1755.56	239.58
1757.05	238.824
1758.54	233.64
1760.03	235.008
1761.52	235.453
1763.01	224.578
1764.49	233.55
1765.98	236.473
1767.47	228.422
1768.96	232.883
1770.45	232.221
1771.93	233.632
1773.42	217.406
1774.91	222.828
1776.4	226.801
1777.89	228.474
1779.38	231.961
1780.86	219.152
1782.35	224.703
1783.84	217.063
1785.33	217.576
1786.82	215.962
1788.31	219.1
1789.79	215.412
1791.28	228.925
1792.77	223.135
1794.26	217.854
1795.75	222.152
1797.24	227.247
1798.72	225.568
1800.21	215.208
1801.7	218.273
1803.19	214.518
1804.68	218.021
1806.17	205.673
1807.65	212.478
1809.14	209.907
1810.63	213.515
1812.12	197.855
1813.61	205.156
1815.1	213.442
1816.58	206.724
1818.07	209.66
1819.56	213.376
1821.05	204.81
1822.54	213.015
1824.03	212.117
1825.51	214.717
1827	209.643
1828.49	202.916
1829.98	211.835
1831.47	217.061
1832.96	221.385
1834.44	208.4
1835.93	204.677
1837.42	216.685
1838.91	204.408
1840.4	205.076
1841.89	199.129
1843.37	205.37
1844.86	212.93
1846.35	212.337
1847.84	211.355
1849.33	216.071
1850.82	198.883
1852.3	217.493
1853.79	201.065
1855.28	209.685
1856.77	205.982
1858.26	201.748
1859.74	206.016
1861.23	223.151
1862.72	208.615
1864.21	194.1
1865.7	206.404
1867.19	203.474
1868.67	203.37
1870.16	194.881
1871.65	205.532
1873.14	204.709
1874.63	198.816
1876.12	206.169
1877.6	193.451
1879.09	196.916
1880.58	196.148
1882.07	195.983
1883.56	207.895
1885.05	197.038
1886.53	209.986
1888.02	197.19
1889.51	213.02
1891	196.489
1892.49	198.997
1893.98	200.292
1895.46	197.608
1896.95	199.109
1898.44	201.37
1899.93	194.463
1901.42	189.138
1902.91	195.696
1904.39	200.963
1905.88	175.906
1907.37	200.98
1908.86	199.148
1910.35	206.371
1911.84	197.341
1913.32	195.304
1914.81	207.765
1916.3	194.456
1917.79	195.747
1919.28	190.964
1920.77	206.452
1922.25	190.027
1923.74	181.876
1925.23	192.749
1926.72	205.811
1928.21	191.201
1929.7	202.222
1931.18	195.041
1932.67	196.477
1934.16	197.449
1935.65	206.874
1937.14	199.343
1938.63	189.913
1940.11	196.11
1941.6	201.348
1943.09	182.154
1944.58	192.617
1946.07	195.477
1947.55	198.23
1949.04	194.272
1950.53	198.377
1952.02	184.541
1953.51	188.226
1955	202.926
1956.48	198.892
1957.97	193.538
1959.46	197.819
1960.95	199.397
1962.44	196.99
1963.93	202.042
1965.41	199.98
1966.9	209.523
1968.39	202.981
1969.88	191.038
1971.37	194.744
1972.86	207.791
1974.34	194.825
1975.83	195.237
1977.32	198.175
1978.81	205.817
1980.3	194.819
1981.79	188.261
1983.27	195.564
1984.76	197.711
1986.25	200.519
1987.74	199.893
1989.23	206.159
1990.72	204.037
1992.2	204.7
1993.69	191.993
1995.18	195.319
1996.67	189.823
1998.16	191.969
1999.65	194.672
2001.13	199.813
2002.62	195.26
2004.11	196.266
2005.6	190.725
2007.09	199.404
2008.58	203.673
2010.06	202.676
2011.55	194.411
2013.04	209.403
2014.53	204.004
2016.02	203.37
2017.51	199.923
2018.99	203.87
2020.48	204.389
2021.97	205.773
2023.46	194.727
2024.95	200.614
2026.44	205.197
2027.92	190.045
2029.41	187.354
2030.9	209.383
2032.39	203.089
2033.88	204.181
2035.36	210.488
2036.85	205.194
2038.34	199.333
2039.83	202.864
2041.32	198.458
2042.81	195.39
2044.29	214.335
2045.78	198.859
2047.27	209.127
2048.76	204.837
2050.25	196.802
2051.74	197.853
2053.22	208.724
2054.71	199.252
2056.2	201.667
2057.69	202.226
2059.18	209.32
2060.67	206.811
2062.15	200.06
2063.64	197.526
2065.13	199.264
2066.62	198.035
2068.11	200.603
2069.6	195.153
2071.08	205.519
2072.57	206.703
2074.06	190.291
2075.55	194.616
2077.04	201.972
2078.53	204.784
2080.01	194.691
2081.5	186.688
2082.99	197.123
2084.48	198.478
2085.97	190.96
2087.46	201.486
2088.94	191.993
2090.43	195.31
2091.92	201.364
2093.41	195.947
2094.9	191.425
2096.39	200.525
2097.87	198.207
2099.36	195.823
2100.85	197.967
2102.34	201.215
2103.83	205.058
2105.32	203.879
2106.8	191.166
2108.29	212.811
2109.78	208.066
2111.27	200.481
2112.76	196.057
2114.25	195.486
2115.73	195.284
2117.22	197.734
2118.71	203.195
2120.2	206.474
2121.69	208.103
2123.18	201.713
2124.66	201.669
2126.15	200.046
2127.64	183.094
2129.13	195.932
2130.62	201.191
2132.1	202.425
2133.59	192.109
2135.08	207.316
2136.57	214.958
2138.06	195.729
2139.55	206.341
2141.03	202
2142.52	206.068
2144.01	213.319
2145.5	198.029
2146.99	223.781
2148.48	196.282
2149.96	199.664
2151.45	193.679
2152.94	207.803
2154.43	201.678
2155.92	198.919
2157.41	193.793
2158.89	200.52
2160.38	200.941
2161.87	196.357
2163.36	209.664
2164.85	206.497
2166.34	205.522
2167.82	204.787
2169.31	210.735
2170.8	197.564
2172.29	209.083
2173.78	195.828
2175.27	206.206
2176.75	196.025
2178.24	205.434
2179.73	212.786
2181.22	195.502
2182.71	211.33
2184.2	214.631
2185.68	199.069
2187.17	208.028
2188.66	189.711
2190.15	200.055
2191.64	195.512
2193.13	208.89
2194.61	209.958
2196.1	198.499
2197.59	199.019
2199.08	215.02
2200.57	205.024
2202.06	199.264
2203.54	200.542
2205.03	204.172
2206.52	221.79
2208.01	207.793
2209.5	205.043
2210.99	199.031
2212.47	205.115
2213.96	214.93
2215.45	197.335
2216.94	203.651
2218.43	207.274
2219.92	213.668
2221.4	202.378
2222.89	210.814
2224.38	202.751
2225.87	198.968
2227.36	208.095
2228.84	206.967
2230.33	206.65
2231.82	224.572
2233.31	218.702
2234.8	214.728
2236.29	204.158
2237.77	213.767
2239.26	218.237
2240.75	217.185
2242.24	205.759
2243.73	208.247
2245.22	204.388
2246.7	219.114
2248.19	204.202
2249.68	211.378
2251.17	215.579
2252.66	198.185
2254.15	205.929
2255.63	214.654
2257.12	199.778
2258.61	212.659
2260.1	213.624
2261.59	215.989
2263.08	225.983
2264.56	208.43
2266.05	216.66
2267.54	220.594
2269.03	213.575
2270.52	211.608
2272.01	210.206
2273.49	224.769
2274.98	216.539
2276.47	214.359
2277.96	198.246
2279.45	228.079
2280.94	222.097
2282.42	222.704
2283.91	217.416
2285.4	213.449
2286.89	228.658
2288.38	222.274
2289.87	224.44
2291.35	218.333
2292.84	230.715
2294.33	221.352
2295.82	216.778
2297.31	216.388
2298.8	211.381
2300.28	228.827
2301.77	218.917
2303.26	225.014
2304.75	231.59
2306.24	231.219
2307.73	239.508
2309.21	212.532
2310.7	226.943
2312.19	213.736
2313.68	230.525
2315.17	217.316
2316.65	230.409
2318.14	227.722
2319.63	231.69
2321.12	237.653
2322.61	220.616
2324.1	234.63
2325.58	240.193
2327.07	242.404
2328.56	263.36
2330.05	293.794
2331.54	316.907
2333.03	257.196
2334.51	235.496
2336	225.218
2337.49	234.089
2338.98	229.828
2340.47	234.471
2341.96	228.397
2343.44	240.113
2344.93	239.78
2346.42	229.199
2347.91	232.836
2349.4	227.291
2350.89	235.286
2352.37	246.484
2353.86	232.396
2355.35	230.86
2356.84	245.294
2358.33	242.983
2359.82	243.138
2361.3	235.076
2362.79	234.775
2364.28	248.494
2365.77	245.114
2367.26	242.895
2368.75	235.118
2370.23	255.377
2371.72	256.29
2373.21	247.863
2374.7	262.399
2376.19	247.096
2377.68	250.234
2379.16	253.839
2380.65	248.46
2382.14	259.16
2383.63	255.06
2385.12	243.053
2386.61	265.05
2388.09	267.217
2389.58	254.243
2391.07	256.341
2392.56	263.941
2394.05	276.352
2395.54	268.27
2397.02	276.008
2398.51	256.142
2400	265.517