File: Example Data/Raman/CNT - TIM/Raytheon/Al foil/2010/06-08-10/Ola - B9 - bottom_2.txt
300	243.737
301.488	249.28
302.977	244.85
304.465	270.795
305.953	255.509
307.442	251.484
308.93	257.224
310.418	244.691
311.906	248.694
313.395	240.207
314.883	242.124
316.371	245.218
317.86	247.786
319.348	246.059
320.836	249.301
322.325	245.664
323.813	237.032
325.301	250.332
326.79	245.391
328.278	259.402
329.766	253.592
331.254	253.11
332.743	245.897
334.231	233.809
335.719	256.546
337.208	243.2
338.696	240.896
340.184	250.313
341.673	232.331
343.161	224.452
344.649	238.924
346.137	232.104
347.626	234.479
349.114	242.941
350.602	225.758
352.091	229.482
353.579	240.657
355.067	223.939
356.556	241.92
358.044	232.834
359.532	229.42
361.021	232.782
362.509	238.323
363.997	233.582
365.485	229.988
366.974	221.542
368.462	238.3
369.95	237.387
371.439	240.477
372.927	215.729
374.415	225.685
375.904	224.897
377.392	236.416
378.88	232.927
380.369	226.773
381.857	212.136
383.345	232.26
384.833	228.905
386.322	226.581
387.81	225.393
389.298	221.656
390.787	225.507
392.275	234.915
393.763	227.311
395.252	236.773
396.74	219.752
398.228	241.42
399.717	222.35
401.205	222.678
402.693	223.709
404.181	211.784
405.67	217.665
407.158	212.308
408.646	219.374
410.135	211.676
411.623	215.79
413.111	217.209
414.6	219.171
416.088	212.118
417.576	221.23
419.064	220.383
420.553	209.068
422.041	219.446
423.529	220.185
425.018	212.513
426.506	211.298
427.994	213.925
429.483	220.976
430.971	208.14
432.459	217.562
433.948	211.484
435.436	220.703
436.924	204.863
438.412	202.131
439.901	216.628
441.389	207.567
442.877	226.096
444.366	203.483
445.854	214.435
447.342	205.888
448.831	209.682
450.319	198.039
451.807	201.4
453.296	207.21
454.784	217.772
456.272	210.35
457.76	198.394
459.249	204.642
460.737	199.865
462.225	210.423
463.714	205.336
465.202	199.672
466.69	211.978
468.179	207.205
469.667	200.008
471.155	201.843
472.644	194.95
474.132	205.104
475.62	199.86
477.108	207.957
478.597	206.227
480.085	186.729
481.573	196.736
483.062	201.898
484.55	186.872
486.038	194.283
487.527	198.622
489.015	186.241
490.503	180.661
491.991	177.769
493.48	188.059
494.968	174.549
496.456	194.49
497.945	202.016
499.433	185.479
500.921	186.564
502.41	186.634
503.898	181.174
505.386	171.453
506.875	187.067
508.363	164.442
509.851	185.214
511.339	179.72
512.828	188.706
514.316	179.264
515.804	182.798
517.293	184.536
518.781	172.928
520.269	181.094
521.758	179.064
523.246	179.101
524.734	175.417
526.223	181.684
527.711	174.627
529.199	165.323
530.687	177.643
532.176	178.005
533.664	179.335
535.152	170.941
536.641	183.142
538.129	169.347
539.617	169.833
541.106	181.159
542.594	172.207
544.082	179.172
545.57	174.568
547.059	184.259
548.547	178.223
550.035	175.479
551.524	179.126
553.012	176.38
554.5	185.019
555.989	180.987
557.477	181.156
558.965	186.432
560.454	185.235
561.942	186.179
563.43	176.715
564.919	188.891
566.407	178.354
567.895	191.79
569.383	181.103
570.872	188.927
572.36	171.171
573.848	190.589
575.337	186.236
576.825	189.497
578.313	178.445
579.802	191.9
581.29	187.878
582.778	194.43
584.266	191.807
585.755	177.445
587.243	179.777
588.731	189.262
590.22	182.368
591.708	191.813
593.196	179.924
594.685	192.688
596.173	194.523
597.661	190.366
599.15	191.802
600.638	175.479
602.126	189.659
603.614	191.216
605.103	189.938
606.591	166.8
608.079	199.067
609.568	189.294
611.056	187.237
612.544	204.248
614.033	183.099
615.521	203.641
617.009	187
618.497	186.795
619.986	202.601
621.474	194.619
622.962	190.37
624.451	196.027
625.939	197.058
627.427	195.002
628.916	193.474
630.404	210.589
631.892	206.088
633.381	215.336
634.869	213.315
636.357	193.056
637.846	201.607
639.334	189.113
640.822	186.618
642.31	201.659
643.799	189.062
645.287	208.706
646.775	197.645
648.264	218.326
649.752	197.752
651.24	205.717
652.729	207.311
654.217	195.369
655.705	211.553
657.193	210.939
658.682	212.773
660.17	211.831
661.658	207.611
663.147	210.259
664.635	206.087
666.123	205.858
667.612	211.531
669.1	203.585
670.588	200.676
672.077	206.195
673.565	201.928
675.053	221.834
676.541	216.667
678.03	223.521
679.518	208.395
681.006	209.298
682.495	212.674
683.983	215.393
685.471	214.252
686.96	206.648
688.448	204.686
689.936	219.401
691.424	212.431
692.913	215.891
694.401	220.212
695.889	219.157
697.378	209.334
698.866	219.608
700.354	219.021
701.843	220.931
703.331	220.027
704.819	222.851
706.308	224.847
707.796	228.86
709.284	225.294
710.773	232.947
712.261	237.973
713.749	229.643
715.237	214.389
716.726	231.472
718.214	217.824
719.702	239.754
721.191	230.668
722.679	227.051
724.167	244.684
725.656	235.121
727.144	226.344
728.632	237.418
730.12	235.218
731.609	239.324
733.097	241.591
734.585	237.753
736.074	248.389
737.562	249.25
739.05	240.138
740.539	240.985
742.027	251.144
743.515	239.236
745.004	255.001
746.492	241.362
747.98	236.718
749.468	250.272
750.957	269.33
752.445	258.18
753.933	256.925
755.422	259.987
756.91	256.329
758.398	267.347
759.887	264.31
761.375	302.631
762.863	298.306
764.352	359.996
765.84	264.164
767.328	256.974
768.816	258.356
770.305	272.227
771.793	252.668
773.281	269.102
774.77	254.629
776.258	262.202
777.746	273.666
779.235	253.345
780.723	266.107
782.211	272.875
783.7	269.578
785.188	279.207
786.676	269.914
788.164	268.96
789.653	273.888
791.141	289.782
792.629	274.227
794.118	274.823
795.606	281.41
797.094	282.377
798.583	272.876
800.071	285.387
801.559	281.603
803.047	290.04
804.536	288.444
806.024	277.249
807.512	278.066
809.001	292.915
810.489	292.623
811.977	281.592
813.466	283.319
814.954	305.777
816.442	289.667
817.931	299.051
819.419	288.783
820.907	301.342
822.395	299.561
823.884	298.966
825.372	291.949
826.86	281.642
828.349	299.573
829.837	288.957
831.325	300.479
832.814	298.851
834.302	286.026
835.79	297.533
837.279	305.401
838.767	302.453
840.255	302.253
841.743	306.397
843.232	305.992
844.72	309.494
846.208	312.691
847.697	310.443
849.185	304.837
850.673	314.28
852.162	309.169
853.65	309
855.138	294.114
856.627	304.192
858.115	318.578
859.603	312.708
861.091	302.926
862.58	303.522
864.068	306.814
865.556	292.314
867.045	298.161
868.533	285.702
870.021	290.572
871.51	287.043
872.998	274.679
874.486	270.002
875.974	284.062
877.463	280.278
878.951	270.115
880.439	288.031
881.928	268.743
883.416	269.91
884.904	274.577
886.393	269.967
887.881	266.273
889.369	266.705
890.858	255.527
892.346	245.931
893.834	260.096
895.322	255.802
896.811	258.087
898.299	245.261
899.787	251.731
901.276	244.414
902.764	239.861
904.252	250.137
905.741	230.714
907.229	231.073
908.717	247.925
910.206	235.936
911.694	231.011
913.182	225.001
914.67	240.927
916.159	242.851
917.647	224.482
919.135	217.821
920.624	237.432
922.112	228.65
923.6	228.786
925.089	222.283
926.577	215.525
928.065	224.407
929.554	222.137
931.042	230.041
932.53	222.756
934.018	219.365
935.507	226.831
936.995	218.08
938.483	223.99
939.972	229
941.46	232.967
942.948	234.116
944.437	234.987
945.925	226.655
947.413	221.371
948.901	234.343
950.39	226.173
951.878	227.031
953.366	220.312
954.855	241.276
956.343	231.131
957.831	230.727
959.32	224.711
960.808	239.99
962.296	223.065
963.785	213.667
965.273	233.681
966.761	216.483
968.249	227.984
969.738	227.654
971.226	220.068
972.714	219.441
974.203	227.24
975.691	229.559
977.179	221.001
978.668	223.876
980.156	237.464
981.644	238.986
983.133	242.557
984.621	233.378
986.109	230.182
987.597	246.465
989.086	245.476
990.574	241.787
992.062	236.871
993.551	255.146
995.039	247.26
996.527	251.149
998.016	264.365
999.504	244.331
1000.99	250.598
1002.48	241.111
1003.97	265.901
1005.46	249.9
1006.95	256.591
1008.43	262.693
1009.92	255.667
1011.41	266.533
1012.9	266.836
1014.39	276.948
1015.88	282.239
1017.36	282.658
1018.85	262.445
1020.34	277.492
1021.83	277.864
1023.32	284.611
1024.81	291.83
1026.29	293.211
1027.78	279.445
1029.27	294.418
1030.76	285.728
1032.25	292.588
1033.73	282.405
1035.22	308.745
1036.71	303.517
1038.2	300.609
1039.69	315.517
1041.18	312.515
1042.66	308.251
1044.15	314.403
1045.64	327.003
1047.13	304.218
1048.62	338.423
1050.11	317.528
1051.59	318.63
1053.08	324.274
1054.57	327.948
1056.06	323.082
1057.55	335.549
1059.04	325.695
1060.52	338.42
1062.01	342.194
1063.5	329.488
1064.99	339.903
1066.48	340.51
1067.97	334.994
1069.45	335.664
1070.94	349.401
1072.43	338.186
1073.92	338.517
1075.41	345.811
1076.9	362.086
1078.38	352.169
1079.87	345.858
1081.36	351.819
1082.85	352.237
1084.34	356.965
1085.83	360.732
1087.31	347.282
1088.8	357.812
1090.29	367.036
1091.78	373.88
1093.27	366.605
1094.76	369.572
1096.24	360.421
1097.73	370.584
1099.22	368.308
1100.71	372.296
1102.2	380.54
1103.69	376.408
1105.17	381.209
1106.66	387.236
1108.15	374.244
1109.64	391.495
1111.13	393.335
1112.62	405.412
1114.1	399.842
1115.59	404.625
1117.08	414.525
1118.57	410.472
1120.06	413.053
1121.55	417.769
1123.03	407.215
1124.52	422.037
1126.01	408.752
1127.5	420.137
1128.99	422.554
1130.47	427.569
1131.96	449.374
1133.45	432.506
1134.94	438.396
1136.43	449.783
1137.92	462.259
1139.4	453.563
1140.89	455.369
1142.38	460.592
1143.87	496.201
1145.36	488.692
1146.85	499.265
1148.33	511.984
1149.82	509.586
1151.31	517.403
1152.8	511.488
1154.29	520.877
1155.78	531.264
1157.26	520.453
1158.75	529.285
1160.24	552.996
1161.73	530.364
1163.22	556.593
1164.71	547.816
1166.19	563.085
1167.68	547.119
1169.17	565.893
1170.66	566.09
1172.15	559.261
1173.64	564.041
1175.12	558.549
1176.61	572.578
1178.1	558.761
1179.59	592.344
1181.08	586.426
1182.57	568.472
1184.05	580.401
1185.54	592.196
1187.03	584.096
1188.52	589.182
1190.01	591.411
1191.5	608.436
1192.98	593.38
1194.47	582.702
1195.96	607.928
1197.45	629.243
1198.94	619.253
1200.43	598.715
1201.91	606.659
1203.4	631.387
1204.89	637.713
1206.38	627.562
1207.87	633.678
1209.36	648.065
1210.84	638.008
1212.33	639.375
1213.82	660.114
1215.31	655.399
1216.8	682.324
1218.28	682.427
1219.77	657.705
1221.26	662.511
1222.75	696.213
1224.24	677.174
1225.73	682.957
1227.21	691.062
1228.7	714.686
1230.19	717.954
1231.68	709.302
1233.17	720.745
1234.66	721.221
1236.14	736.289
1237.63	726.085
1239.12	748.123
1240.61	757.144
1242.1	745.203
1243.59	740.926
1245.07	784.984
1246.56	779.551
1248.05	827.362
1249.54	805.376
1251.03	782.886
1252.52	792.285
1254	817.705
1255.49	826.288
1256.98	848.351
1258.47	846.418
1259.96	841.502
1261.45	865.081
1262.93	909.917
1264.42	895.525
1265.91	927.208
1267.4	913.496
1268.89	908.11
1270.38	930.215
1271.86	959.991
1273.35	973.794
1274.84	1000.4
1276.33	1009.04
1277.82	1036.91
1279.31	1056.68
1280.79	1051.85
1282.28	1048.81
1283.77	1089.92
1285.26	1099.53
1286.75	1107.96
1288.24	1159.41
1289.72	1178.96
1291.21	1202.56
1292.7	1225.07
1294.19	1237.17
1295.68	1261.57
1297.17	1290.62
1298.65	1321.28
1300.14	1308.1
1301.63	1354.59
1303.12	1382.82
1304.61	1416.3
1306.09	1434.36
1307.58	1462.06
1309.07	1454.84
1310.56	1512.86
1312.05	1554.34
1313.54	1550.4
1315.02	1613.04
1316.51	1627.79
1318	1675.43
1319.49	1674.84
1320.98	1690.37
1322.47	1767.32
1323.95	1794.54
1325.44	1806.76
1326.93	1847.47
1328.42	1889.09
1329.91	1887.31
1331.4	1909.57
1332.88	1936.05
1334.37	1956.13
1335.86	1953.63
1337.35	1960.32
1338.84	1992.18
1340.33	2008.96
1341.81	2048.04
1343.3	2059.98
1344.79	2063.96
1346.28	2025.26
1347.77	2012.11
1349.26	2064.52
1350.74	2038.54
1352.23	2015.57
1353.72	2021.39
1355.21	1995.82
1356.7	1962.66
1358.19	1945.03
1359.67	1984.35
1361.16	1926.52
1362.65	1891.42
1364.14	1896.48
1365.63	1823.06
1367.12	1785.87
1368.6	1800.55
1370.09	1738.67
1371.58	1744.67
1373.07	1698.26
1374.56	1671.43
1376.05	1654.05
1377.53	1592.73
1379.02	1590.48
1380.51	1592.35
1382	1555.27
1383.49	1514.95
1384.98	1474.19
1386.46	1499.46
1387.95	1406.35
1389.44	1413.87
1390.93	1374.87
1392.42	1336.39
1393.91	1372.6
1395.39	1328.41
1396.88	1300.66
1398.37	1282.67
1399.86	1242.42
1401.35	1257.99
1402.83	1259.01
1404.32	1223.57
1405.81	1168.79
1407.3	1172.77
1408.79	1160.45
1410.28	1137.03
1411.76	1113.69
1413.25	1114
1414.74	1106.3
1416.23	1116.46
1417.72	1093.63
1419.21	1071.03
1420.69	1062.04
1422.18	1040.91
1423.67	1033.77
1425.16	1013.45
1426.65	1037.64
1428.14	1020.47
1429.62	997.642
1431.11	996.31
1432.6	991.134
1434.09	1013.9
1435.58	947.693
1437.07	961.427
1438.55	986.779
1440.04	955.26
1441.53	984.416
1443.02	961.439
1444.51	937.688
1446	953.27
1447.48	942.803
1448.97	933.491
1450.46	940.038
1451.95	933.156
1453.44	928.207
1454.93	927.884
1456.41	924.619
1457.9	949.563
1459.39	909.023
1460.88	930.595
1462.37	918.755
1463.86	912.529
1465.34	903.293
1466.83	923.958
1468.32	913.313
1469.81	906.097
1471.3	903.988
1472.79	914.054
1474.27	906.962
1475.76	884.188
1477.25	917.578
1478.74	920.462
1480.23	907.353
1481.72	915.705
1483.2	900.617
1484.69	915.152
1486.18	905.032
1487.67	886.591
1489.16	909.459
1490.64	891.121
1492.13	905.928
1493.62	902.699
1495.11	905.632
1496.6	895.801
1498.09	899.813
1499.57	895.39
1501.06	905.024
1502.55	915.919
1504.04	924.627
1505.53	878.956
1507.02	898.315
1508.5	901.314
1509.99	915.793
1511.48	902.657
1512.97	913.152
1514.46	934.032
1515.95	929.223
1517.43	920.327
1518.92	932.73
1520.41	934.534
1521.9	939.99
1523.39	933.241
1524.88	959.4
1526.36	957.824
1527.85	954.603
1529.34	957.899
1530.83	964.544
1532.32	955.378
1533.81	976.981
1535.29	1005.38
1536.78	995.892
1538.27	971.297
1539.76	1022.01
1541.25	1010.57
1542.74	1031.7
1544.22	1030.6
1545.71	1061.77
1547.2	1056.49
1548.69	1072.91
1550.18	1118.57
1551.67	1125.94
1553.15	1145.88
1554.64	1173.85
1556.13	1201.6
1557.62	1228.17
1559.11	1198.3
1560.6	1218.99
1562.08	1240.11
1563.57	1293.58
1565.06	1337.59
1566.55	1350.83
1568.04	1381.26
1569.53	1393.03
1571.01	1446.82
1572.5	1472.35
1573.99	1492.22
1575.48	1518.16
1576.97	1581.23
1578.45	1606.19
1579.94	1610.84
1581.43	1679.95
1582.92	1702.01
1584.41	1765.07
1585.9	1762.3
1587.38	1843.5
1588.87	1875.74
1590.36	1913.49
1591.85	1943.77
1593.34	1973.92
1594.83	1952.85
1596.31	2002.21
1597.8	2007.71
1599.29	2026.89
1600.78	2025.31
1602.27	2013.37
1603.76	2036.41
1605.24	1976.76
1606.73	2028.62
1608.22	1944.71
1609.71	1965.09
1611.2	1955.48
1612.69	1912.67
1614.17	1872.94
1615.66	1815.35
1617.15	1755.88
1618.64	1736.96
1620.13	1638.1
1621.62	1592.49
1623.1	1570.84
1624.59	1488.87
1626.08	1432.52
1627.57	1354.51
1629.06	1328.17
1630.55	1213.43
1632.03	1180.75
1633.52	1130.96
1635.01	1069.77
1636.5	1039.7
1637.99	995.612
1639.48	936.346
1640.96	958.31
1642.45	889.565
1643.94	831.057
1645.43	804.978
1646.92	776.467
1648.41	746.269
1649.89	701.126
1651.38	656.618
1652.87	645.806
1654.36	599.784
1655.85	600.299
1657.34	578.653
1658.82	542.059
1660.31	517.416
1661.8	491.647
1663.29	494.036
1664.78	448.171
1666.27	444.268
1667.75	427.342
1669.24	425.858
1670.73	398.522
1672.22	363.822
1673.71	365.657
1675.19	350.058
1676.68	337.197
1678.17	326.118
1679.66	305.739
1681.15	292.078
1682.64	298.692
1684.12	278.384
1685.61	275.296
1687.1	281.047
1688.59	264.064
1690.08	242.877
1691.57	243.234
1693.05	230.855
1694.54	234.301
1696.03	230.476
1697.52	226.658
1699.01	211.108
1700.5	195.275
1701.98	221.567
1703.47	208.262
1704.96	196.307
1706.45	209.235
1707.94	186.069
1709.43	186.563
1710.91	187.487
1712.4	190.594
1713.89	199.662
1715.38	194.802
1716.87	183.662
1718.36	170.27
1719.84	172.085
1721.33	170.898
1722.82	162.055
1724.31	171.67
1725.8	173.537
1727.29	162.858
1728.77	172.059
1730.26	160.276
1731.75	159.063
1733.24	151.987
1734.73	154.68
1736.22	154.398
1737.7	148.973
1739.19	150.239
1740.68	149.909
1742.17	152.117
1743.66	146.419
1745.15	151.27
1746.63	135.683
1748.12	147.323
1749.61	147.385
1751.1	140.892
1752.59	141.948
1754.08	149.628
1755.56	139.532
1757.05	145.427
1758.54	138.276
1760.03	140.021
1761.52	140.567
1763.01	140.969
1764.49	133.197
1765.98	138.882
1767.47	138.161
1768.96	129.273
1770.45	138.161
1771.93	136.307
1773.42	132.664
1774.91	133.979
1776.4	135.101
1777.89	124.848
1779.38	128.473
1780.86	137.636
1782.35	128.125
1783.84	129.7
1785.33	131.902
1786.82	127.889
1788.31	123.914
1789.79	131.735
1791.28	130.253
1792.77	125.801
1794.26	126.705
1795.75	119.376
1797.24	124.636
1798.72	124.637
1800.21	125.807
1801.7	113.713
1803.19	123.288
1804.68	120.093
1806.17	125.853
1807.65	116.839
1809.14	122.718
1810.63	120.865
1812.12	115.872
1813.61	112.793
1815.1	122.501
1816.58	123.453
1818.07	124.44
1819.56	117.957
1821.05	121.216
1822.54	122.747
1824.03	113.341
1825.51	123.787
1827	118.344
1828.49	112.081
1829.98	111.828
1831.47	115.538
1832.96	112.956
1834.44	127.02
1835.93	114.663
1837.42	119.667
1838.91	110.41
1840.4	112.244
1841.89	114.897
1843.37	124.393
1844.86	123.748
1846.35	115.765
1847.84	106.282
1849.33	118.562
1850.82	123
1852.3	120.782
1853.79	120.172
1855.28	114.244
1856.77	118.288
1858.26	115.695
1859.74	122.54
1861.23	112.399
1862.72	128.923
1864.21	113.465
1865.7	116.31
1867.19	114.805
1868.67	127.098
1870.16	118.453
1871.65	117.602
1873.14	122.508
1874.63	118.988
1876.12	122.511
1877.6	127.175
1879.09	119.414
1880.58	109.444
1882.07	115.32
1883.56	114.31
1885.05	130.201
1886.53	125.607
1888.02	126.8
1889.51	113.642
1891	120.211
1892.49	118.006
1893.98	120.823
1895.46	104.393
1896.95	104.755
1898.44	124.936
1899.93	124.027
1901.42	108.601
1902.91	118.172
1904.39	105.822
1905.88	109.713
1907.37	117.338
1908.86	122.568
1910.35	115.287
1911.84	120.396
1913.32	117.449
1914.81	116.126
1916.3	122.667
1917.79	111.038
1919.28	119.206
1920.77	114.075
1922.25	118.992
1923.74	113.638
1925.23	115.276
1926.72	119.533
1928.21	113.223
1929.7	119.729
1931.18	116.338
1932.67	110.175
1934.16	112.127
1935.65	126.269
1937.14	113.098
1938.63	113.964
1940.11	114.668
1941.6	109.601
1943.09	112.77
1944.58	108.567
1946.07	103.953
1947.55	117.179
1949.04	119.763
1950.53	115.979
1952.02	117.399
1953.51	111.697
1955	130.244
1956.48	116.764
1957.97	106.684
1959.46	116.899
1960.95	113
1962.44	115.626
1963.93	113.363
1965.41	118.06
1966.9	112.174
1968.39	113.544
1969.88	113.718
1971.37	110.641
1972.86	118.06
1974.34	116.728
1975.83	115.333
1977.32	119.966
1978.81	121.828
1980.3	132.004
1981.79	125.344
1983.27	113.813
1984.76	117.326
1986.25	117.269
1987.74	113.878
1989.23	118.857
1990.72	124.8
1992.2	115.884
1993.69	111.211
1995.18	111.633
1996.67	113.195
1998.16	109.053
1999.65	121.022
2001.13	122.295
2002.62	119.334
2004.11	127.237
2005.6	117.412
2007.09	114.776
2008.58	126.681
2010.06	122.401
2011.55	119.814
2013.04	114.675
2014.53	128.238
2016.02	112.03
2017.51	122.377
2018.99	119.785
2020.48	112.563
2021.97	117.129
2023.46	119.649
2024.95	115.481
2026.44	124.318
2027.92	120.807
2029.41	128.628
2030.9	115.775
2032.39	128.71
2033.88	125.566
2035.36	127.238
2036.85	121.748
2038.34	128.179
2039.83	118.388
2041.32	125.961
2042.81	118.555
2044.29	118.442
2045.78	107.687
2047.27	114.509
2048.76	118.544
2050.25	122.845
2051.74	124.668
2053.22	131.686
2054.71	124.196
2056.2	124.302
2057.69	123.969
2059.18	121.333
2060.67	123.206
2062.15	124.297
2063.64	127.492
2065.13	118.732
2066.62	126.524
2068.11	117.106
2069.6	119.847
2071.08	110.085
2072.57	115.907
2074.06	123.888
2075.55	120.142
2077.04	125.752
2078.53	113.972
2080.01	113.955
2081.5	125.94
2082.99	109.964
2084.48	121.638
2085.97	119.857
2087.46	118.056
2088.94	109.454
2090.43	123.085
2091.92	122.128
2093.41	122.011
2094.9	107.938
2096.39	121.161
2097.87	120.41
2099.36	121.253
2100.85	115.474
2102.34	115.31
2103.83	115.886
2105.32	121.44
2106.8	105.12
2108.29	112.439
2109.78	115.005
2111.27	122.227
2112.76	118.909
2114.25	120.62
2115.73	125.445
2117.22	116.841
2118.71	114.338
2120.2	121.508
2121.69	120.989
2123.18	119.652
2124.66	112.834
2126.15	116.649
2127.64	124.861
2129.13	122.347
2130.62	116
2132.1	117.775
2133.59	119.138
2135.08	119.924
2136.57	122.035
2138.06	118.33
2139.55	124.847
2141.03	121.404
2142.52	123.81
2144.01	122.648
2145.5	126.7
2146.99	113.085
2148.48	120.667
2149.96	121.211
2151.45	123.387
2152.94	118.17
2154.43	116.643
2155.92	121.877
2157.41	126.001
2158.89	125.067
2160.38	126.875
2161.87	120.181
2163.36	113.998
2164.85	127.094
2166.34	123.842
2167.82	122.218
2169.31	116.315
2170.8	122.4
2172.29	114.636
2173.78	122.573
2175.27	131.849
2176.75	126.963
2178.24	116.352
2179.73	120.309
2181.22	124.356
2182.71	130.232
2184.2	122.671
2185.68	123.471
2187.17	129.632
2188.66	124.143
2190.15	127.434
2191.64	126.011
2193.13	133.9
2194.61	134.007
2196.1	121.44
2197.59	113.337
2199.08	117.719
2200.57	123.299
2202.06	123.895
2203.54	122.562
2205.03	116.86
2206.52	120.667
2208.01	122.477
2209.5	132.454
2210.99	128.538
2212.47	118.074
2213.96	127.16
2215.45	123.735
2216.94	124.014
2218.43	121.579
2219.92	135.597
2221.4	126.267
2222.89	129.373
2224.38	119.214
2225.87	129.634
2227.36	124.808
2228.84	118.257
2230.33	126.852
2231.82	133.86
2233.31	129.517
2234.8	130.591
2236.29	132.38
2237.77	134.252
2239.26	122.89
2240.75	126.592
2242.24	129.96
2243.73	138.027
2245.22	140.866
2246.7	135.084
2248.19	122.688
2249.68	132.797
2251.17	130.754
2252.66	130.852
2254.15	127.801
2255.63	126.253
2257.12	133.921
2258.61	128.712
2260.1	132.667
2261.59	132.779
2263.08	128.747
2264.56	136.687
2266.05	130.815
2267.54	129.124
2269.03	126.602
2270.52	134.727
2272.01	138.078
2273.49	137.73
2274.98	134.859
2276.47	132.151
2277.96	150.269
2279.45	139.353
2280.94	137.42
2282.42	113.53
2283.91	135.707
2285.4	137.944
2286.89	145.333
2288.38	145.696
2289.87	135.038
2291.35	139.886
2292.84	141.096
2294.33	137.605
2295.82	139.041
2297.31	138.295
2298.8	138.709
2300.28	140.901
2301.77	133.119
2303.26	133.548
2304.75	146.451
2306.24	144.885
2307.73	147.205
2309.21	139.581
2310.7	137.252
2312.19	140.975
2313.68	147.709
2315.17	132.467
2316.65	145.39
2318.14	141.956
2319.63	144.427
2321.12	133.285
2322.61	141.2
2324.1	136.567
2325.58	150.87
2327.07	158.22
2328.56	165.916
2330.05	196.476
2331.54	225.983
2333.03	177.347
2334.51	153.037
2336	141.641
2337.49	158.184
2338.98	148.474
2340.47	152
2341.96	152.238
2343.44	147.049
2344.93	151.74
2346.42	151.353
2347.91	146.123
2349.4	153.22
2350.89	151.925
2352.37	153.167
2353.86	150.316
2355.35	152.219
2356.84	144.464
2358.33	162.667
2359.82	150.975
2361.3	158.485
2362.79	160.665
2364.28	148.565
2365.77	154.977
2367.26	154.968
2368.75	164.313
2370.23	168.317
2371.72	165.271
2373.21	165.063
2374.7	166.268
2376.19	175.827
2377.68	165.308
2379.16	165.486
2380.65	174.288
2382.14	158.458
2383.63	176.079
2385.12	155.327
2386.61	170.67
2388.09	175.366
2389.58	185.273
2391.07	176.425
2392.56	167.753
2394.05	172.17
2395.54	172.813
2397.02	188.185
2398.51	175.192
2400	187.291