File: Example Data/Raman/CNT - TIM/Raytheon/Al foil/2010/06-08-10/Ola - B7 - bottom.txt
300	350.914
301.488	364.397
302.977	364.551
304.465	367.495
305.953	372.425
307.442	360.538
308.93	362.195
310.418	358.007
311.906	360.414
313.395	358.578
314.883	341.234
316.371	338.203
317.86	350.543
319.348	351.159
320.836	349.92
322.325	347.114
323.813	351.716
325.301	358.891
326.79	358.329
328.278	340.351
329.766	354.586
331.254	350.161
332.743	359.251
334.231	338.59
335.719	334.461
337.208	350.166
338.696	336.219
340.184	340.977
341.673	344.399
343.161	340.696
344.649	330.228
346.137	343.654
347.626	344.658
349.114	339.306
350.602	343.257
352.091	335.994
353.579	334.694
355.067	341.112
356.556	343.717
358.044	336.026
359.532	327.567
361.021	339.073
362.509	338.738
363.997	319.376
365.485	329.569
366.974	331.39
368.462	340.967
369.95	334.848
371.439	327.256
372.927	326.32
374.415	320.984
375.904	325.299
377.392	310.298
378.88	327.488
380.369	316.825
381.857	317.59
383.345	321.225
384.833	326.215
386.322	335.27
387.81	329.373
389.298	325.444
390.787	326.092
392.275	324.721
393.763	306.798
395.252	313.241
396.74	321.304
398.228	337.58
399.717	329.265
401.205	306.061
402.693	314.573
404.181	313.202
405.67	325.274
407.158	316.475
408.646	314.23
410.135	327.32
411.623	314.188
413.111	309.93
414.6	321.144
416.088	329.856
417.576	313.539
419.064	301.51
420.553	315.287
422.041	303.297
423.529	311.395
425.018	325.545
426.506	316.667
427.994	320.871
429.483	313.766
430.971	327.065
432.459	304.745
433.948	301.364
435.436	307.243
436.924	307.895
438.412	312.402
439.901	312.912
441.389	311.106
442.877	297.743
444.366	294.13
445.854	314.381
447.342	301.542
448.831	316.854
450.319	297.035
451.807	302.066
453.296	303.802
454.784	289.875
456.272	288.07
457.76	286.66
459.249	299.279
460.737	289.996
462.225	294.213
463.714	298.24
465.202	295.681
466.69	293.552
468.179	294.758
469.667	292.005
471.155	287.118
472.644	279.668
474.132	294.667
475.62	291.591
477.108	288.818
478.597	280.453
480.085	285.19
481.573	281.147
483.062	281
484.55	271.492
486.038	280.364
487.527	274.427
489.015	266.306
490.503	270.721
491.991	273.744
493.48	270.811
494.968	261.436
496.456	257.137
497.945	267.149
499.433	270.558
500.921	266.324
502.41	262.437
503.898	250.761
505.386	260.798
506.875	250.335
508.363	261.411
509.851	263.405
511.339	253.417
512.828	250.922
514.316	255.545
515.804	269.822
517.293	252.589
518.781	262.769
520.269	252.858
521.758	259.728
523.246	248.003
524.734	265.531
526.223	248.578
527.711	264.843
529.199	254.47
530.687	258.523
532.176	254.285
533.664	262.614
535.152	265.628
536.641	255.385
538.129	255.597
539.617	256.536
541.106	259.38
542.594	268.318
544.082	258.423
545.57	258.757
547.059	248.996
548.547	251.639
550.035	265.706
551.524	263.91
553.012	256.945
554.5	272.128
555.989	259.081
557.477	264.127
558.965	253.67
560.454	270.614
561.942	264.851
563.43	270.484
564.919	259.6
566.407	276.662
567.895	268.931
569.383	263.862
570.872	272.148
572.36	274.578
573.848	264.97
575.337	263.096
576.825	266.365
578.313	267.796
579.802	267.901
581.29	263.569
582.778	273.318
584.266	261.782
585.755	255.631
587.243	288.308
588.731	272.415
590.22	273.667
591.708	257.701
593.196	261.02
594.685	261.365
596.173	270.362
597.661	282.965
599.15	278.715
600.638	255.18
602.126	274.269
603.614	276.727
605.103	268.015
606.591	264.404
608.079	278.548
609.568	272.409
611.056	262.56
612.544	281.787
614.033	266.894
615.521	270.615
617.009	272.374
618.497	284.504
619.986	272.71
621.474	282.031
622.962	262.721
624.451	273.83
625.939	270.376
627.427	334.905
628.916	494.07
630.404	280.192
631.892	274.974
633.381	283.504
634.869	279.301
636.357	271.611
637.846	285.483
639.334	281.026
640.822	277.048
642.31	296.992
643.799	282.94
645.287	287.648
646.775	292.801
648.264	278.086
649.752	280.07
651.24	288.142
652.729	290.553
654.217	285.539
655.705	282.284
657.193	281.576
658.682	287.057
660.17	294.833
661.658	289.6
663.147	287.445
664.635	294.579
666.123	283.234
667.612	291.073
669.1	289.752
670.588	317.279
672.077	288.523
673.565	297.249
675.053	300.733
676.541	303.941
678.03	302.935
679.518	291.106
681.006	311.402
682.495	299.062
683.983	290.661
685.471	293.357
686.96	300.283
688.448	299.171
689.936	303.227
691.424	296.28
692.913	306.746
694.401	286.96
695.889	299.88
697.378	305.667
698.866	296.115
700.354	296.253
701.843	302.451
703.331	295.933
704.819	310.373
706.308	303.969
707.796	300.959
709.284	304.101
710.773	322.094
712.261	314.015
713.749	306.875
715.237	297.949
716.726	319.667
718.214	328.805
719.702	324.352
721.191	316.28
722.679	317.374
724.167	303.991
725.656	317.219
727.144	310.713
728.632	324.751
730.12	312.393
731.609	321.562
733.097	321.177
734.585	322.554
736.074	329.408
737.562	324.166
739.05	334.515
740.539	314.376
742.027	323.789
743.515	323.586
745.004	349.879
746.492	328.268
747.98	325.896
749.468	344.266
750.957	326.084
752.445	345.681
753.933	344.202
755.422	345.133
756.91	347.329
758.398	339.543
759.887	349.191
761.375	341.487
762.863	347.523
764.352	342.437
765.84	340.658
767.328	356.119
768.816	351.912
770.305	358.55
771.793	357.749
773.281	346.375
774.77	361.296
776.258	350.876
777.746	356.818
779.235	344.356
780.723	349.718
782.211	360.86
783.7	361.374
785.188	352.143
786.676	369.545
788.164	355.267
789.653	359.799
791.141	367.68
792.629	365.762
794.118	350.723
795.606	371.282
797.094	368.087
798.583	371.943
800.071	377.633
801.559	380.556
803.047	375.702
804.536	374.697
806.024	378.31
807.512	361.326
809.001	381.935
810.489	377.704
811.977	376.494
813.466	386.243
814.954	376.83
816.442	386.847
817.931	373.469
819.419	378.353
820.907	387.747
822.395	379.983
823.884	377.367
825.372	380.844
826.86	376.158
828.349	397.644
829.837	398.594
831.325	402.223
832.814	394.053
834.302	407.905
835.79	385.165
837.279	400.343
838.767	375.357
840.255	391.098
841.743	393.236
843.232	399.072
844.72	395.419
846.208	404.701
847.697	402.501
849.185	398.772
850.673	402.379
852.162	386.868
853.65	415.3
855.138	404.119
856.627	391.987
858.115	406.961
859.603	385.528
861.091	403.669
862.58	389.572
864.068	379.261
865.556	382.067
867.045	379.402
868.533	372.381
870.021	379.675
871.51	381.692
872.998	364.511
874.486	381.665
875.974	369.864
877.463	368.289
878.951	373.038
880.439	365.129
881.928	353.558
883.416	365.611
884.904	364.936
886.393	353.747
887.881	351.364
889.369	352.618
890.858	358.685
892.346	345.866
893.834	341.086
895.322	348.055
896.811	343.198
898.299	340.868
899.787	329.327
901.276	329.802
902.764	339.578
904.252	341.85
905.741	327.838
907.229	322.427
908.717	330.372
910.206	331.978
911.694	319.813
913.182	331.069
914.67	321.527
916.159	336.355
917.647	308.174
919.135	334.748
920.624	308.463
922.112	316.558
923.6	320.844
925.089	320.631
926.577	326.557
928.065	311.35
929.554	320.806
931.042	339.056
932.53	329.086
934.018	318.598
935.507	314.024
936.995	309.465
938.483	330.929
939.972	290.44
941.46	325.685
942.948	325.317
944.437	324.387
945.925	315.579
947.413	337.131
948.901	338.595
950.39	322.855
951.878	334.091
953.366	325.208
954.855	325.671
956.343	333.743
957.831	328.249
959.32	331.007
960.808	316.755
962.296	330.02
963.785	329.21
965.273	322.112
966.761	325.562
968.249	343.45
969.738	321.332
971.226	326.562
972.714	333.796
974.203	336.83
975.691	343.385
977.179	324.611
978.668	341.01
980.156	337.747
981.644	342.098
983.133	339.501
984.621	342.396
986.109	348.754
987.597	346.881
989.086	327.68
990.574	357.081
992.062	362.896
993.551	353.941
995.039	348.374
996.527	348.842
998.016	343.181
999.504	379.329
1000.99	380.555
1002.48	368.704
1003.97	361.865
1005.46	378.423
1006.95	389.909
1008.43	380.849
1009.92	388.47
1011.41	387.763
1012.9	395.221
1014.39	397.193
1015.88	396.337
1017.36	396.667
1018.85	406.054
1020.34	392.026
1021.83	394.175
1023.32	404.639
1024.81	412.669
1026.29	407.34
1027.78	422.236
1029.27	431.757
1030.76	422.461
1032.25	421.978
1033.73	419.779
1035.22	411.838
1036.71	422.878
1038.2	428.223
1039.69	452.532
1041.18	428.212
1042.66	437.589
1044.15	448.826
1045.64	448.654
1047.13	436.249
1048.62	457.492
1050.11	466.899
1051.59	448.994
1053.08	479.828
1054.57	459.329
1056.06	452.094
1057.55	482.561
1059.04	460.151
1060.52	479.359
1062.01	478.149
1063.5	474.537
1064.99	476.346
1066.48	483.698
1067.97	483.329
1069.45	480.873
1070.94	486.932
1072.43	499.945
1073.92	489.684
1075.41	493.636
1076.9	505.062
1078.38	492.695
1079.87	501.341
1081.36	515.492
1082.85	496.437
1084.34	501.179
1085.83	498.965
1087.31	521.49
1088.8	512.603
1090.29	508.945
1091.78	528.35
1093.27	536.91
1094.76	534.354
1096.24	530.304
1097.73	545.492
1099.22	553.352
1100.71	529.207
1102.2	535.17
1103.69	535.895
1105.17	550.184
1106.66	545.49
1108.15	583.096
1109.64	543.676
1111.13	571.465
1112.62	559.99
1114.1	581.564
1115.59	580.904
1117.08	579.611
1118.57	576.697
1120.06	582.74
1121.55	599.981
1123.03	595.498
1124.52	579.459
1126.01	596.238
1127.5	605.031
1128.99	620.247
1130.47	589.085
1131.96	619.803
1133.45	607.023
1134.94	626.717
1136.43	634.997
1137.92	637.048
1139.4	637.717
1140.89	647.085
1142.38	664.568
1143.87	642.602
1145.36	662.172
1146.85	691.373
1148.33	677.187
1149.82	669.895
1151.31	681.372
1152.8	694.734
1154.29	683.718
1155.78	701.674
1157.26	691.248
1158.75	720.73
1160.24	708.334
1161.73	718.747
1163.22	724.336
1164.71	728.403
1166.19	737.393
1167.68	724.696
1169.17	722.403
1170.66	749.698
1172.15	749.984
1173.64	734.217
1175.12	740.328
1176.61	751.165
1178.1	734.44
1179.59	746.256
1181.08	741.701
1182.57	746.813
1184.05	760.473
1185.54	774.545
1187.03	767.831
1188.52	790.669
1190.01	756.054
1191.5	779.816
1192.98	789.953
1194.47	779.954
1195.96	791.55
1197.45	813.143
1198.94	785.74
1200.43	770.036
1201.91	799
1203.4	814.042
1204.89	821.668
1206.38	818.267
1207.87	837.731
1209.36	847.293
1210.84	844.27
1212.33	856.294
1213.82	852.567
1215.31	883.392
1216.8	871.775
1218.28	876.496
1219.77	871.088
1221.26	875.156
1222.75	901.427
1224.24	882.207
1225.73	907.481
1227.21	907.007
1228.7	936.312
1230.19	933.708
1231.68	951.578
1233.17	942.967
1234.66	938.817
1236.14	941.982
1237.63	967.553
1239.12	992.493
1240.61	1005.43
1242.1	1011.51
1243.59	1020.87
1245.07	988.178
1246.56	1033.75
1248.05	993.896
1249.54	1064.16
1251.03	1056.14
1252.52	1051.9
1254	1073.28
1255.49	1091.11
1256.98	1114.44
1258.47	1117.59
1259.96	1104.71
1261.45	1151.39
1262.93	1168.34
1264.42	1147.93
1265.91	1163.42
1267.4	1215.82
1268.89	1214.81
1270.38	1221.84
1271.86	1275.55
1273.35	1275.12
1274.84	1268.83
1276.33	1329.52
1277.82	1372.29
1279.31	1332.2
1280.79	1369.47
1282.28	1380.19
1283.77	1414.81
1285.26	1431.62
1286.75	1452.07
1288.24	1476.71
1289.72	1485.71
1291.21	1511.95
1292.7	1539.55
1294.19	1567.14
1295.68	1575
1297.17	1620.32
1298.65	1666.52
1300.14	1655.21
1301.63	1747.31
1303.12	1722.05
1304.61	1767.16
1306.09	1760.66
1307.58	1841.13
1309.07	1863.4
1310.56	1905.43
1312.05	1969.12
1313.54	1925.77
1315.02	2025.91
1316.51	2063.15
1318	2045.62
1319.49	2096.12
1320.98	2135.64
1322.47	2156.17
1323.95	2177.42
1325.44	2204.13
1326.93	2296.23
1328.42	2295.58
1329.91	2353.72
1331.4	2342.77
1332.88	2422.62
1334.37	2454.07
1335.86	2419.44
1337.35	2493.58
1338.84	2510.81
1340.33	2490.79
1341.81	2484.32
1343.3	2512.73
1344.79	2509.51
1346.28	2509.35
1347.77	2492.92
1349.26	2519.69
1350.74	2482.45
1352.23	2459.87
1353.72	2422.94
1355.21	2415.55
1356.7	2397.26
1358.19	2389.52
1359.67	2359
1361.16	2318.01
1362.65	2279
1364.14	2251.61
1365.63	2261.26
1367.12	2218.44
1368.6	2192.95
1370.09	2146.97
1371.58	2095.16
1373.07	2027.15
1374.56	2017
1376.05	2001.61
1377.53	1992.53
1379.02	1903.02
1380.51	1911.15
1382	1902.24
1383.49	1812.11
1384.98	1804.04
1386.46	1789.32
1387.95	1735.5
1389.44	1720.12
1390.93	1707
1392.42	1690.32
1393.91	1628.89
1395.39	1599.05
1396.88	1570.74
1398.37	1599.28
1399.86	1545.06
1401.35	1516.7
1402.83	1496.18
1404.32	1474.4
1405.81	1453.68
1407.3	1449.69
1408.79	1455.88
1410.28	1457.67
1411.76	1379.06
1413.25	1401.33
1414.74	1376.67
1416.23	1315.46
1417.72	1332.4
1419.21	1332.59
1420.69	1333.68
1422.18	1342.05
1423.67	1314.28
1425.16	1291.13
1426.65	1293.32
1428.14	1296.8
1429.62	1280.68
1431.11	1285.45
1432.6	1291.9
1434.09	1283.5
1435.58	1252.94
1437.07	1254.99
1438.55	1237.12
1440.04	1240.99
1441.53	1239.18
1443.02	1231.57
1444.51	1221.51
1446	1213.38
1447.48	1200.53
1448.97	1214.25
1450.46	1212.68
1451.95	1217.43
1453.44	1193.04
1454.93	1220.63
1456.41	1196.94
1457.9	1188.74
1459.39	1224.94
1460.88	1199.36
1462.37	1213.05
1463.86	1208.27
1465.34	1187.63
1466.83	1214.62
1468.32	1172.23
1469.81	1187.65
1471.3	1193.42
1472.79	1199.12
1474.27	1195.87
1475.76	1198.65
1477.25	1198.16
1478.74	1199
1480.23	1197.57
1481.72	1187.83
1483.2	1185.65
1484.69	1201.59
1486.18	1227.16
1487.67	1186.8
1489.16	1220.42
1490.64	1179.01
1492.13	1200.67
1493.62	1199.64
1495.11	1217.75
1496.6	1208.43
1498.09	1222.51
1499.57	1188.06
1501.06	1206.52
1502.55	1204.01
1504.04	1205.63
1505.53	1190.43
1507.02	1210.68
1508.5	1251.12
1509.99	1210.03
1511.48	1220.87
1512.97	1227.77
1514.46	1225.6
1515.95	1218.45
1517.43	1262.42
1518.92	1262.09
1520.41	1225.98
1521.9	1260.81
1523.39	1283.54
1524.88	1292.73
1526.36	1279.11
1527.85	1309.59
1529.34	1319.15
1530.83	1338.27
1532.32	1336.09
1533.81	1325.64
1535.29	1341.68
1536.78	1388.16
1538.27	1432.14
1539.76	1419.09
1541.25	1474.97
1542.74	1468.25
1544.22	1457.07
1545.71	1495.06
1547.2	1505.19
1548.69	1545.94
1550.18	1595.45
1551.67	1628.52
1553.15	1656.95
1554.64	1670.62
1556.13	1713.68
1557.62	1769.85
1559.11	1835.78
1560.6	1832.43
1562.08	1836.84
1563.57	1862.77
1565.06	1924.58
1566.55	1968.51
1568.04	1996.62
1569.53	2030.42
1571.01	2114.49
1572.5	2109.34
1573.99	2175.18
1575.48	2196.84
1576.97	2245.6
1578.45	2290.72
1579.94	2300.45
1581.43	2343.34
1582.92	2389.59
1584.41	2424.1
1585.9	2438.09
1587.38	2459.47
1588.87	2470.53
1590.36	2472.38
1591.85	2496.89
1593.34	2527.7
1594.83	2507.11
1596.31	2490.01
1597.8	2463.43
1599.29	2413.31
1600.78	2422.02
1602.27	2430.54
1603.76	2398.36
1605.24	2363.07
1606.73	2307.14
1608.22	2315.47
1609.71	2236.53
1611.2	2210.28
1612.69	2176.83
1614.17	2097.34
1615.66	2028.05
1617.15	1998.76
1618.64	1931.89
1620.13	1864.03
1621.62	1794.51
1623.1	1710.95
1624.59	1673.54
1626.08	1650.1
1627.57	1522.21
1629.06	1484.24
1630.55	1428.4
1632.03	1368.88
1633.52	1303.06
1635.01	1259.07
1636.5	1234.75
1637.99	1143.13
1639.48	1109.38
1640.96	1044.5
1642.45	1032.49
1643.94	955.157
1645.43	927.763
1646.92	900.703
1648.41	875.631
1649.89	836.211
1651.38	820.367
1652.87	769.821
1654.36	752.339
1655.85	734.332
1657.34	710.168
1658.82	650.756
1660.31	655.475
1661.8	608.469
1663.29	618.917
1664.78	561.533
1666.27	547.733
1667.75	538.375
1669.24	518.625
1670.73	510.812
1672.22	498.88
1673.71	471.393
1675.19	443.418
1676.68	441.309
1678.17	446.46
1679.66	430.091
1681.15	413.245
1682.64	401.985
1684.12	383.843
1685.61	373.296
1687.1	372.131
1688.59	364.824
1690.08	343.967
1691.57	363.782
1693.05	348.12
1694.54	349.691
1696.03	331.382
1697.52	323.683
1699.01	319.85
1700.5	316.745
1701.98	306.298
1703.47	310.098
1704.96	304.36
1706.45	293.059
1707.94	295.64
1709.43	290.022
1710.91	285.932
1712.4	290.042
1713.89	299.336
1715.38	266.17
1716.87	273.207
1718.36	268.864
1719.84	273.606
1721.33	271.655
1722.82	267.833
1724.31	258.149
1725.8	248.357
1727.29	243.413
1728.77	259.148
1730.26	250.29
1731.75	254.116
1733.24	250.944
1734.73	242.253
1736.22	241.729
1737.7	243.204
1739.19	252.116
1740.68	245.73
1742.17	240.486
1743.66	243.29
1745.15	233.715
1746.63	233.839
1748.12	232.176
1749.61	233.485
1751.1	228.274
1752.59	235.162
1754.08	233.422
1755.56	225.274
1757.05	226.505
1758.54	221.058
1760.03	232.576
1761.52	229.289
1763.01	220.936
1764.49	222.72
1765.98	223.246
1767.47	225.699
1768.96	219.393
1770.45	219.496
1771.93	225.099
1773.42	224.683
1774.91	215.135
1776.4	220.23
1777.89	208.952
1779.38	217.684
1780.86	217.869
1782.35	209.62
1783.84	223.081
1785.33	212.185
1786.82	220.648
1788.31	203.519
1789.79	209.519
1791.28	206.172
1792.77	205.673
1794.26	201.97
1795.75	199.014
1797.24	208.426
1798.72	209.198
1800.21	209.172
1801.7	203.675
1803.19	213.239
1804.68	207.874
1806.17	207.374
1807.65	210.622
1809.14	211.407
1810.63	208.035
1812.12	204.105
1813.61	201
1815.1	205.589
1816.58	203.067
1818.07	214.549
1819.56	203.366
1821.05	195.19
1822.54	201.068
1824.03	202.621
1825.51	204.142
1827	202.208
1828.49	214.726
1829.98	200.911
1831.47	204.652
1832.96	201.221
1834.44	211.259
1835.93	202.682
1837.42	197.029
1838.91	197.506
1840.4	212.368
1841.89	216.201
1843.37	206.299
1844.86	207.94
1846.35	203.877
1847.84	197.929
1849.33	206.105
1850.82	199.374
1852.3	201.844
1853.79	193.314
1855.28	204.331
1856.77	191.701
1858.26	213.431
1859.74	199.762
1861.23	208.735
1862.72	216.41
1864.21	205.907
1865.7	192.541
1867.19	203.508
1868.67	207.894
1870.16	187.879
1871.65	197.419
1873.14	187.318
1874.63	207.506
1876.12	201.259
1877.6	197.189
1879.09	204.25
1880.58	193.963
1882.07	201.524
1883.56	200.082
1885.05	200.132
1886.53	189.827
1888.02	197.542
1889.51	192.956
1891	195.754
1892.49	198.238
1893.98	201
1895.46	195.274
1896.95	205.369
1898.44	210.965
1899.93	194.901
1901.42	197.994
1902.91	191.798
1904.39	183.241
1905.88	197.186
1907.37	196.831
1908.86	192.577
1910.35	189.259
1911.84	201.227
1913.32	195.289
1914.81	190.214
1916.3	187.829
1917.79	205.754
1919.28	194.135
1920.77	190.026
1922.25	185.76
1923.74	197.459
1925.23	190.272
1926.72	190.128
1928.21	193.265
1929.7	193.975
1931.18	194.766
1932.67	192.674
1934.16	204.551
1935.65	204.294
1937.14	201.576
1938.63	195.517
1940.11	187.553
1941.6	199.47
1943.09	188.188
1944.58	190.716
1946.07	190.926
1947.55	204.562
1949.04	188.557
1950.53	191.204
1952.02	200.673
1953.51	192.727
1955	212.433
1956.48	199.623
1957.97	192.922
1959.46	205.236
1960.95	198.204
1962.44	194.92
1963.93	193.4
1965.41	198.552
1966.9	197.486
1968.39	192.691
1969.88	193.441
1971.37	187.821
1972.86	187.1
1974.34	196.377
1975.83	187.977
1977.32	202.421
1978.81	190.901
1980.3	191.554
1981.79	204.296
1983.27	200.205
1984.76	195.84
1986.25	199.728
1987.74	193.686
1989.23	192.593
1990.72	194.067
1992.2	196.054
1993.69	192.39
1995.18	187.064
1996.67	198.333
1998.16	198.506
1999.65	184.987
2001.13	199.382
2002.62	193.396
2004.11	198.258
2005.6	207.216
2007.09	205.59
2008.58	194.514
2010.06	195.324
2011.55	190.931
2013.04	198.066
2014.53	191.926
2016.02	198.585
2017.51	191.072
2018.99	194.179
2020.48	207.461
2021.97	188.385
2023.46	205.692
2024.95	204.598
2026.44	196.805
2027.92	195.401
2029.41	192.574
2030.9	189.467
2032.39	204.449
2033.88	203.952
2035.36	204.737
2036.85	203.933
2038.34	212.475
2039.83	201.857
2041.32	199.494
2042.81	192.641
2044.29	212.121
2045.78	192.374
2047.27	193.933
2048.76	195.898
2050.25	192.715
2051.74	198.347
2053.22	195.515
2054.71	199.817
2056.2	202.858
2057.69	202.908
2059.18	204.717
2060.67	192.909
2062.15	201.178
2063.64	198.994
2065.13	191.716
2066.62	195.923
2068.11	195.865
2069.6	194.411
2071.08	206.174
2072.57	200.366
2074.06	206.96
2075.55	187.566
2077.04	194.858
2078.53	193.042
2080.01	200.573
2081.5	186.317
2082.99	200.333
2084.48	192.29
2085.97	191.56
2087.46	201.215
2088.94	192.312
2090.43	199.149
2091.92	192.277
2093.41	194.312
2094.9	195.505
2096.39	197.231
2097.87	191.859
2099.36	182.462
2100.85	190.096
2102.34	198.406
2103.83	192.802
2105.32	198.986
2106.8	200.68
2108.29	194.685
2109.78	182.44
2111.27	188.201
2112.76	190.116
2114.25	183.788
2115.73	205.876
2117.22	198.78
2118.71	196.193
2120.2	200.891
2121.69	200.304
2123.18	196.496
2124.66	198.165
2126.15	204.489
2127.64	202.42
2129.13	188.837
2130.62	198.479
2132.1	201.083
2133.59	213.599
2135.08	205.076
2136.57	199.824
2138.06	194.994
2139.55	204.108
2141.03	195.947
2142.52	205.17
2144.01	201.43
2145.5	191.223
2146.99	208.322
2148.48	203.131
2149.96	208.239
2151.45	218.536
2152.94	193.493
2154.43	195.901
2155.92	207.275
2157.41	204.667
2158.89	195.626
2160.38	202.408
2161.87	204.326
2163.36	205.036
2164.85	199.51
2166.34	207.683
2167.82	203.934
2169.31	208.162
2170.8	203.333
2172.29	207.478
2173.78	203.909
2175.27	202.825
2176.75	205.59
2178.24	212.135
2179.73	204.092
2181.22	210.056
2182.71	207.058
2184.2	207.824
2185.68	199.69
2187.17	198.467
2188.66	210.673
2190.15	202.346
2191.64	198.224
2193.13	208.566
2194.61	220.848
2196.1	205.333
2197.59	211.663
2199.08	202.078
2200.57	195.96
2202.06	206.421
2203.54	212.655
2205.03	207.85
2206.52	214.678
2208.01	200.752
2209.5	190.337
2210.99	197.984
2212.47	212.934
2213.96	206.444
2215.45	200.752
2216.94	199.305
2218.43	207.093
2219.92	205.913
2221.4	208.155
2222.89	198.688
2224.38	211.947
2225.87	203.201
2227.36	205.265
2228.84	205.273
2230.33	218.409
2231.82	199.927
2233.31	216.287
2234.8	206.402
2236.29	203.486
2237.77	210.667
2239.26	207.602
2240.75	206.609
2242.24	201.449
2243.73	215.573
2245.22	194.213
2246.7	210.538
2248.19	218.628
2249.68	208.464
2251.17	208.722
2252.66	209.657
2254.15	216.44
2255.63	213.129
2257.12	204.318
2258.61	209.169
2260.1	216.851
2261.59	209.837
2263.08	206.238
2264.56	225.144
2266.05	219.309
2267.54	214.538
2269.03	219.489
2270.52	218.729
2272.01	217.099
2273.49	215.47
2274.98	213.457
2276.47	212.667
2277.96	226.463
2279.45	215.961
2280.94	215.543
2282.42	221.207
2283.91	225.964
2285.4	210.424
2286.89	223.457
2288.38	214.887
2289.87	222.128
2291.35	228.112
2292.84	227.479
2294.33	230.003
2295.82	230.876
2297.31	218.207
2298.8	220.762
2300.28	221.259
2301.77	220.37
2303.26	226.478
2304.75	224.48
2306.24	249.935
2307.73	219.598
2309.21	227.677
2310.7	223.539
2312.19	236.922
2313.68	230.071
2315.17	233.613
2316.65	227.173
2318.14	220.706
2319.63	230.009
2321.12	232.596
2322.61	231.981
2324.1	231.722
2325.58	239.57
2327.07	257.931
2328.56	277.58
2330.05	298.172
2331.54	334.1
2333.03	268.241
2334.51	235.428
2336	239.962
2337.49	244.921
2338.98	239.692
2340.47	237.048
2341.96	233.143
2343.44	236.351
2344.93	236.57
2346.42	231.743
2347.91	231.581
2349.4	246.922
2350.89	237.612
2352.37	242.124
2353.86	241.98
2355.35	241.311
2356.84	234.657
2358.33	249.354
2359.82	249.588
2361.3	243.25
2362.79	245.455
2364.28	245.761
2365.77	242.913
2367.26	247.305
2368.75	241.746
2370.23	255.506
2371.72	253.634
2373.21	257.807
2374.7	251.544
2376.19	256.152
2377.68	249.301
2379.16	261.276
2380.65	262.629
2382.14	259.61
2383.63	267.213
2385.12	267.684
2386.61	264.5
2388.09	267.884
2389.58	258.243
2391.07	264.375
2392.56	274.986
2394.05	283.163
2395.54	276.269
2397.02	271.647
2398.51	290.262
2400	275.535