File: Example Data/Raman/CNT - TIM/Raytheon/Al foil/2010/06-08-10/Ola - B8 - top.txt
300	279
301.488	265.908
302.977	280.383
304.465	278.592
305.953	297.722
307.442	277.928
308.93	288.463
310.418	288.082
311.906	282.495
313.395	273.652
314.883	284.583
316.371	273.669
317.86	271.03
319.348	284.789
320.836	273.181
322.325	276.862
323.813	280.758
325.301	276.54
326.79	262.329
328.278	272.228
329.766	265.553
331.254	263.227
332.743	267.313
334.231	273.699
335.719	258.625
337.208	268.967
338.696	264.824
340.184	260.697
341.673	273.719
343.161	272.759
344.649	265.124
346.137	252.197
347.626	266.781
349.114	261.231
350.602	268.994
352.091	275.981
353.579	258.422
355.067	257.905
356.556	268.657
358.044	252.061
359.532	260.528
361.021	263.258
362.509	261.357
363.997	272.847
365.485	247.181
366.974	261.204
368.462	253.868
369.95	251.667
371.439	250.372
372.927	250.116
374.415	252.804
375.904	249.735
377.392	241.345
378.88	253.168
380.369	250.508
381.857	244.115
383.345	254.791
384.833	258.69
386.322	257.931
387.81	249.289
389.298	245.696
390.787	251.811
392.275	249.931
393.763	239.738
395.252	250.671
396.74	239.244
398.228	255.038
399.717	258.283
401.205	240.47
402.693	250.32
404.181	244.078
405.67	251.859
407.158	250.846
408.646	258.753
410.135	240.059
411.623	242.153
413.111	241.682
414.6	236.354
416.088	249.471
417.576	246.927
419.064	250.303
420.553	241.527
422.041	238
423.529	239.01
425.018	248.742
426.506	248.297
427.994	241.623
429.483	244.832
430.971	240.348
432.459	243.948
433.948	245.237
435.436	230.058
436.924	234.644
438.412	231.246
439.901	232.256
441.389	241.662
442.877	241.211
444.366	235.15
445.854	225.27
447.342	237.327
448.831	231.284
450.319	249.21
451.807	244.6
453.296	239.077
454.784	233.998
456.272	228.573
457.76	227.168
459.249	215.718
460.737	231.052
462.225	232.474
463.714	227.532
465.202	221.145
466.69	209.332
468.179	229.301
469.667	223.832
471.155	237.451
472.644	225.964
474.132	214.082
475.62	226.032
477.108	231.294
478.597	218.088
480.085	211.125
481.573	223.287
483.062	224.436
484.55	212.299
486.038	219.067
487.527	209.131
489.015	217.422
490.503	209.754
491.991	205.769
493.48	203.633
494.968	210.589
496.456	202.714
497.945	215.333
499.433	202.863
500.921	203.253
502.41	221.36
503.898	192.914
505.386	203.306
506.875	200.052
508.363	195.127
509.851	209.356
511.339	204.28
512.828	201.477
514.316	200.157
515.804	206.351
517.293	190.917
518.781	208.333
520.269	194.63
521.758	199.811
523.246	194.353
524.734	196.25
526.223	203.558
527.711	195.961
529.199	203.433
530.687	207.083
532.176	197.612
533.664	208.593
535.152	196.439
536.641	204.348
538.129	191.41
539.617	196.848
541.106	192.92
542.594	211.267
544.082	201.961
545.57	207.133
547.059	205.298
548.547	200.459
550.035	195.216
551.524	195.887
553.012	191.491
554.5	206.158
555.989	208.206
557.477	196.699
558.965	206.353
560.454	196.711
561.942	210.927
563.43	211.675
564.919	203.111
566.407	208.888
567.895	206.853
569.383	215.946
570.872	208.193
572.36	197.471
573.848	209.57
575.337	219.715
576.825	216.399
578.313	207.633
579.802	211.737
581.29	213.554
582.778	210.882
584.266	223.922
585.755	220.954
587.243	203.38
588.731	206.842
590.22	203.138
591.708	217.641
593.196	209.534
594.685	207.86
596.173	216.884
597.661	215.119
599.15	221.63
600.638	225.301
602.126	216.032
603.614	210.525
605.103	220.235
606.591	223.536
608.079	217.479
609.568	215.531
611.056	214.036
612.544	221.164
614.033	210.44
615.521	234.616
617.009	222.061
618.497	217.075
619.986	232.546
621.474	223.31
622.962	223.798
624.451	216.246
625.939	229.112
627.427	232.337
628.916	225.333
630.404	214.55
631.892	217.875
633.381	233.727
634.869	228.578
636.357	227.83
637.846	228.82
639.334	234.987
640.822	229.008
642.31	229.72
643.799	235.664
645.287	237.48
646.775	240.454
648.264	221.83
649.752	234.145
651.24	240.329
652.729	228.822
654.217	229.938
655.705	232.856
657.193	218.97
658.682	227.316
660.17	237.947
661.658	241.931
663.147	253.518
664.635	235.368
666.123	249.139
667.612	245.963
669.1	236.18
670.588	236.172
672.077	227.959
673.565	248.405
675.053	255.903
676.541	247.65
678.03	233.387
679.518	233.418
681.006	251.544
682.495	234.763
683.983	243.75
685.471	249.182
686.96	238.144
688.448	258.531
689.936	252.181
691.424	251.276
692.913	258.001
694.401	240.883
695.889	240.041
697.378	242
698.866	245.652
700.354	247.878
701.843	244.663
703.331	251.353
704.819	234.955
706.308	259.394
707.796	246.559
709.284	252.94
710.773	255.35
712.261	255.958
713.749	270.28
715.237	262.168
716.726	255.997
718.214	258.774
719.702	264.35
721.191	265.809
722.679	262.479
724.167	257.108
725.656	273.555
727.144	259.633
728.632	268.266
730.12	273.839
731.609	262.306
733.097	260.972
734.585	276.934
736.074	264.975
737.562	266.833
739.05	274.285
740.539	271.861
742.027	276.762
743.515	281.666
745.004	287.339
746.492	277.69
747.98	288.552
749.468	273.58
750.957	274.628
752.445	280.337
753.933	291.02
755.422	293.058
756.91	273.538
758.398	275.68
759.887	293.013
761.375	281.974
762.863	289.415
764.352	299.538
765.84	284.387
767.328	297.696
768.816	288.309
770.305	284.359
771.793	288.988
773.281	306.115
774.77	306.27
776.258	301.907
777.746	312.612
779.235	311.659
780.723	299.107
782.211	302.23
783.7	300.082
785.188	304.741
786.676	293.016
788.164	311.72
789.653	300.891
791.141	318.715
792.629	304.063
794.118	319.883
795.606	307.154
797.094	307.126
798.583	316.048
800.071	307.012
801.559	323.407
803.047	317.297
804.536	299.726
806.024	323.758
807.512	309.007
809.001	330.297
810.489	328.642
811.977	333.035
813.466	329.739
814.954	333.805
816.442	322.58
817.931	331.438
819.419	329.322
820.907	326.65
822.395	327.116
823.884	319.314
825.372	342.683
826.86	333.856
828.349	330.613
829.837	342.658
831.325	323.109
832.814	329.77
834.302	332.238
835.79	324.295
837.279	333.851
838.767	337.45
840.255	329.662
841.743	331.107
843.232	332.747
844.72	344.395
846.208	358.456
847.697	341.623
849.185	329.21
850.673	347.254
852.162	343.91
853.65	336.438
855.138	335.516
856.627	344.609
858.115	329.362
859.603	346.804
861.091	336.961
862.58	337.861
864.068	326.33
865.556	312.791
867.045	324.471
868.533	322.439
870.021	316.007
871.51	311.83
872.998	309.796
874.486	312.832
875.974	310.384
877.463	317.444
878.951	297.669
880.439	307.446
881.928	298.107
883.416	297.267
884.904	297.296
886.393	297.561
887.881	287.273
889.369	301.609
890.858	295.617
892.346	285.687
893.834	285.86
895.322	271.861
896.811	282.357
898.299	277.268
899.787	289.681
901.276	284.432
902.764	281.874
904.252	267.926
905.741	278.1
907.229	272.983
908.717	274.43
910.206	279.888
911.694	262.841
913.182	269.76
914.67	271.491
916.159	261.306
917.647	261.061
919.135	261.235
920.624	248.333
922.112	265.441
923.6	264.181
925.089	263.529
926.577	271.783
928.065	250.118
929.554	256.481
931.042	258.404
932.53	264.723
934.018	260.692
935.507	263.054
936.995	260.08
938.483	266.551
939.972	259.145
941.46	259.297
942.948	261.146
944.437	262.16
945.925	255.889
947.413	267.854
948.901	267.138
950.39	257.308
951.878	268.903
953.366	252.507
954.855	257.323
956.343	259.37
957.831	257.887
959.32	268.852
960.808	253.239
962.296	265.015
963.785	272.407
965.273	272.321
966.761	270.181
968.249	270.037
969.738	264.94
971.226	262.656
972.714	265.976
974.203	271.713
975.691	261.804
977.179	264.85
978.668	268.314
980.156	274.808
981.644	279.699
983.133	274.349
984.621	295.847
986.109	265.742
987.597	274.126
989.086	279.021
990.574	279.563
992.062	279.77
993.551	284.469
995.039	279.777
996.527	285.36
998.016	298.94
999.504	285.999
1000.99	295.03
1002.48	291.568
1003.97	294.199
1005.46	307.423
1006.95	303.24
1008.43	311.896
1009.92	300.349
1011.41	312.899
1012.9	316.17
1014.39	311.535
1015.88	293.457
1017.36	315.942
1018.85	310.722
1020.34	314.327
1021.83	335.11
1023.32	327.445
1024.81	330.825
1026.29	333.779
1027.78	343.557
1029.27	335.247
1030.76	359.437
1032.25	356.147
1033.73	354.303
1035.22	342.922
1036.71	357.025
1038.2	356.197
1039.69	365.989
1041.18	363.364
1042.66	361.228
1044.15	363.23
1045.64	375.794
1047.13	372.856
1048.62	375.186
1050.11	355.318
1051.59	369.597
1053.08	362.508
1054.57	379.17
1056.06	383.073
1057.55	372.939
1059.04	383.88
1060.52	379.583
1062.01	394.106
1063.5	395.706
1064.99	382.895
1066.48	384.539
1067.97	396.013
1069.45	385.764
1070.94	401.351
1072.43	388.549
1073.92	394.59
1075.41	403.407
1076.9	400.851
1078.38	398.009
1079.87	407.626
1081.36	403.946
1082.85	411.547
1084.34	405.972
1085.83	417.857
1087.31	412.753
1088.8	421.865
1090.29	423.265
1091.78	419.219
1093.27	430.3
1094.76	418.228
1096.24	427.307
1097.73	440.996
1099.22	432.743
1100.71	447.896
1102.2	449.073
1103.69	449.873
1105.17	452.995
1106.66	435.558
1108.15	454.345
1109.64	453.482
1111.13	464.1
1112.62	457.357
1114.1	452.084
1115.59	461.285
1117.08	461
1118.57	475.929
1120.06	485.607
1121.55	467.682
1123.03	476.732
1124.52	494.844
1126.01	487.432
1127.5	498.399
1128.99	490.806
1130.47	505.023
1131.96	471.612
1133.45	512.548
1134.94	507.567
1136.43	512.795
1137.92	510.612
1139.4	520.837
1140.89	522.091
1142.38	531.037
1143.87	519.834
1145.36	514.927
1146.85	541.072
1148.33	532.618
1149.82	559.692
1151.31	569.3125
1152.8	560.579
1154.29	556.521
1155.78	570.793
1157.26	556.755
1158.75	571.366
1160.24	585.33
1161.73	569.363
1163.22	584.028
1164.71	592.176
1166.19	617.698
1167.68	604.226
1169.17	584.883
1170.66	594.327
1172.15	583.944
1173.64	593.239
1175.12	592.861
1176.61	614.82
1178.1	602.264
1179.59	619.517
1181.08	617.851
1182.57	608.465
1184.05	615.821
1185.54	620.986
1187.03	599.228
1188.52	625.657
1190.01	629.39
1191.5	639.641
1192.98	640.368
1194.47	642.081
1195.96	646.252
1197.45	632.623
1198.94	668.837
1200.43	665.649
1201.91	667.44
1203.4	666.647
1204.89	680.237
1206.38	678.828
1207.87	692.883
1209.36	702.136
1210.84	679.861
1212.33	691.825
1213.82	698.512
1215.31	693.239
1216.8	695.249
1218.28	725.383
1219.77	715.033
1221.26	725.52
1222.75	726.448
1224.24	724.14
1225.73	728.988
1227.21	738.552
1228.7	747.313
1230.19	739.742
1231.68	743.022
1233.17	761.161
1234.66	770.224
1236.14	766.658
1237.63	790.882
1239.12	817.098
1240.61	799.767
1242.1	774.445
1243.59	822.555
1245.07	813.48
1246.56	817.898
1248.05	849.341
1249.54	849.509
1251.03	843.337
1252.52	854.364
1254	888.789
1255.49	871.538
1256.98	880.324
1258.47	926.093
1259.96	908.461
1261.45	930.398
1262.93	927.735
1264.42	965.196
1265.91	945.416
1267.4	949.199
1268.89	972.323
1270.38	1007.8
1271.86	1012.85
1273.35	1042.97
1274.84	1024.01
1276.33	1037.74
1277.82	1076.66
1279.31	1098.01
1280.79	1093.57
1282.28	1114.61
1283.77	1148.17
1285.26	1123.95
1286.75	1159.37
1288.24	1169.88
1289.72	1207.26
1291.21	1206.71
1292.7	1222.56
1294.19	1254.33
1295.68	1264.24
1297.17	1308.45
1298.65	1292.5
1300.14	1295.72
1301.63	1366.67
1303.12	1388.84
1304.61	1419.3
1306.09	1435.78
1307.58	1443.92
1309.07	1508.31
1310.56	1519.69
1312.05	1540.47
1313.54	1568.22
1315.02	1554.87
1316.51	1621.61
1318	1629.73
1319.49	1677.46
1320.98	1688.8
1322.47	1762.72
1323.95	1754.03
1325.44	1784.25
1326.93	1795.59
1328.42	1820.48
1329.91	1881.54
1331.4	1889.51
1332.88	1922.66
1334.37	1928.09
1335.86	1958.29
1337.35	1963.26
1338.84	1938.58
1340.33	1998.5
1341.81	2005.87
1343.3	2013.69
1344.79	2007.73
1346.28	2035.95
1347.77	2046.43
1349.26	1977.02
1350.74	1982.62
1352.23	2028.88
1353.72	1993.08
1355.21	1977.39
1356.7	1977.62
1358.19	1949.28
1359.67	1957.65
1361.16	1915.6
1362.65	1892.41
1364.14	1878.87
1365.63	1833.39
1367.12	1819.1
1368.6	1807.76
1370.09	1783.52
1371.58	1758.34
1373.07	1733.73
1374.56	1746.3
1376.05	1689.25
1377.53	1687.39
1379.02	1669.84
1380.51	1640.07
1382	1601.02
1383.49	1577.48
1384.98	1532.99
1386.46	1522.35
1387.95	1508.07
1389.44	1475.84
1390.93	1461.41
1392.42	1461.03
1393.91	1461.96
1395.39	1373.56
1396.88	1423.24
1398.37	1386.23
1399.86	1311.06
1401.35	1326.8
1402.83	1349.76
1404.32	1300.36
1405.81	1279.73
1407.3	1280.02
1408.79	1250.66
1410.28	1254.58
1411.76	1252.68
1413.25	1198.34
1414.74	1218.94
1416.23	1216.47
1417.72	1207.64
1419.21	1203.01
1420.69	1183.92
1422.18	1142.34
1423.67	1156.13
1425.16	1109.46
1426.65	1107.95
1428.14	1159.96
1429.62	1111.24
1431.11	1154.42
1432.6	1176.48
1434.09	1112.96
1435.58	1097.9
1437.07	1089.26
1438.55	1091.1
1440.04	1066.28
1441.53	1063.25
1443.02	1074.69
1444.51	1057.78
1446	1067.98
1447.48	1032.45
1448.97	1055.44
1450.46	1070
1451.95	1038.24
1453.44	1053.83
1454.93	1052.62
1456.41	1062.39
1457.9	1045.28
1459.39	1033.27
1460.88	1046.79
1462.37	1044.59
1463.86	1023.05
1465.34	1047.32
1466.83	1021.04
1468.32	1025.09
1469.81	1037.3
1471.3	1012.6
1472.79	1027.56
1474.27	1019.42
1475.76	1004.48
1477.25	1036.83
1478.74	1027.6
1480.23	1020.25
1481.72	1028.04
1483.2	1017.9
1484.69	1024.68
1486.18	1034.1
1487.67	1025.9
1489.16	1034
1490.64	1024.63
1492.13	988.696
1493.62	1040.55
1495.11	1034.84
1496.6	1027.02
1498.09	1048.86
1499.57	1042.29
1501.06	1037.81
1502.55	1025.05
1504.04	1050.45
1505.53	1023.2
1507.02	1027.12
1508.5	1030.04
1509.99	1043.05
1511.48	1070.29
1512.97	1034.64
1514.46	1048.09
1515.95	1041.06
1517.43	1095.14
1518.92	1077
1520.41	1083.81
1521.9	1062.65
1523.39	1086.64
1524.88	1086.19
1526.36	1076.96
1527.85	1096.46
1529.34	1097.18
1530.83	1119.74
1532.32	1138.64
1533.81	1115.39
1535.29	1156.88
1536.78	1165.94
1538.27	1143.24
1539.76	1167.19
1541.25	1188.03
1542.74	1210.23
1544.22	1225.6
1545.71	1206.36
1547.2	1253.45
1548.69	1260.37
1550.18	1278.33
1551.67	1321.65
1553.15	1314.98
1554.64	1324.58
1556.13	1393.55
1557.62	1414.3
1559.11	1422.09
1560.6	1448.84
1562.08	1446.17
1563.57	1458.87
1565.06	1516.32
1566.55	1516.66
1568.04	1588.17
1569.53	1602.41
1571.01	1640.28
1572.5	1667.27
1573.99	1684.3
1575.48	1719.77
1576.97	1755.17
1578.45	1759.03
1579.94	1809
1581.43	1832.22
1582.92	1888.78
1584.41	1895.43
1585.9	1875.84
1587.38	1937.68
1588.87	1986.57
1590.36	2032.33
1591.85	2051.01
1593.34	2029.19
1594.83	2056.27
1596.31	2002.22
1597.8	2051.58
1599.29	2052.58
1600.78	2041.82
1602.27	1998.99
1603.76	2011.23
1605.24	2073.26
1606.73	1971.16
1608.22	1928.09
1609.71	1948.52
1611.2	1885.98
1612.69	1872.37
1614.17	1820.48
1615.66	1779.04
1617.15	1741.11
1618.64	1709.13
1620.13	1645.27
1621.62	1593.3
1623.1	1551.62
1624.59	1504.24
1626.08	1446.26
1627.57	1350.3
1629.06	1333.67
1630.55	1304.03
1632.03	1240.09
1633.52	1178.29
1635.01	1146.02
1636.5	1116.09
1637.99	1074.21
1639.48	1037.45
1640.96	965.887
1642.45	932.762
1643.94	898.715
1645.43	876.391
1646.92	854.554
1648.41	801.138
1649.89	795.171
1651.38	736.87
1652.87	728.004
1654.36	685.599
1655.85	657.239
1657.34	635.086
1658.82	621.394
1660.31	590.756
1661.8	559.401
1663.29	542.555
1664.78	534.964
1666.27	508.668
1667.75	483.098
1669.24	469.641
1670.73	443.203
1672.22	432.598
1673.71	414.781
1675.19	389.745
1676.68	384.662
1678.17	382.969
1679.66	366.568
1681.15	357.786
1682.64	325.71
1684.12	312.589
1685.61	315.475
1687.1	316.14
1688.59	302.599
1690.08	283.893
1691.57	273.076
1693.05	275.248
1694.54	286.512
1696.03	276.615
1697.52	269.17
1699.01	270.007
1700.5	256.17
1701.98	253.307
1703.47	266.402
1704.96	233.355
1706.45	261.489
1707.94	235.728
1709.43	227.97
1710.91	235.156
1712.4	219.124
1713.89	224.059
1715.38	197.425
1716.87	209.465
1718.36	215.114
1719.84	216.066
1721.33	205.045
1722.82	201.767
1724.31	197.58
1725.8	203.521
1727.29	200.961
1728.77	202.673
1730.26	192.388
1731.75	191.37
1733.24	192.531
1734.73	190.313
1736.22	194.353
1737.7	188.631
1739.19	185.858
1740.68	186.209
1742.17	177.843
1743.66	188.189
1745.15	179.785
1746.63	188.312
1748.12	183.927
1749.61	184.474
1751.1	184.315
1752.59	176.389
1754.08	182.338
1755.56	177.104
1757.05	170.423
1758.54	162.823
1760.03	171.236
1761.52	168.041
1763.01	176.979
1764.49	168.095
1765.98	171.172
1767.47	169.261
1768.96	170.338
1770.45	163.185
1771.93	161.505
1773.42	173.864
1774.91	163.483
1776.4	159.921
1777.89	173.03
1779.38	174.41
1780.86	179.246
1782.35	164.56
1783.84	159.748
1785.33	166.687
1786.82	167.469
1788.31	167.226
1789.79	162.707
1791.28	165.989
1792.77	164.175
1794.26	155.614
1795.75	159.373
1797.24	173.353
1798.72	158.022
1800.21	160.612
1801.7	158.385
1803.19	157.514
1804.68	150.966
1806.17	150.703
1807.65	158.715
1809.14	147.969
1810.63	146.406
1812.12	152.518
1813.61	148.116
1815.1	157.432
1816.58	157.841
1818.07	156.564
1819.56	150.538
1821.05	159.939
1822.54	143.423
1824.03	153.193
1825.51	155.475
1827	144.57
1828.49	158.55
1829.98	145.845
1831.47	150.963
1832.96	151.582
1834.44	155.962
1835.93	141.674
1837.42	153.543
1838.91	150.993
1840.4	146.449
1841.89	141.934
1843.37	152.947
1844.86	163.243
1846.35	163.84
1847.84	158.779
1849.33	149.649
1850.82	154.145
1852.3	158.395
1853.79	152.435
1855.28	145.44
1856.77	154.292
1858.26	144.465
1859.74	151.603
1861.23	163.963
1862.72	155.154
1864.21	156.481
1865.7	147.04
1867.19	158.883
1868.67	145.168
1870.16	152.189
1871.65	165.68
1873.14	151.695
1874.63	154.437
1876.12	158.32
1877.6	152.442
1879.09	142.894
1880.58	151.491
1882.07	136.443
1883.56	157.539
1885.05	151.61
1886.53	149.156
1888.02	148.644
1889.51	150.78
1891	154.712
1892.49	154.389
1893.98	138.073
1895.46	147.681
1896.95	143.502
1898.44	151.215
1899.93	141.929
1901.42	147.615
1902.91	141.417
1904.39	142.352
1905.88	148.636
1907.37	153.599
1908.86	154.163
1910.35	158.446
1911.84	157.07
1913.32	150.359
1914.81	141.477
1916.3	157.1
1917.79	152.076
1919.28	150.055
1920.77	152.288
1922.25	152.366
1923.74	156.958
1925.23	157.028
1926.72	163.683
1928.21	155.684
1929.7	150.704
1931.18	147.201
1932.67	155.867
1934.16	146.309
1935.65	154.736
1937.14	149.576
1938.63	156.506
1940.11	152.662
1941.6	145.267
1943.09	153.314
1944.58	152.737
1946.07	139.097
1947.55	160.46
1949.04	158.613
1950.53	147.956
1952.02	152.479
1953.51	149.667
1955	145.926
1956.48	154.795
1957.97	141.091
1959.46	147.081
1960.95	152.951
1962.44	151.061
1963.93	149.621
1965.41	147.667
1966.9	157.856
1968.39	147.824
1969.88	157.258
1971.37	152.667
1972.86	149.179
1974.34	154.193
1975.83	159.204
1977.32	148.786
1978.81	146.66
1980.3	145.693
1981.79	151.715
1983.27	139.982
1984.76	148.559
1986.25	153.352
1987.74	159.333
1989.23	161.487
1990.72	156.274
1992.2	156.972
1993.69	157.592
1995.18	148.759
1996.67	155.268
1998.16	153.092
1999.65	154.866
2001.13	153.142
2002.62	163.678
2004.11	148.469
2005.6	151.98
2007.09	142.017
2008.58	147.756
2010.06	150.323
2011.55	153.803
2013.04	159.942
2014.53	157.062
2016.02	161.695
2017.51	162.341
2018.99	157.331
2020.48	157.55
2021.97	155.171
2023.46	160.848
2024.95	158.179
2026.44	158.53
2027.92	148.148
2029.41	147.063
2030.9	157.7
2032.39	158.86
2033.88	161.563
2035.36	151.404
2036.85	153.95
2038.34	163.414
2039.83	155.885
2041.32	142.494
2042.81	155.527
2044.29	153.103
2045.78	144.956
2047.27	142.472
2048.76	147.81
2050.25	154.628
2051.74	153.721
2053.22	150.554
2054.71	153.095
2056.2	159.205
2057.69	160.366
2059.18	153.092
2060.67	162.148
2062.15	151.649
2063.64	149.35
2065.13	148.991
2066.62	145.482
2068.11	151.097
2069.6	150.437
2071.08	149.951
2072.57	151.755
2074.06	159.837
2075.55	159.839
2077.04	151.698
2078.53	153.925
2080.01	150.912
2081.5	159.924
2082.99	150.182
2084.48	155.014
2085.97	161.696
2087.46	153.822
2088.94	147.66
2090.43	158.053
2091.92	150.964
2093.41	155.075
2094.9	150.296
2096.39	150.882
2097.87	143.65
2099.36	152.112
2100.85	138.713
2102.34	159.718
2103.83	149.766
2105.32	158.214
2106.8	148.359
2108.29	159.151
2109.78	149.489
2111.27	151.173
2112.76	154.767
2114.25	154.77
2115.73	154.918
2117.22	160.553
2118.71	156.803
2120.2	151.771
2121.69	157.278
2123.18	157.266
2124.66	159.668
2126.15	154.532
2127.64	153.375
2129.13	157.721
2130.62	155.022
2132.1	154.05
2133.59	154
2135.08	163.844
2136.57	158.314
2138.06	155.928
2139.55	163.008
2141.03	159.439
2142.52	166.755
2144.01	152.842
2145.5	157.799
2146.99	158.632
2148.48	161.512
2149.96	165.331
2151.45	159.657
2152.94	154.34
2154.43	156.491
2155.92	159.587
2157.41	146.084
2158.89	164.854
2160.38	174.001
2161.87	150.9
2163.36	154.384
2164.85	145.415
2166.34	154.43
2167.82	154.997
2169.31	161.443
2170.8	165.148
2172.29	158.944
2173.78	155.434
2175.27	165.467
2176.75	150.054
2178.24	162.466
2179.73	160.299
2181.22	163.652
2182.71	155.572
2184.2	161.651
2185.68	160.782
2187.17	149.598
2188.66	161.806
2190.15	161.203
2191.64	159.782
2193.13	169.256
2194.61	161.703
2196.1	160.005
2197.59	163.33
2199.08	159.326
2200.57	160.19
2202.06	160.859
2203.54	155.22
2205.03	172.022
2206.52	171.107
2208.01	172.034
2209.5	157.094
2210.99	161.7
2212.47	159.727
2213.96	162.026
2215.45	156.193
2216.94	176.159
2218.43	164.112
2219.92	175.457
2221.4	174.533
2222.89	164.258
2224.38	174.474
2225.87	162.1
2227.36	160.784
2228.84	164.902
2230.33	168.812
2231.82	164.133
2233.31	160.534
2234.8	157.397
2236.29	168.488
2237.77	172.09
2239.26	158.981
2240.75	174.222
2242.24	171.58
2243.73	175.53
2245.22	165.667
2246.7	174.781
2248.19	169.564
2249.68	169.727
2251.17	176.684
2252.66	161.046
2254.15	170.902
2255.63	174.607
2257.12	165.619
2258.61	173.944
2260.1	166.86
2261.59	182.447
2263.08	174.589
2264.56	159.76
2266.05	174.061
2267.54	166.056
2269.03	182.636
2270.52	172.426
2272.01	170.738
2273.49	166.194
2274.98	179.718
2276.47	163.945
2277.96	174.996
2279.45	176.127
2280.94	179.698
2282.42	181.049
2283.91	170.877
2285.4	168.389
2286.89	182.744
2288.38	172.578
2289.87	167.085
2291.35	174.722
2292.84	169.667
2294.33	180.7
2295.82	181.367
2297.31	169.89
2298.8	184.926
2300.28	172.765
2301.77	168.76
2303.26	181.09
2304.75	179.729
2306.24	176.808
2307.73	167.576
2309.21	172.914
2310.7	179.419
2312.19	171.181
2313.68	180.646
2315.17	172.873
2316.65	178.183
2318.14	178.389
2319.63	172.244
2321.12	183.604
2322.61	180.647
2324.1	178.827
2325.58	187.113
2327.07	208.513
2328.56	232.653
2330.05	272.659
2331.54	264.808
2333.03	223.483
2334.51	183.716
2336	183.788
2337.49	186.315
2338.98	194.106
2340.47	201.812
2341.96	189.746
2343.44	192.473
2344.93	192.29
2346.42	191.689
2347.91	202.404
2349.4	188.079
2350.89	206.834
2352.37	185.124
2353.86	192.832
2355.35	198.529
2356.84	204.452
2358.33	200.13
2359.82	198.131
2361.3	202.024
2362.79	190.84
2364.28	191.49
2365.77	205.777
2367.26	196.688
2368.75	204.588
2370.23	199.494
2371.72	195.718
2373.21	204.235
2374.7	205.413
2376.19	200.88
2377.68	200.117
2379.16	197.706
2380.65	205.97
2382.14	204.709
2383.63	203.831
2385.12	214.288
2386.61	220.113
2388.09	209.317
2389.58	214.371
2391.07	218.344
2392.56	217.115
2394.05	216.536
2395.54	217.267
2397.02	222.053
2398.51	228.379
2400	227.719