File: Example Data/Raman/CNT - TIM/Raytheon/Al foil/2010/06-08-10/Ola - B8 - bottom.txt
300	341.51
301.488	339.128
302.977	353.42
304.465	355.649
305.953	339.825
307.442	340.815
308.93	347.434
310.418	361.861
311.906	348.204
313.395	336.03
314.883	357.53
316.371	364.924
317.86	338.885
319.348	352.607
320.836	345.147
322.325	331.667
323.813	347.259
325.301	352.817
326.79	349.388
328.278	342.327
329.766	337.379
331.254	334.178
332.743	343.053
334.231	335.925
335.719	344.593
337.208	351.16
338.696	331.029
340.184	321.163
341.673	337.712
343.161	339.957
344.649	345.619
346.137	328.057
347.626	327.408
349.114	328.751
350.602	320.957
352.091	333.691
353.579	341.125
355.067	327.544
356.556	328.504
358.044	333.645
359.532	334.329
361.021	331.161
362.509	333.727
363.997	333.925
365.485	338.036
366.974	325.057
368.462	314.558
369.95	330.353
371.439	321.489
372.927	315.296
374.415	325.344
375.904	325.224
377.392	314.568
378.88	321.87
380.369	323.474
381.857	325.907
383.345	336.823
384.833	318.57
386.322	332.155
387.81	321.692
389.298	308.5
390.787	322.932
392.275	304.809
393.763	322.068
395.252	315.814
396.74	322.433
398.228	321.957
399.717	314.19
401.205	311.996
402.693	315.165
404.181	325.895
405.67	331.541
407.158	313.984
408.646	317.136
410.135	314.575
411.623	314.817
413.111	328.083
414.6	331.704
416.088	324.87
417.576	325.579
419.064	321.045
420.553	298.254
422.041	327.271
423.529	312.605
425.018	314.319
426.506	309.885
427.994	316.768
429.483	324.751
430.971	305.712
432.459	299.097
433.948	319.949
435.436	314.239
436.924	323.132
438.412	312.704
439.901	300.465
441.389	314.497
442.877	306.663
444.366	301.932
445.854	304.927
447.342	320.703
448.831	293.709
450.319	302.149
451.807	313.996
453.296	288.805
454.784	313.897
456.272	302.493
457.76	302.544
459.249	311.637
460.737	302.382
462.225	311.189
463.714	297.467
465.202	298.75
466.69	295.85
468.179	307.246
469.667	305.066
471.155	283.419
472.644	289.247
474.132	300.077
475.62	295.677
477.108	288.161
478.597	278.435
480.085	278.301
481.573	279.729
483.062	284.046
484.55	266.334
486.038	282.346
487.527	278.704
489.015	278.447
490.503	294.672
491.991	273.974
493.48	262.673
494.968	258.784
496.456	280.403
497.945	276.888
499.433	257.117
500.921	273.328
502.41	267.683
503.898	257.782
505.386	268.453
506.875	254.717
508.363	244.056
509.851	261.483
511.339	251.174
512.828	259.124
514.316	256.629
515.804	250.279
517.293	257.992
518.781	261.108
520.269	259.58
521.758	255.544
523.246	268.662
524.734	259.729
526.223	244.004
527.711	266.219
529.199	263.237
530.687	256.355
532.176	265.205
533.664	246.41
535.152	261.537
536.641	262.017
538.129	253.308
539.617	249.906
541.106	257.215
542.594	258.457
544.082	256.663
545.57	256.359
547.059	264.409
548.547	250.886
550.035	265.265
551.524	267.29
553.012	258.926
554.5	256.122
555.989	264.046
557.477	261.968
558.965	250.531
560.454	258.091
561.942	258.996
563.43	263.582
564.919	244.07
566.407	274.42
567.895	264.08
569.383	270.261
570.872	249.676
572.36	270.577
573.848	265.873
575.337	277.43
576.825	274.157
578.313	255.314
579.802	267.098
581.29	262.621
582.778	270.706
584.266	277.977
585.755	282.648
587.243	265.988
588.731	263.421
590.22	254.812
591.708	271.674
593.196	280.884
594.685	274.474
596.173	262.464
597.661	274.832
599.15	281.342
600.638	274
602.126	276.797
603.614	275.901
605.103	269.974
606.591	278.571
608.079	281.568
609.568	282.578
611.056	280.976
612.544	261.449
614.033	268
615.521	274.3
617.009	275.81
618.497	275.377
619.986	271.629
621.474	269.302
622.962	282.303
624.451	289.493
625.939	288.721
627.427	279.026
628.916	293.145
630.404	282.012
631.892	284.857
633.381	282.106
634.869	288.408
636.357	285.683
637.846	289.91
639.334	296.777
640.822	298.794
642.31	300.924
643.799	290.607
645.287	295.899
646.775	289.333
648.264	301.192
649.752	292.306
651.24	307.406
652.729	291.75
654.217	290.461
655.705	290.4
657.193	303.363
658.682	304.601
660.17	296.873
661.658	310.837
663.147	294.926
664.635	302.01
666.123	300.33
667.612	303.209
669.1	305.436
670.588	302.249
672.077	308.307
673.565	294.261
675.053	306.242
676.541	314.703
678.03	286.633
679.518	295.791
681.006	294.921
682.495	301.927
683.983	300.097
685.471	309.071
686.96	303.675
688.448	308.027
689.936	297.432
691.424	293.676
692.913	301.008
694.401	305.388
695.889	301.326
697.378	296.556
698.866	304.304
700.354	305.802
701.843	310.134
703.331	303.584
704.819	315.721
706.308	289.941
707.796	296.807
709.284	328.006
710.773	304.997
712.261	306.867
713.749	308.488
715.237	302.159
716.726	323.434
718.214	318.572
719.702	319.596
721.191	309.241
722.679	303.396
724.167	318.874
725.656	318.088
727.144	319.033
728.632	343.244
730.12	324.186
731.609	329.4
733.097	320.442
734.585	326.932
736.074	317.085
737.562	336.417
739.05	335.916
740.539	327.272
742.027	327.998
743.515	332.601
745.004	324.752
746.492	349.602
747.98	346.894
749.468	348.808
750.957	338.784
752.445	358.041
753.933	335.584
755.422	351.255
756.91	350.334
758.398	345.843
759.887	355.664
761.375	337.716
762.863	359.108
764.352	360.23
765.84	367.233
767.328	350.815
768.816	354.695
770.305	367.762
771.793	343.822
773.281	356.229
774.77	350.434
776.258	362.721
777.746	354.764
779.235	369.33
780.723	374.395
782.211	360.941
783.7	354.075
785.188	352.702
786.676	359.578
788.164	357.311
789.653	357.109
791.141	350.6
792.629	382.409
794.118	364.199
795.606	371.564
797.094	387.884
798.583	400.114
800.071	379.107
801.559	377.979
803.047	374.829
804.536	371.377
806.024	366.628
807.512	394.793
809.001	372.513
810.489	372.517
811.977	382.902
813.466	367.671
814.954	378.05
816.442	381.093
817.931	400.339
819.419	386.686
820.907	378.874
822.395	374.457
823.884	374.345
825.372	398.314
826.86	383.155
828.349	385.218
829.837	384.353
831.325	389.526
832.814	382.126
834.302	396.155
835.79	387.158
837.279	381.006
838.767	379.174
840.255	397.258
841.743	397.677
843.232	382.51
844.72	406.464
846.208	400.627
847.697	404.571
849.185	369.632
850.673	407.832
852.162	391.863
853.65	392.173
855.138	400.886
856.627	395.077
858.115	405.251
859.603	387.48
861.091	384.484
862.58	387.866
864.068	383.03
865.556	380.669
867.045	380.851
868.533	376.358
870.021	385.125
871.51	390.065
872.998	368.952
874.486	362.173
875.974	366.235
877.463	369.856
878.951	370.173
880.439	373.793
881.928	366.972
883.416	365.471
884.904	364.091
886.393	352.679
887.881	352.197
889.369	359.86
890.858	352.194
892.346	343.22
893.834	349.709
895.322	334.475
896.811	340.754
898.299	331.478
899.787	332.63
901.276	337.143
902.764	337.219
904.252	339.482
905.741	344.178
907.229	334.764
908.717	330.623
910.206	327.361
911.694	323.631
913.182	328.158
914.67	320.606
916.159	332.242
917.647	339.179
919.135	330.571
920.624	320.709
922.112	321.25
923.6	328.658
925.089	323.784
926.577	332.394
928.065	319.358
929.554	310.47
931.042	321.63
932.53	318.972
934.018	334.798
935.507	324.577
936.995	328.295
938.483	320.276
939.972	321.151
941.46	324.745
942.948	315.231
944.437	321.293
945.925	330.023
947.413	335.228
948.901	330.242
950.39	329.934
951.878	334.395
953.366	321.094
954.855	350.64
956.343	324.819
957.831	319.92
959.32	330.889
960.808	343.185
962.296	339.892
963.785	344.032
965.273	346.339
966.761	338.403
968.249	344.171
969.738	348.863
971.226	329.635
972.714	329.239
974.203	338.196
975.691	341.989
977.179	335.394
978.668	341.877
980.156	349.717
981.644	347.956
983.133	346.052
984.621	337.804
986.109	344.382
987.597	347.138
989.086	352.942
990.574	362.396
992.062	352.752
993.551	362.246
995.039	347.353
996.527	357.667
998.016	373.697
999.504	364.668
1000.99	361.321
1002.48	365.95
1003.97	369.398
1005.46	379.489
1006.95	371.345
1008.43	374.042
1009.92	385.345
1011.41	377.371
1012.9	378.191
1014.39	378.239
1015.88	406.442
1017.36	389.208
1018.85	393.033
1020.34	403.709
1021.83	413.499
1023.32	404.002
1024.81	422.507
1026.29	413.254
1027.78	424.119
1029.27	433.916
1030.76	416.787
1032.25	441.916
1033.73	456.279
1035.22	452.438
1036.71	453.254
1038.2	438.713
1039.69	448.352
1041.18	451.576
1042.66	441.205
1044.15	445.301
1045.64	444.698
1047.13	452.624
1048.62	458.779
1050.11	482.533
1051.59	491.231
1053.08	481.343
1054.57	462.187
1056.06	465.245
1057.55	479.426
1059.04	472.947
1060.52	476.545
1062.01	480.885
1063.5	496.777
1064.99	492.11
1066.48	482.779
1067.97	502.969
1069.45	491.699
1070.94	507.749
1072.43	502.22
1073.92	509.035
1075.41	503.993
1076.9	509.517
1078.38	511.28
1079.87	521.526
1081.36	514.73
1082.85	526.02
1084.34	527.089
1085.83	527.853
1087.31	534.861
1088.8	542.364
1090.29	532.746
1091.78	549.094
1093.27	555.447
1094.76	545.009
1096.24	557.76
1097.73	579.71
1099.22	569.6
1100.71	576.3
1102.2	578.903
1103.69	560.312
1105.17	589.289
1106.66	571.325
1108.15	572.223
1109.64	588.093
1111.13	611.317
1112.62	602.51
1114.1	609.925
1115.59	601.174
1117.08	618.858
1118.57	612.22
1120.06	615.784
1121.55	622.535
1123.03	636.326
1124.52	634.68
1126.01	633.526
1127.5	636.015
1128.99	659.027
1130.47	660.946
1131.96	666.313
1133.45	657.008
1134.94	672.406
1136.43	673.833
1137.92	681.564
1139.4	704.125
1140.89	692.382
1142.38	733.222
1143.87	728.638
1145.36	711.589
1146.85	736.959
1148.33	752.047
1149.82	753.335
1151.31	753.403
1152.8	768.996
1154.29	766.601
1155.78	761.197
1157.26	767.604
1158.75	766.161
1160.24	760.337
1161.73	800.045
1163.22	831.718
1164.71	830.041
1166.19	803.675
1167.68	788.953
1169.17	819.456
1170.66	829.681
1172.15	821.698
1173.64	840.821
1175.12	843.492
1176.61	861.887
1178.1	836.266
1179.59	842.245
1181.08	865.983
1182.57	842.3
1184.05	871.246
1185.54	880.864
1187.03	860.489
1188.52	881.202
1190.01	888.267
1191.5	888.456
1192.98	885.088
1194.47	896.943
1195.96	907.423
1197.45	909.914
1198.94	932.268
1200.43	924.41
1201.91	913.742
1203.4	937.21
1204.89	943.712
1206.38	940.505
1207.87	962.894
1209.36	971.562
1210.84	956.163
1212.33	993.043
1213.82	978.8
1215.31	994.738
1216.8	1006.76
1218.28	1024.85
1219.77	999.634
1221.26	1018.29
1222.75	1050.11
1224.24	1067.11
1225.73	1083.36
1227.21	1068.83
1228.7	1064.34
1230.19	1105
1231.68	1108.85
1233.17	1102.24
1234.66	1141.08
1236.14	1147.03
1237.63	1114.75
1239.12	1162.62
1240.61	1181.15
1242.1	1173.4
1243.59	1198.47
1245.07	1207.71
1246.56	1214.08
1248.05	1239.45
1249.54	1256.02
1251.03	1285.31
1252.52	1284.55
1254	1321.64
1255.49	1340.74
1256.98	1341.06
1258.47	1335.74
1259.96	1350.97
1261.45	1346.49
1262.93	1389.54
1264.42	1413.93
1265.91	1426.59
1267.4	1469.79
1268.89	1459.96
1270.38	1514.32
1271.86	1472.78
1273.35	1550
1274.84	1578.92
1276.33	1535.73
1277.82	1604.68
1279.31	1617.45
1280.79	1620.36
1282.28	1686.11
1283.77	1701.67
1285.26	1716.81
1286.75	1719.3
1288.24	1767.11
1289.72	1778.81
1291.21	1834.2
1292.7	1847.32
1294.19	1848.24
1295.68	1896.07
1297.17	1908.96
1298.65	1971.85
1300.14	1964.63
1301.63	2014.34
1303.12	2048.72
1304.61	2074.68
1306.09	2101.92
1307.58	2177.29
1309.07	2178.14
1310.56	2228.55
1312.05	2215.39
1313.54	2258.61
1315.02	2305.93
1316.51	2322.82
1318	2363.38
1319.49	2375.31
1320.98	2425.84
1322.47	2437.34
1323.95	2476.03
1325.44	2520.45
1326.93	2544.91
1328.42	2570.09
1329.91	2583.87
1331.4	2629.32
1332.88	2659.11
1334.37	2686.06
1335.86	2698.07
1337.35	2714.55
1338.84	2701.65
1340.33	2698.81
1341.81	2726.06
1343.3	2720.3
1344.79	2757.95
1346.28	2734.35
1347.77	2723.94
1349.26	2716.04
1350.74	2690.93
1352.23	2702.35
1353.72	2720.36
1355.21	2689.34
1356.7	2635.04
1358.19	2618.51
1359.67	2651
1361.16	2585.62
1362.65	2597.29
1364.14	2560.11
1365.63	2578.85
1367.12	2537.91
1368.6	2455.84
1370.09	2484.21
1371.58	2414.89
1373.07	2443.78
1374.56	2370.04
1376.05	2390.21
1377.53	2294.05
1379.02	2276.66
1380.51	2291.92
1382	2261.58
1383.49	2211.69
1384.98	2150.56
1386.46	2149.59
1387.95	2139.31
1389.44	2117.31
1390.93	2083.45
1392.42	2064.94
1393.91	1997.58
1395.39	1984.79
1396.88	1936.05
1398.37	1910.79
1399.86	1906.13
1401.35	1899.6
1402.83	1920.08
1404.32	1842.31
1405.81	1860.97
1407.3	1784.26
1408.79	1749.01
1410.28	1759.98
1411.76	1763.05
1413.25	1723
1414.74	1717.77
1416.23	1683.21
1417.72	1695.91
1419.21	1700.87
1420.69	1679.08
1422.18	1659.47
1423.67	1633.33
1425.16	1615.42
1426.65	1635.4
1428.14	1588.23
1429.62	1604.1
1431.11	1586.76
1432.6	1546.45
1434.09	1569.65
1435.58	1556.4
1437.07	1527.73
1438.55	1545.4
1440.04	1536.38
1441.53	1545.88
1443.02	1528.8
1444.51	1540.02
1446	1538.68
1447.48	1495.06
1448.97	1489.83
1450.46	1496.8
1451.95	1476.27
1453.44	1486.41
1454.93	1462.36
1456.41	1468.41
1457.9	1493.16
1459.39	1470.61
1460.88	1461.79
1462.37	1477.73
1463.86	1460.21
1465.34	1472.18
1466.83	1451.16
1468.32	1472.83
1469.81	1457.55
1471.3	1461.37
1472.79	1459.92
1474.27	1452.43
1475.76	1439.33
1477.25	1454.15
1478.74	1449.46
1480.23	1462.72
1481.72	1444.18
1483.2	1450.25
1484.69	1459.19
1486.18	1432.51
1487.67	1468.65
1489.16	1480.72
1490.64	1407.72
1492.13	1459.26
1493.62	1437.3
1495.11	1450.32
1496.6	1467.69
1498.09	1478.43
1499.57	1466.46
1501.06	1444.57
1502.55	1473.28
1504.04	1473.68
1505.53	1500.64
1507.02	1476.01
1508.5	1461.47
1509.99	1482.08
1511.48	1492.87
1512.97	1480.15
1514.46	1493.75
1515.95	1477.1
1517.43	1488.4
1518.92	1500.66
1520.41	1506.64
1521.9	1484.78
1523.39	1499.07
1524.88	1543.46
1526.36	1521.35
1527.85	1548.02
1529.34	1540.2
1530.83	1585.23
1532.32	1535.49
1533.81	1604.87
1535.29	1603.74
1536.78	1559.92
1538.27	1615.44
1539.76	1658.83
1541.25	1647.14
1542.74	1658.5
1544.22	1691.75
1545.71	1685.2
1547.2	1710.62
1548.69	1755.98
1550.18	1759.84
1551.67	1756.26
1553.15	1769.85
1554.64	1827.92
1556.13	1891.71
1557.62	1915.45
1559.11	1920.45
1560.6	1932.38
1562.08	1959.56
1563.57	1961.09
1565.06	2054.19
1566.55	2086.06
1568.04	2081.71
1569.53	2128.11
1571.01	2169.02
1572.5	2257.15
1573.99	2252.24
1575.48	2326.82
1576.97	2354.78
1578.45	2376.57
1579.94	2436.51
1581.43	2465.11
1582.92	2498.24
1584.41	2551.57
1585.9	2617.67
1587.38	2675.27
1588.87	2694.37
1590.36	2711.5
1591.85	2736.54
1593.34	2760.05
1594.83	2768.02
1596.31	2815.41
1597.8	2777.08
1599.29	2794.74
1600.78	2825.95
1602.27	2769.45
1603.76	2833.98
1605.24	2752.8
1606.73	2763.49
1608.22	2708.03
1609.71	2613.43
1611.2	2606.12
1612.69	2544.04
1614.17	2495.56
1615.66	2467.57
1617.15	2403.96
1618.64	2340.08
1620.13	2304.64
1621.62	2201.58
1623.1	2131.59
1624.59	2058.18
1626.08	1914.38
1627.57	1891.03
1629.06	1815.86
1630.55	1739.96
1632.03	1671.81
1633.52	1624.47
1635.01	1552.43
1636.5	1509.91
1637.99	1442.83
1639.48	1381.96
1640.96	1314.42
1642.45	1269.01
1643.94	1225.45
1645.43	1190.21
1646.92	1135.92
1648.41	1102.68
1649.89	1058.94
1651.38	1010.44
1652.87	950.477
1654.36	941.958
1655.85	929.552
1657.34	869.579
1658.82	819.78
1660.31	794.793
1661.8	795.052
1663.29	752.22
1664.78	717.132
1666.27	697.135
1667.75	669.413
1669.24	660.101
1670.73	606.871
1672.22	606.333
1673.71	588.596
1675.19	585.949
1676.68	529.22
1678.17	530.989
1679.66	500.509
1681.15	492.145
1682.64	471.743
1684.12	473.92
1685.61	432.431
1687.1	437.737
1688.59	437.862
1690.08	418.271
1691.57	392.916
1693.05	394.538
1694.54	388.992
1696.03	388.291
1697.52	375.091
1699.01	347.308
1700.5	361.024
1701.98	349.838
1703.47	358.785
1704.96	352.865
1706.45	339.063
1707.94	347.452
1709.43	335.262
1710.91	330.529
1712.4	330.626
1713.89	302.342
1715.38	301.585
1716.87	287.38
1718.36	307.328
1719.84	304.145
1721.33	296.745
1722.82	276.905
1724.31	286.057
1725.8	281.607
1727.29	267.294
1728.77	274.427
1730.26	277.94
1731.75	278.122
1733.24	274.605
1734.73	267.717
1736.22	261.345
1737.7	252.453
1739.19	272.559
1740.68	260.323
1742.17	274.493
1743.66	251.684
1745.15	263.46
1746.63	259.976
1748.12	250.305
1749.61	244.224
1751.1	248.478
1752.59	251.586
1754.08	251.871
1755.56	252.053
1757.05	241.446
1758.54	252.501
1760.03	237.855
1761.52	236.942
1763.01	241.222
1764.49	238.95
1765.98	238.009
1767.47	235.228
1768.96	242.048
1770.45	233.653
1771.93	236.602
1773.42	227.572
1774.91	233.589
1776.4	226.889
1777.89	230.389
1779.38	222.59
1780.86	224.107
1782.35	218.705
1783.84	228.777
1785.33	226.257
1786.82	220.23
1788.31	228.419
1789.79	214.957
1791.28	218.306
1792.77	218.099
1794.26	229.209
1795.75	213.356
1797.24	228.637
1798.72	222.079
1800.21	229.285
1801.7	219.32
1803.19	211.742
1804.68	216.053
1806.17	218.646
1807.65	217.739
1809.14	219.791
1810.63	206.488
1812.12	211.943
1813.61	213.538
1815.1	213.885
1816.58	213.092
1818.07	198.198
1819.56	220.398
1821.05	222.255
1822.54	205.807
1824.03	215.72
1825.51	227.225
1827	213.84
1828.49	223.285
1829.98	209.89
1831.47	202.287
1832.96	213.659
1834.44	219.179
1835.93	217.645
1837.42	212.515
1838.91	223.077
1840.4	207.142
1841.89	210.232
1843.37	206.339
1844.86	210.111
1846.35	215.877
1847.84	216.007
1849.33	215.702
1850.82	221.089
1852.3	215.591
1853.79	205.353
1855.28	201.861
1856.77	216.398
1858.26	210.852
1859.74	206.397
1861.23	217.452
1862.72	200.487
1864.21	210.016
1865.7	203.439
1867.19	201.727
1868.67	202.227
1870.16	204.905
1871.65	211.047
1873.14	204.643
1874.63	209.747
1876.12	206.552
1877.6	202.253
1879.09	197.854
1880.58	201.889
1882.07	212.058
1883.56	198.228
1885.05	208.635
1886.53	208.134
1888.02	203.159
1889.51	195.625
1891	200.254
1892.49	192.75
1893.98	212.397
1895.46	209.726
1896.95	199.739
1898.44	196.694
1899.93	200.973
1901.42	205.195
1902.91	207.247
1904.39	201.491
1905.88	199.139
1907.37	204.73
1908.86	210.785
1910.35	201.119
1911.84	202.744
1913.32	207.992
1914.81	199.211
1916.3	206.03
1917.79	200.67
1919.28	192.595
1920.77	198.933
1922.25	197.445
1923.74	199.033
1925.23	204.497
1926.72	209.99
1928.21	212.765
1929.7	195.322
1931.18	203.165
1932.67	204.039
1934.16	191.185
1935.65	211.067
1937.14	203.983
1938.63	200.947
1940.11	199.518
1941.6	198.799
1943.09	196.583
1944.58	202.574
1946.07	211.52
1947.55	202.204
1949.04	198.516
1950.53	200.881
1952.02	209.007
1953.51	197.503
1955	203.436
1956.48	199.367
1957.97	201
1959.46	194.16
1960.95	204.805
1962.44	203.394
1963.93	207.237
1965.41	201.15
1966.9	193.022
1968.39	202.781
1969.88	202.466
1971.37	206.513
1972.86	199.358
1974.34	208
1975.83	205.386
1977.32	200.529
1978.81	196.989
1980.3	199.583
1981.79	199.505
1983.27	202.907
1984.76	201.474
1986.25	209.954
1987.74	206.631
1989.23	198.521
1990.72	215.007
1992.2	203.088
1993.69	199.259
1995.18	212.066
1996.67	201.937
1998.16	201.394
1999.65	198.957
2001.13	189.39
2002.62	207.406
2004.11	205.734
2005.6	195.235
2007.09	197.497
2008.58	207.333
2010.06	212.936
2011.55	217.147
2013.04	198.046
2014.53	193.865
2016.02	204.818
2017.51	202.305
2018.99	211.051
2020.48	210.635
2021.97	204.315
2023.46	208.191
2024.95	202.418
2026.44	210.681
2027.92	205.406
2029.41	215.54
2030.9	209.733
2032.39	205.693
2033.88	204.901
2035.36	200.07
2036.85	217.946
2038.34	215.469
2039.83	209.109
2041.32	209.516
2042.81	206.678
2044.29	199.542
2045.78	201.128
2047.27	206.026
2048.76	198.107
2050.25	209.691
2051.74	216.242
2053.22	200.292
2054.71	206.34
2056.2	199.302
2057.69	207.673
2059.18	204.229
2060.67	196.694
2062.15	209.905
2063.64	214.859
2065.13	202.995
2066.62	198.704
2068.11	195.353
2069.6	210.126
2071.08	204.124
2072.57	196.272
2074.06	207.152
2075.55	202.403
2077.04	194.798
2078.53	202.418
2080.01	210.418
2081.5	205.037
2082.99	199.662
2084.48	199.1
2085.97	200.657
2087.46	198.682
2088.94	200.908
2090.43	202.133
2091.92	208.462
2093.41	200.968
2094.9	203.184
2096.39	197.264
2097.87	192.244
2099.36	212.044
2100.85	197.443
2102.34	201.738
2103.83	201.23
2105.32	206.839
2106.8	191.613
2108.29	203.894
2109.78	206.776
2111.27	203.799
2112.76	206.505
2114.25	199.645
2115.73	208.587
2117.22	202.637
2118.71	198.477
2120.2	205.408
2121.69	217.023
2123.18	201.284
2124.66	199.327
2126.15	208.845
2127.64	200.818
2129.13	202.149
2130.62	197.796
2132.1	206.833
2133.59	189.737
2135.08	207.874
2136.57	210.15
2138.06	204.785
2139.55	215.509
2141.03	207.07
2142.52	213.231
2144.01	199.551
2145.5	209.333
2146.99	212.297
2148.48	205.798
2149.96	212.763
2151.45	209.805
2152.94	202.282
2154.43	203.111
2155.92	201.392
2157.41	206.502
2158.89	201.28
2160.38	202.282
2161.87	211.716
2163.36	203.142
2164.85	215.786
2166.34	209.395
2167.82	211.224
2169.31	201.163
2170.8	217.834
2172.29	210.746
2173.78	207.269
2175.27	221.309
2176.75	223.374
2178.24	203.27
2179.73	211.611
2181.22	219.326
2182.71	206.101
2184.2	211.689
2185.68	209.747
2187.17	202.519
2188.66	210.57
2190.15	207.215
2191.64	205.886
2193.13	208.037
2194.61	214.738
2196.1	221.961
2197.59	207.604
2199.08	205.424
2200.57	206.776
2202.06	211.385
2203.54	204.94
2205.03	210.699
2206.52	212.997
2208.01	220.978
2209.5	206.038
2210.99	215.618
2212.47	205.399
2213.96	214.657
2215.45	218.796
2216.94	213.318
2218.43	212.963
2219.92	213.492
2221.4	208.425
2222.89	209.502
2224.38	211.365
2225.87	207.701
2227.36	216.486
2228.84	210.361
2230.33	223.221
2231.82	236.14
2233.31	212.491
2234.8	222.736
2236.29	220.713
2237.77	212.374
2239.26	219.625
2240.75	218.258
2242.24	212.052
2243.73	213.803
2245.22	221.661
2246.7	217.566
2248.19	229.362
2249.68	211.082
2251.17	227.651
2252.66	220.583
2254.15	225.65
2255.63	221.06
2257.12	210.207
2258.61	210.302
2260.1	223.512
2261.59	216.421
2263.08	224.281
2264.56	229.032
2266.05	228.525
2267.54	227.109
2269.03	215.183
2270.52	223.819
2272.01	241.547
2273.49	231.205
2274.98	224.77
2276.47	229.306
2277.96	230.052
2279.45	232.774
2280.94	220.761
2282.42	225.475
2283.91	222.996
2285.4	225.138
2286.89	221.611
2288.38	227.129
2289.87	219.445
2291.35	217.997
2292.84	231.286
2294.33	234.977
2295.82	225.547
2297.31	240.929
2298.8	239.168
2300.28	223.63
2301.77	227.328
2303.26	237.986
2304.75	245.777
2306.24	231.911
2307.73	230.776
2309.21	225.995
2310.7	231.389
2312.19	226.857
2313.68	243.22
2315.17	220.456
2316.65	240.648
2318.14	233.617
2319.63	231.013
2321.12	237
2322.61	241.526
2324.1	235.982
2325.58	245.474
2327.07	261.59
2328.56	277.401
2330.05	304.405
2331.54	362.584
2333.03	262.42
2334.51	226.887
2336	239.33
2337.49	243.56
2338.98	237.31
2340.47	246.29
2341.96	234.714
2343.44	240.144
2344.93	236.01
2346.42	244.452
2347.91	245.306
2349.4	244.05
2350.89	240.876
2352.37	244.613
2353.86	244.49
2355.35	237.553
2356.84	246.895
2358.33	233.552
2359.82	258.413
2361.3	251.144
2362.79	270.873
2364.28	255.169
2365.77	250.825
2367.26	263.06
2368.75	252.001
2370.23	255.771
2371.72	259.536
2373.21	254.863
2374.7	267.425
2376.19	269.043
2377.68	277.399
2379.16	263.61
2380.65	263.863
2382.14	258.509
2383.63	274.423
2385.12	269.233
2386.61	266.73
2388.09	276.382
2389.58	267.981
2391.07	290.286
2392.56	280.378
2394.05	274.268
2395.54	278.532
2397.02	286.246
2398.51	266.284
2400	270.671