File: Example Data/Raman/CNT - TIM/Raytheon/Cu foil/08-10-10/Cu foil_top.txt
300	80.8615
301.518	89.2629
303.037	96.6015
304.555	92.1445
306.073	78.4263
307.592	77.3064
309.11	86.4947
310.628	79.5605
312.147	79.0793
313.665	67.855
315.183	69.7521
316.702	81.7389
318.22	69.9171
319.738	70.0519
321.257	69.718
322.775	72.4359
324.294	79.76
325.812	65.0841
327.33	69.2303
328.849	77.2759
330.367	76.553
331.885	71.1741
333.404	67.6582
334.922	69.5915
336.44	66.1737
337.959	67.5943
339.477	65.99
340.995	59.8843
342.514	66.9025
344.032	64.6271
345.55	62.7247
347.069	62.2473
348.587	55.1563
350.105	63.8909
351.624	66.5472
353.142	58.5393
354.66	68.6838
356.179	71.8132
357.697	57.2067
359.216	63.9644
360.734	68.7128
362.252	58.3461
363.771	68.9972
365.289	67.0546
366.807	59.4001
368.326	53.7043
369.844	51.1221
371.362	53.8893
372.881	49.3325
374.399	44.9882
375.917	59.2981
377.436	58.0342
378.954	47.7215
380.472	56.683
381.991	54.9576
383.509	56.1761
385.027	60.6577
386.546	53.1922
388.064	52.456
389.582	49.0474
391.101	53.0606
392.619	53.7844
394.137	46.4889
395.656	48.1999
397.174	50.1735
398.693	48.6759
400.211	55.6214
401.729	50.2933
403.248	50.6731
404.766	45.8398
406.284	47.9029
407.803	50.9676
409.321	32.9272
410.839	45.525
412.358	40.2062
413.876	45.5394
415.394	45.8451
416.913	55.1932
418.431	39.5484
419.949	46.0028
421.468	39.6529
422.986	44.6733
424.504	39.5104
426.023	48.7226
427.541	35.2172
429.059	46.7694
430.578	35.7428
432.096	41.2957
433.615	39.1487
435.133	33.6435
436.651	35.8466
438.17	33.6065
439.688	31.3462
441.206	30.1266
442.725	33.2106
444.243	36.475
445.761	34.6796
447.28	43.4369
448.798	36.4926
450.316	31.5627
451.835	41.9089
453.353	29.2402
454.871	25.3593
456.39	38.0586
457.908	42.763
459.426	30.316
460.945	33.9707
462.463	28.5779
463.981	33.3611
465.5	31.8574
467.018	34.2085
468.536	27.8778
470.055	29.1929
471.573	30.3459
473.092	23.5903
474.61	30.2634
476.128	18.3277
477.647	27.1453
479.165	22.6258
480.683	21.5144
482.202	23.8357
483.72	28.9469
485.238	19.9663
486.757	15.9344
488.275	19.3843
489.793	16.6036
491.312	12.2585
492.83	10.437
494.348	12.24
495.867	25.3744
497.385	6.86181
498.903	6.92184
500.422	10.1116
501.94	11.2943
503.458	4.15955
504.977	11.1892
506.495	-2.67078
508.013	0.135307
509.532	-1.84948
511.05	5.99936
512.569	5.98304
514.087	12.58
515.605	6.6654
517.124	4.8892
518.642	3.65415
520.16	-2.25797
521.679	4.51721
523.197	10.3517
524.715	9.12613
526.234	3.98026
527.752	14.6081
529.27	5.28659
530.789	3.21858
532.307	1.5534
533.825	-0.0248168
535.344	4.32507
536.862	5.80905
538.38	4.31809
539.899	5.25826
541.417	5.58071
542.935	1.94428
544.454	-1.39328
545.972	4.855
547.491	7.33002
549.009	4.53102
550.527	-8.7978
552.046	6.75628
553.564	2.46398
555.082	4.73904
556.601	-2.3164
558.119	1.91941
559.637	0.62756
561.156	7.08233
562.674	-4.51869
564.192	5.71075
565.711	-3.12359
567.229	5.21875
568.747	4.6744
570.266	7.09428
571.784	4.66659
573.302	2.37463
574.821	4.26181
576.339	10.8904
577.857	3.59302
579.376	7.25643
580.894	4.97317
582.412	6.93058
583.931	9.05683
585.449	-0.544558
586.968	7.85975
588.486	4.90884
590.004	-0.399051
591.523	4.96818
593.041	-0.77701
594.559	8.31573
596.078	5.32751
597.596	-1.47057
599.114	1.81173
600.633	-5.98879
602.151	7.42733
603.669	10.7376
605.188	7.91528
606.706	6.66052
608.224	14.3935
609.743	4.35472
611.261	4.20491
612.779	13.9016
614.298	9.46333
615.816	6.97
617.334	14.1738
618.853	5.35527
620.371	13.5339
621.89	10.4427
623.408	8.46169
624.926	-4.27907
626.445	2.30499
627.963	12.2025
629.481	10.367
631	3.54318
632.518	8.38077
634.036	17.8649
635.555	2.13611
637.073	9.1341
638.591	14.5326
640.11	12.7287
641.628	29.473
643.146	18.0917
644.665	4.34416
646.183	13.7352
647.701	12.9936
649.22	7.82054
650.738	2.1198
652.256	7.60541
653.775	8.94003
655.293	2.14513
656.811	21.8826
658.33	17.1877
659.848	0.385822
661.367	11.3244
662.885	17.396
664.403	12.737
665.922	14.7898
667.44	19.1835
668.958	10.8614
670.477	28.9924
671.995	13.3203
673.513	21.8437
675.032	23.5236
676.55	11.2044
678.068	18.2322
679.587	7.5235
681.105	13.0151
682.623	3.24057
684.142	16.916
685.66	17.3047
687.178	16.092
688.697	7.43012
690.215	12.6182
691.733	12.0999
693.252	12.5323
694.77	15.7786
696.289	14.8384
697.807	14.705
699.325	11.7667
700.844	13.0554
702.362	10.678
703.88	12.263
705.399	6.12825
706.917	16.7857
708.435	31.8266
709.954	20.9635
711.472	26.4283
712.99	22.8399
714.509	15.6889
716.027	16.1897
717.545	21.3054
719.064	27.7582
720.582	28.6238
722.1	22.9765
723.619	16.4939
725.137	23.4493
726.655	20.6047
728.174	22.3484
729.692	15.7957
731.21	28.3779
732.729	26.9073
734.247	34.2525
735.766	27.9472
737.284	39.35
738.802	26.5738
740.321	24.2219
741.839	30.1191
743.357	22.261
744.876	32.6773
746.394	30.3848
747.912	32.2121
749.431	30.7901
750.949	26.3541
752.467	35.4839
753.986	32.0912
755.504	32.2806
757.022	36.5503
758.541	39.6615
760.059	37.7598
761.577	31.9164
763.096	29.1971
764.614	30.0216
766.132	28.8226
767.651	29.5191
769.169	31.829
770.6875	38.1466
772.206	30.4474
773.724	34.2227
775.242	30.1013
776.761	29.1366
778.279	32.605
779.798	36.6646
781.316	29.2051
782.834	43.0321
784.353	39.5608
785.871	42.0289
787.389	47.1535
788.908	44.7362
790.426	38.0989
791.944	34.9986
793.463	41.1457
794.981	30.6858
796.499	38.7765
798.018	41.5162
799.536	37.7394
801.054	50.794
802.573	46.8207
804.091	47.4512
805.609	38.0467
807.128	39.9191
808.646	46.5737
810.164	44.8879
811.683	50.1091
813.201	43.575
814.72	50.1493
816.238	46.2871
817.756	56.5016
819.275	51.827
820.793	54.2093
822.311	55.321
823.83	52.6682
825.348	63.746
826.866	58.4947
828.385	42.4365
829.903	51.4855
831.421	49.5008
832.94	47.8615
834.458	56.1995
835.976	51.3705
837.495	42.944
839.013	48.687
840.531	62.8676
842.05	60.6665
843.568	58.0275
845.086	53.3258
846.605	51.4973
848.123	57.9101
849.641	55.9621
851.16	45.3004
852.678	56.8881
854.197	65.0553
855.715	48.317
857.233	58.3569
858.752	58.0757
860.27	48.8965
861.788	59.5545
863.307	53.322
864.825	49.0692
866.343	57.9448
867.862	48.4065
869.38	38.0698
870.898	51.2515
872.417	31.4453
873.935	39.6966
875.453	44.7789
876.972	29.9143
878.49	35.333
880.008	36.523
881.527	45.7376
883.045	22.976
884.563	39.6662
886.082	42.5021
887.6	31.8966
889.119	20.0184
890.637	23.4816
892.155	27.0085
893.674	31.0219
895.192	18.7764
896.71	28.3569
898.229	19.1766
899.747	12.2765
901.265	14.9819
902.784	4.58223
904.302	23.6125
905.82	13.533
907.339	13.5091
908.857	15.0945
910.375	24.063
911.894	10.7485
913.412	-1.9196
914.93	8.44231
916.449	10.8883
917.967	16.3672
919.485	10.3816
921.004	8.41384
922.522	3.09954
924.04	4.71551
925.559	7.60852
927.077	5.1048
928.596	5.9012
930.114	5.27753
931.632	8.86291
933.151	8.06708
934.669	3.2556
936.187	4.37406
937.706	2.70632
939.224	0.0831055
940.742	-0.266109
942.261	2.64854
943.779	4.95157
945.297	13.4098
946.816	2.84663
948.334	5.08777
949.852	8.26525
951.371	3.13753
952.889	3.38683
954.407	2.98913
955.926	3.48241
957.444	3.64973
958.962	-8.92547
960.481	0.453257
961.999	0.569941
963.518	-2.62198
965.036	-8.56482
966.554	-5.70696
968.073	-8.75365
969.591	-8.5058
971.109	-14.7009
972.628	-8.38591
974.146	-15.6915
975.664	-18.3117
977.183	-26.3999
978.701	-17.4082
980.219	-25.0217
981.738	-18.9344
983.256	-7.83338
984.774	-22.2329
986.293	-12.1753
987.811	-20.4531
989.329	-24.0898
990.848	-33.2436
992.366	-22.1054
993.884	-25.6039
995.403	-15.7398
996.921	-30.2565
998.439	-25.6504
999.958	-16.3395
1001.48	-17.6239
1002.99	-23.7976
1004.51	-30.8215
1006.03	-20.756
1007.55	-24.9129
1009.07	-25.6436
1010.59	-27.4199
1012.1	-18.4948
1013.62	-22.1608
1015.14	-28.1671
1016.66	-42.517
1018.18	-28.7457
1019.7	-24.6583
1021.21	-31.0214
1022.73	-21.5788
1024.25	-30.1176
1025.77	-18.4671
1027.29	-26.6304
1028.81	-22.5756
1030.32	-24.9655
1031.84	-36.9287
1033.36	-17.7852
1034.88	-17.7632
1036.4	-19.1407
1037.92	-23.3958
1039.43	-23.9037
1040.95	-15.0364
1042.47	-18.2934
1043.99	-19.7892
1045.51	-22.0203
1047.03	-16.2927
1048.54	-26.6289
1050.06	-22.064
1051.58	-12.8277
1053.1	-19.7455
1054.62	-30.4792
1056.14	-27.4278
1057.66	-27.6877
1059.17	-27.386
1060.69	-25.3624
1062.21	-26.3456
1063.73	-24.2191
1065.25	-26.955
1066.77	-25.7048
1068.28	-16.5016
1069.8	-32.8657
1071.32	-28.8099
1072.84	-25.7367
1074.36	-17.5961
1075.88	-20.8188
1077.39	-29.2521
1078.91	-16.9711
1080.43	-22.7733
1081.95	-22.1004
1083.47	-25.4907
1084.99	-32.2309
1086.5	-25.8714
1088.02	-19.0243
1089.54	-25.271
1091.06	-22.9891
1092.58	-26.359
1094.1	-20.3849
1095.61	-24.2358
1097.13	-22.1831
1098.65	-23.6825
1100.17	-15.1471
1101.69	-21.0946
1103.21	-18.8683
1104.72	-23.3018
1106.24	-17.6768
1107.76	-12.2533
1109.28	-18.2276
1110.8	-21.5659
1112.32	-17.9063
1113.83	-20.4235
1115.35	-14.6661
1116.87	-11.6029
1118.39	-16.8712
1119.91	-5.1516
1121.43	-17.6939
1122.94	-17.6413
1124.46	10.8395
1125.98	-1.536
1127.5	0.814712
1129.02	-14.2451
1130.54	-7.66249
1132.05	1.64061
1133.57	0.111196
1135.09	3.57058
1136.61	6.91753
1138.13	1.08852
1139.65	11.4099
1141.16	12.2689
1142.68	6.79992
1144.2	21.2425
1145.72	7.06537
1147.24	19.2132
1148.76	15.9435
1150.27	18.8518
1151.79	13.3763
1153.31	17.8965
1154.83	14.5611
1156.35	32.2471
1157.87	30.2521
1159.38	29.0909
1160.9	27.7192
1162.42	43.0023
1163.94	39.1459
1165.46	28.5418
1166.98	32.1516
1168.49	48.9761
1170.01	31.7835
1171.53	40.7904
1173.05	33.5977
1174.57	33.2243
1176.09	38.5606
1177.6	45.7108
1179.12	42.1329
1180.64	31.9199
1182.16	26.9152
1183.68	47.1576
1185.2	27.5978
1186.71	41.3384
1188.23	58.1576
1189.75	52.8112
1191.27	35.089
1192.79	37.6964
1194.31	72.4662
1195.82	65.0106
1197.34	58.7516
1198.86	59.0005
1200.38	71.2181
1201.9	69.7375
1203.42	73.1141
1204.93	59.4034
1206.45	75.3366
1207.97	70.0797
1209.49	76.2985
1211.01	77.1763
1212.53	79.0578
1214.04	71.3038
1215.56	85.0508
1217.08	87.6054
1218.6	91.3981
1220.12	75.8095
1221.64	105.158
1223.15	90.236
1224.67	99.2008
1226.19	103.337
1227.71	110.072
1229.23	117.671
1230.75	116.779
1232.26	128.465
1233.78	130.56
1235.3	129.704
1236.82	119.611
1238.34	128.01
1239.86	132.453
1241.375	155.321
1242.89	133.931
1244.41	177.519
1245.93	162.717
1247.45	171.829
1248.97	156.743
1250.48	187.89
1252	191.217
1253.52	189.735
1255.04	197.739
1256.56	189.194
1258.08	221.654
1259.6	222.692
1261.11	238.744
1262.63	225.613
1264.15	237.203
1265.67	238.199
1267.19	257.498
1268.71	277.97
1270.22	282.57
1271.74	316.498
1273.26	289.256
1274.78	295.846
1276.3	322.844
1277.82	342.516
1279.33	346.013
1280.85	352.44
1282.37	379.447
1283.89	381.561
1285.41	386.434
1286.93	401.055
1288.44	413.822
1289.96	457.824
1291.48	455.708
1293	469.721
1294.52	507.124
1296.04	507.898
1297.55	540.216
1299.07	567.46
1300.59	574.081
1302.11	595.7
1303.63	612.476
1305.15	635.46
1306.66	664.763
1308.18	685.752
1309.7	703.676
1311.22	715.197
1312.74	762.497
1314.26	768.464
1315.77	789.957
1317.29	822.172
1318.81	865.08
1320.33	876.472
1321.85	882.167
1323.37	897.523
1324.88	948.78
1326.4	963.266
1327.92	980.924
1329.44	1001.42
1330.96	1045.86
1332.48	1034.99
1333.99	1032.16
1335.51	1076.79
1337.03	1088.82
1338.55	1094.22
1340.07	1095.88
1341.59	1080.02
1343.1	1086.46
1344.62	1063.23
1346.14	1070.63
1347.66	1097.07
1349.18	1039.17
1350.7	1049.5
1352.21	1049.18
1353.73	993.49
1355.25	989.414
1356.77	971.435
1358.29	968.482
1359.81	939.365
1361.32	917.099
1362.84	872.997
1364.36	860.386
1365.88	823.227
1367.4	803.994
1368.92	782.263
1370.43	754.344
1371.95	720.612
1373.47	714.977
1374.99	670.076
1376.51	624.925
1378.03	618.844
1379.54	608.43
1381.06	561.543
1382.58	547.957
1384.1	519.587
1385.62	500.37
1387.14	479.935
1388.65	475.388
1390.17	435.84
1391.69	428.348
1393.21	380.126
1394.73	406.344
1396.25	352.386
1397.76	348.206
1399.28	306.278
1400.8	306.004
1402.32	286.477
1403.84	289.23
1405.36	272.511
1406.87	244.286
1408.39	252.643
1409.91	238.545
1411.43	211.672
1412.95	193.516
1414.47	199.234
1415.98	165.566
1417.5	172.425
1419.02	151.351
1420.54	127.818
1422.06	135.834
1423.58	136.643
1425.09	111.753
1426.61	116.575
1428.13	116.984
1429.65	111.746
1431.17	82.553
1432.69	91.6338
1434.2	78.0873
1435.72	75.3573
1437.24	80.5569
1438.76	64.092
1440.28	62.0321
1441.8	72.0471
1443.32	54.2294
1444.83	36.2937
1446.35	36.3892
1447.87	31.256
1449.39	15.3909
1450.91	23.2105
1452.43	25.0082
1453.94	13.1226
1455.46	18.3616
1456.98	16.9806
1458.5	10.5962
1460.02	30.8464
1461.54	22.4207
1463.05	34.7386
1464.57	6.52716
1466.09	19.0538
1467.61	10.3503
1469.13	-0.0684485
1470.65	2.22534
1472.16	9.65128
1473.68	9.1695
1475.2	-3.56973
1476.72	7.27686
1478.24	13.1325
1479.76	18.7585
1481.27	6.32103
1482.79	8.8766
1484.31	41.6313
1485.83	-5.79691
1487.35	18.1171
1488.87	20.8336
1490.38	45.7985
1491.9	23.7813
1493.42	33.0324
1494.94	63.1768
1496.46	56.278
1497.98	46.8739
1499.49	49.0495
1501.01	70.0694
1502.53	71.8802
1504.05	61.8705
1505.57	80.5742
1507.09	87.4115
1508.6	91.3088
1510.12	111.426
1511.64	109.19
1513.16	110.492
1514.68	114.582
1516.2	124.241
1517.71	134.281
1519.23	130.798
1520.75	145.945
1522.27	168.171
1523.79	172.276
1525.31	173.795
1526.82	184.39
1528.34	185.858
1529.86	206.78
1531.38	208.474
1532.9	206.147
1534.42	244.901
1535.93	265.598
1537.45	271.699
1538.97	270.416
1540.49	298.846
1542.01	292.807
1543.53	325.887
1545.04	360.745
1546.56	340.781
1548.08	392.624
1549.6	391.29
1551.12	401.093
1552.64	443.634
1554.15	452.523
1555.67	468.021
1557.19	512.13
1558.71	517.789
1560.23	518.148
1561.75	569.326
1563.26	578.238
1564.78	624.324
1566.3	658.773
1567.82	693.97
1569.34	724.593
1570.86	762.991
1572.37	791.613
1573.89	825.736
1575.41	872.498
1576.93	890.565
1578.45	928.605
1579.97	977.513
1581.48	1021.72
1583	1035.81
1584.52	1116.47
1586.04	1181.16
1587.56	1198.24
1589.08	1238.28
1590.59	1290.82
1592.11	1290.19
1593.63	1289.95
1595.15	1314.36
1596.67	1273.75
1598.19	1283.09
1599.7	1270.31
1601.22	1231.05
1602.74	1204.47
1604.26	1187.81
1605.78	1181.41
1607.3	1148.08
1608.81	1090.76
1610.33	1075.02
1611.85	1053.54
1613.37	1013.23
1614.89	982.607
1616.41	954.585
1617.92	892.189
1619.44	860.83
1620.96	821.366
1622.48	775.505
1624	730.76
1625.52	702.939
1627.04	630.224
1628.55	605.116
1630.07	571.368
1631.59	544.828
1633.11	489.574
1634.63	486.104
1636.15	441.83
1637.66	415.518
1639.18	374.001
1640.7	356.421
1642.22	325.001
1643.74	300.025
1645.26	273.615
1646.77	273.005
1648.29	241.572
1649.81	218.29
1651.33	204.985
1652.85	179.267
1654.37	167.444
1655.88	150.765
1657.4	145.163
1658.92	128.139
1660.44	111.523
1661.96	111.167
1663.48	92.0749
1664.99	80.3316
1666.51	78.0593
1668.03	70.2245
1669.55	65.7078
1671.07	56.0914
1672.59	54.1461
1674.1	37.0129
1675.62	35.5723
1677.14	33.4312
1678.66	21.1139
1680.18	26.8394
1681.7	18.6416
1683.21	27.7613
1684.73	21.9602
1686.25	19.6199
1687.77	9.60484
1689.29	5.48387
1690.81	14.5172
1692.32	8.32534
1693.84	3.04486
1695.36	7.00135
1696.88	2.0578
1698.4	7.89765
1699.92	0.717344
1701.43	4.04917
1702.95	4.22388
1704.47	0.764328
1705.99	2.01138
1707.51	-2.46211
1709.03	-1.76164
1710.54	-2.92164
1712.06	-3.84942
1713.58	-9.85572
1715.1	-3.96421
1716.62	4.16875
1718.14	0.344747
1719.65	1.36567
1721.17	5.05993
1722.69	1.47979
1724.21	1.68957
1725.73	3.98913
1727.25	8.60103
1728.76	5.463
1730.28	3.89352
1731.8	-1.09822
1733.32	5.36398
1734.84	4.68354
1736.36	3.26536
1737.87	5.71897
1739.39	9.81645
1740.91	2.45412
1742.43	-0.480402
1743.95	-6.75573
1745.47	-3.27893
1746.98	2.88361
1748.5	-4.32138
1750.02	-7.5919
1751.54	-1.07024
1753.06	1.10519
1754.58	0.71872
1756.09	-1.88296
1757.61	-4.45774
1759.13	-0.52895
1760.65	-9.42598
1762.17	0.617451
1763.69	-6.31217
1765.2	1.94146
1766.72	-7.59119
1768.24	-3.07898
1769.76	-3.36465
1771.28	-8.87502
1772.8	-0.017138
1774.31	-2.63525
1775.83	-5.16517
1777.35	-5.92602
1778.87	-7.73221
1780.39	-4.51689
1781.91	-12.6356
1783.42	-5.48997
1784.94	0.73594
1786.46	-7.31447
1787.98	-0.347115
1789.5	-4.72207
1791.02	-6.33965
1792.53	-14.0144
1794.05	6.58835
1795.57	-2.4292
1797.09	-1.99431
1798.61	-1.46982
1800.13	0.230695
1801.64	-5.52501
1803.16	-3.26527
1804.68	-4.50998
1806.2	-4.40985
1807.72	-1.0003
1809.24	-5.87082
1810.76	-3.19356
1812.27	-8.22753
1813.79	-15.0056
1815.31	2.66764
1816.83	-12.5679
1818.35	-10.8758
1819.86	-4.26551
1821.38	5.4594
1822.9	-12.1924
1824.42	-12.5403
1825.94	-7.39399
1827.46	-10.1891
1828.98	-7.199
1830.49	-4.32694
1832.01	-3.14043
1833.53	-5.56326
1835.05	-5.4611
1836.57	-2.64137
1838.09	-3.44028
1839.6	-8.26723
1841.12	-2.89767
1842.64	-4.02028
1844.16	-1.03387
1845.68	0.372074
1847.2	-9.72856
1848.71	-4.32965
1850.23	-5.39185
1851.75	-4.39601
1853.27	-7.75512
1854.79	-8.10077
1856.31	-8.40582
1857.82	-2.92898
1859.34	-0.672242
1860.86	-5.07017
1862.38	-10.5151
1863.9	-6.73283
1865.42	-3.93865
1866.93	0.837984
1868.45	-5.98113
1869.97	-13.3432
1871.49	-5.45317
1873.01	-9.37069
1874.53	0.547529
1876.04	-7.69996
1877.56	0.0684943
1879.08	-8.52003
1880.6	0.104757
1882.12	-0.455047
1883.64	-6.7301
1885.15	-7.19163
1886.67	-9.20021
1888.19	-5.48577
1889.71	-8.22168
1891.23	-6.02179
1892.75	-3.45217
1894.26	-3.03076
1895.78	-10.515
1897.3	7.24413
1898.82	-4.07235
1900.34	-0.756415
1901.86	-5.29567
1903.37	-2.48525
1904.89	-3.78633
1906.41	0.361939
1907.93	5.33683
1909.45	-3.7672
1910.97	-0.0899921
1912.48	4.71346
1914	-0.551697
1915.52	-1.99004
1917.04	-6.48792
1918.56	-3.40321
1920.08	-1.6284
1921.59	7.29089
1923.11	3.84184
1924.63	-4.99585
1926.15	2.33653
1927.67	0.908691
1929.19	6.1469
1930.7	4.6501
1932.22	3.19048
1933.74	2.48012
1935.26	18.8969
1936.78	0.893585
1938.3	-0.0813141
1939.81	4.37187
1941.33	3.00742
1942.85	3.42087
1944.37	0.161942
1945.89	-4.80472
1947.41	-0.646835
1948.92	0.860596
1950.44	4.52438
1951.96	-2.16222
1953.48	-0.425156
1955	-11.5092
1956.52	-11.3103
1958.03	-5.39995
1959.55	-1.77094
1961.07	-5.77087
1962.59	-11.5423
1964.11	-19.2269
1965.63	-14.5602
1967.14	-0.818054
1968.66	-6.7972
1970.18	-4.1429
1971.7	2.02116
1973.22	-1.32329
1974.74	-5.81084
1976.25	-1.37863
1977.77	-6.92209
1979.29	0.182358
1980.81	-3.32831
1982.33	0.415421
1983.85	1.90414
1985.36	-5.06667
1986.88	-1.13121
1988.4	-7.48863
1989.92	2.20851
1991.44	-0.882309
1992.96	-4.41754
1994.47	-2.69862
1995.99	-10.67
1997.51	-6.60336
1999.03	-7.30925
2000.55	-4.24654
2002.07	-2.42783
2003.58	-5.11473
2005.1	-6.68752
2006.62	-4.7027
2008.14	-2.44089
2009.66	-1.83655
2011.18	0.0308228
2012.7	-4.58206
2014.21	-4.69402
2015.73	-8.28885
2017.25	-7.59158
2018.77	-4.18074
2020.29	-8.10872
2021.81	-10.4362
2023.32	-10.6878
2024.84	-8.21713
2026.36	-6.91441
2027.88	-1.62375
2029.4	-0.571609
2030.92	-1.77341
2032.43	-13.7597
2033.95	-3.25488
2035.47	-6.3447
2036.99	-9.20941
2038.51	-2.4024
2040.03	-4.47073
2041.54	-4.0741
2043.06	-11.1488
2044.58	-3.78865
2046.1	-5.15488
2047.62	-13.1344
2049.14	-5.09473
2050.65	-1.05191
2052.17	-15.7262
2053.69	-4.43488
2055.21	-9.6205
2056.73	-14.177
2058.25	-2.82791
2059.76	-3.70084
2061.28	-4.6114
2062.8	-15.1166
2064.32	-14.1887
2065.84	-5.00275
2067.36	-8.49055
2068.87	-11.7209
2070.39	-11.7435
2071.91	-6.6794
2073.43	-11.0877
2074.95	-7.88863
2076.47	-3.26204
2077.98	-7.1837
2079.5	-8.33298
2081.02	-2.83655
2082.54	-2.02495
2084.06	-8.21529
2085.58	-4.01323
2087.09	0.977768
2088.61	-10.2119
2090.13	-7.82327
2091.65	-14.1191
2093.17	-9.47388
2094.69	-5.65259
2096.2	-8.46722
2097.72	-5.9639
2099.24	-2.58751
2100	0.466797