File: Example Data/Raman/CNT - TIM/Raytheon/Cu foil/08-10-10/Cu foil_bottom.txt
300	18.4507
301.518	29.5413
303.037	22.0448
304.555	25.202
306.073	18.0912
307.592	27.325
309.11	20.1707
310.628	38.7581
312.147	22.4697
313.665	30.4763
315.183	26.7927
316.702	13.9989
318.22	22.1687
319.738	12.3554
321.257	21.1802
322.775	26.1532
324.294	16.5153
325.812	24.0256
327.33	25.8173
328.849	24.8209
330.367	25.1913
331.885	18.2697
333.404	19.8968
334.922	22.1011
336.44	30.9984
337.959	10.8966
339.477	23.642
340.995	19.3993
342.514	19.3163
344.032	20.5063
345.55	17.0332
347.069	30.0424
348.587	26.6398
350.105	23.4996
351.624	29.2354
353.142	16.2901
354.66	22.5833
356.179	22.7232
357.697	8.10035
359.216	16.881
360.734	18.0869
362.252	21.0563
363.771	24.3597
365.289	12.2622
366.807	29.2773
368.326	24.2194
369.844	19.7234
371.362	15.9944
372.881	14.9614
374.399	14.7384
375.917	13.8507
377.436	21.0733
378.954	17.4255
380.472	16.4993
381.991	13.5059
383.509	16.101
385.027	19.7635
386.546	17.6441
388.064	15.9544
389.582	16.8045
391.101	8.39529
392.619	12.1664
394.137	14.1806
395.656	18.2286
397.174	23.9634
398.693	14.8823
400.211	19.1522
401.729	20.8338
403.248	20.2908
404.766	21.2917
406.284	12.7015
407.803	15.6754
409.321	28.3653
410.839	20.0065
412.358	23.2092
413.876	27.5545
415.394	14.4681
416.913	15.1527
418.431	22.8835
419.949	22.1861
421.468	20.0645
422.986	25.1618
424.504	20.724
426.023	15.0134
427.541	12.7362
429.059	21.5496
430.578	9.74995
432.096	27.8244
433.615	20.417
435.133	18.88
436.651	20.2808
438.17	20.3444
439.688	18.7654
441.206	23.3751
442.725	18.7209
444.243	16.5611
445.761	17.6122
447.28	24.1028
448.798	17.1788
450.316	9.35575
451.835	23.2509
453.353	21.115
454.871	18.7158
456.39	17.6815
457.908	18.0961
459.426	22.5414
460.945	10.988
462.463	18.2386
463.981	21.7257
465.5	8.55267
467.018	4.77767
468.536	16.8221
470.055	27.6401
471.573	15.6129
473.092	11.3589
474.61	11.3335
476.128	20.3872
477.647	21.8754
479.165	10.1759
480.683	15.9205
482.202	8.66566
483.72	16.4035
485.238	21.0207
486.757	7.86429
488.275	5.81074
489.793	14.0397
491.312	9.02678
492.83	8.89261
494.348	10.0139
495.867	6.11468
497.385	2.76587
498.903	6.98297
500.422	9.65649
501.94	1.67424
503.458	1.05626
504.977	1.61626
506.495	1.86087
508.013	3.62469
509.532	6.56015
511.05	-1.43921
512.569	8.89569
514.087	9.37205
515.605	-2.60577
517.124	-1.3571
518.642	-7.34543
520.16	7.81752
521.679	4.63819
523.197	-6.34849
524.715	-0.180289
526.234	0.122978
527.752	-4.54621
529.27	5.35436
530.789	3.2033
532.307	8.07316
533.825	1.1533
535.344	7.68832
536.862	1.91246
538.38	-2.15059
539.899	5.81052
541.417	-2.03532
542.935	-1.42197
544.454	4.2919
545.972	7.33106
547.491	5.53134
549.009	12.5609
550.527	8.55861
552.046	10.5717
553.564	5.59494
555.082	1.02015
556.601	12.558
558.119	3.17733
559.637	-4.85669
561.156	7.0639
562.674	0.654777
564.192	8.37524
565.711	8.93058
567.229	10.5307
568.747	12.5523
570.266	5.07969
571.784	12.3452
573.302	9.11473
574.821	21.3182
576.339	3.15253
577.857	6.03282
579.376	6.01471
580.894	15.5759
582.412	3.0041
583.931	-1.49508
585.449	12.1175
586.968	7.80572
588.486	3.99385
590.004	12.2031
591.523	10.8417
593.041	10.0076
594.559	14.2535
596.078	4.64275
597.596	4.85773
599.114	3.95079
600.633	6.48841
602.151	7.20805
603.669	9.93087
605.188	8.39912
606.706	14.1749
608.224	7.47481
609.743	12.8441
611.261	8.65281
612.779	11.1971
614.298	9.72948
615.816	7.42944
617.334	1.17655
618.853	12.6281
620.371	10.5339
621.89	3.85515
623.408	13.1202
624.926	5.67195
626.445	17.9441
627.963	9.15279
629.481	14.5093
631	17.235
632.518	10.327
634.036	1.75159
635.555	3.72819
637.073	16.3988
638.591	6.44277
640.11	13.7318
641.628	16.571
643.146	13.0336
644.665	8.60177
646.183	17.3069
647.701	20.7343
649.22	12.2655
650.738	9.82826
652.256	17.1451
653.775	20.3956
655.293	7.02296
656.811	21.7237
658.33	8.98327
659.848	12.0759
661.367	4.46783
662.885	11.1075
664.403	13.8053
665.922	19.1072
667.44	27.9088
668.958	10.8866
670.477	20.9836
671.995	17.5327
673.513	13.2194
675.032	15.9975
676.55	19.9192
678.068	22.1389
679.587	16.2555
681.105	19.2231
682.623	15.1915
684.142	17.3476
685.66	25.4014
687.178	15.8151
688.697	14.2301
690.215	15.9936
691.733	9.18534
693.252	15.5565
694.77	15.5205
696.289	29.7987
697.807	15.8424
699.325	24.9635
700.844	15.7508
702.362	17.7643
703.88	12.0566
705.399	15.9769
706.917	14.3822
708.435	14.7544
709.954	12.4626
711.472	18.8385
712.99	15.7336
714.509	19.0159
716.027	16.0213
717.545	13.8875
719.064	9.99935
720.582	24.475
722.1	14.4027
723.619	23.3337
725.137	23.7338
726.655	23.1839
728.174	26.0901
729.692	26.4479
731.21	19.8485
732.729	37.8725
734.247	19.0943
735.766	27.3984
737.284	27.1383
738.802	25.0638
740.321	28.507
741.839	28.8408
743.357	25.1473
744.876	38.0086
746.394	33.1672
747.912	32.2986
749.431	22.3089
750.949	46.9268
752.467	27.1501
753.986	32.1529
755.504	36.904
757.022	32.2652
758.541	35.0201
760.059	41.5131
761.577	37.9245
763.096	34.0886
764.614	35.1085
766.132	30.9919
767.651	36.2836
769.169	40.1346
770.6875	35.1525
772.206	40.0988
773.724	33.5647
775.242	44.228
776.761	33.2249
778.279	36.9608
779.798	36.8807
781.316	31.7075
782.834	38.4351
784.353	38.6656
785.871	33.2362
787.389	35.8894
788.908	29.7351
790.426	40.5843
791.944	34.3062
793.463	48.7634
794.981	45.2941
796.499	53.929
798.018	44.2578
799.536	38.0956
801.054	46.5999
802.573	39.3143
804.091	46.2537
805.609	44.8797
807.128	49.8005
808.646	49.7948
810.164	51.1779
811.683	59.2165
813.201	46.1844
814.72	50.9902
816.238	45.2558
817.756	44.0429
819.275	46.1843
820.793	50.4097
822.311	44.9569
823.83	57.9985
825.348	50.6249
826.866	64.2776
828.385	61.6788
829.903	62.6582
831.421	52.3037
832.94	52.0198
834.458	52.7829
835.976	43.9246
837.495	56.2178
839.013	70.4409
840.531	42.5171
842.05	52.4815
843.568	55.3649
845.086	53.3259
846.605	58.4009
848.123	55.0677
849.641	57.7755
851.16	57.0879
852.678	45.621
854.197	58.6678
855.715	50.3074
857.233	50.8771
858.752	60.5882
860.27	42.3193
861.788	50.0434
863.307	46.0561
864.825	41.1035
866.343	48.9116
867.862	53.6227
869.38	51.7032
870.898	47.3725
872.417	30.645
873.935	43.532
875.453	46.8314
876.972	35.9643
878.49	44.1583
880.008	34.3224
881.527	33.8355
883.045	31.4904
884.563	25.9752
886.082	31.5778
887.6	38.6218
889.119	24.4575
890.637	28.6008
892.155	25.6713
893.674	22.3908
895.192	23.3789
896.71	23.7165
898.229	23.1216
899.747	20.6591
901.265	16.5514
902.784	18.3408
904.302	33.1604
905.82	16.5974
907.339	21.5939
908.857	16.9661
910.375	11.2736
911.894	11.9501
913.412	17.8806
914.93	1.03088
916.449	16.4596
917.967	10.852
919.485	10.8509
921.004	8.80987
922.522	16.3607
924.04	4.31048
925.559	10.9096
927.077	14.738
928.596	7.14453
930.114	8.56087
931.632	7.03359
933.151	5.44239
934.669	16.1041
936.187	3.6474
937.706	2.71365
939.224	16.1331
940.742	10.9376
942.261	3.0083
943.779	3.93754
945.297	0.80187
946.816	7.28872
948.334	-2.17405
949.852	6.89989
951.371	8.54713
952.889	5.50814
954.407	3.86862
955.926	-0.191417
957.444	3.01828
958.962	0.71839
960.481	3.23257
961.999	0.887947
963.518	-5.85843
965.036	-10.0554
966.554	-14.031
968.073	-8.37959
969.591	-13.2785
971.109	-9.62848
972.628	-5.072
974.146	-2.58761
975.664	-3.69324
977.183	-15.6786
978.701	-8.23564
980.219	-9.51193
981.738	-13.6808
983.256	-4.0828
984.774	-12.9363
986.293	-5.96534
987.811	-8.12219
989.329	5.77115
990.848	-17.0549
992.366	-3.22104
993.884	-3.35047
995.403	1.70187
996.921	-3.75727
998.439	-0.866408
999.958	-4.15442
1001.48	-13.6434
1002.99	0.536801
1004.51	-8.66978
1006.03	1.82336
1007.55	-5.47779
1009.07	2.64774
1010.59	-6.90543
1012.1	-5.6632
1013.62	-6.28011
1015.14	0.423381
1016.66	-5.36834
1018.18	2.96398
1019.7	-8.08776
1021.21	-6.71458
1022.73	-2.34462
1024.25	3.38051
1025.77	-9.84391
1027.29	-6.23859
1028.81	-11.5738
1030.32	-5.03907
1031.84	-13.7277
1033.36	2.77591
1034.88	6.82756
1036.4	-1.36391
1037.92	-6.33899
1039.43	-12.4014
1040.95	-5.59096
1042.47	-11.3755
1043.99	0.340275
1045.51	-17.1125
1047.03	-2.67868
1048.54	-2.7571
1050.06	-3.18367
1051.58	3.24967
1053.1	-8.26775
1054.62	-6.88818
1056.14	-7.39985
1057.66	-7.38304
1059.17	-5.46196
1060.69	-2.3102
1062.21	-13.7798
1063.73	-11.5186
1065.25	-2.13805
1066.77	-4.18625
1068.28	-4.03662
1069.8	-16.5227
1071.32	-10.7063
1072.84	-10.0503
1074.36	-11.8213
1075.88	-7.35076
1077.39	-4.33522
1078.91	-1.75314
1080.43	-1.83613
1081.95	-9.41444
1083.47	-2.70084
1084.99	-4.77648
1086.5	-4.68009
1088.02	1.05895
1089.54	-2.54568
1091.06	-2.97949
1092.58	-8.86034
1094.1	-4.4343
1095.61	-4.31835
1097.13	1.84275
1098.65	2.05572
1100.17	9.29294
1101.69	-0.838877
1103.21	-2.11401
1104.72	1.28651
1106.24	5.9061
1107.76	4.89292
1109.28	5.13918
1110.8	6.7599
1112.32	-1.33711
1113.83	9.15802
1115.35	-1.32393
1116.87	14.0733
1118.39	1.47984
1119.91	6.16226
1121.43	-1.6538
1122.94	11.8466
1124.46	5.77018
1125.98	5.06249
1127.5	18.2265
1129.02	7.39601
1130.54	9.43335
1132.05	13.9553
1133.57	17.305
1135.09	17.8388
1136.61	20.848
1138.13	18.7576
1139.65	20.2484
1141.16	15.0283
1142.68	24.4007
1144.2	31.275
1145.72	35.6626
1147.24	39.9074
1148.76	38.5764
1150.27	35.4858
1151.79	37.3051
1153.31	45.6812
1154.83	47.3148
1156.35	53.5979
1157.87	57.6211
1159.38	57.7424
1160.9	50.9403
1162.42	50.4294
1163.94	56.3172
1165.46	68.4495
1166.98	66.7771
1168.49	59.8103
1170.01	57.1413
1171.53	62.1052
1173.05	60.5098
1174.57	71.0348
1176.09	62.8081
1177.6	51.3136
1179.12	73.204
1180.64	83.6565
1182.16	66.151
1183.68	72.0195
1185.2	67.7904
1186.71	72.4333
1188.23	75.5318
1189.75	67.7138
1191.27	74.2809
1192.79	86.5571
1194.31	73.4632
1195.82	99.5691
1197.34	80.2302
1198.86	88.9829
1200.38	82.9808
1201.9	82.9376
1203.42	88.7444
1204.93	99.1085
1206.45	97.2216
1207.97	95.2613
1209.49	104.912
1211.01	114.983
1212.53	95.241
1214.04	106.293
1215.56	121.11
1217.08	108.556
1218.6	124.397
1220.12	131.539
1221.64	127.63
1223.15	134.189
1224.67	136.123
1226.19	144.717
1227.71	135.702
1229.23	145.892
1230.75	150.399
1232.26	156.759
1233.78	167.339
1235.3	168.813
1236.82	168.889
1238.34	169.343
1239.86	183.578
1241.375	177.992
1242.89	169.053
1244.41	186.487
1245.93	184.274
1247.45	206.059
1248.97	217.069
1250.48	222.622
1252	227.919
1253.52	212.463
1255.04	231.211
1256.56	252.942
1258.08	247.183
1259.6	262.94
1261.11	264.982
1262.63	285.607
1264.15	289.006
1265.67	303.786
1267.19	314.787
1268.71	316.964
1270.22	327.059
1271.74	306.256
1273.26	367.363
1274.78	361.795
1276.3	364.407
1277.82	391.257
1279.33	387.068
1280.85	380.912
1282.37	399.028
1283.89	424.968
1285.41	446.718
1286.93	433.12
1288.44	455.396
1289.96	492.871
1291.48	515.506
1293	524.103
1294.52	550.916
1296.04	573.581
1297.55	588.874
1299.07	620.662
1300.59	622.55
1302.11	644.009
1303.63	664.855
1305.15	677.689
1306.66	706.181
1308.18	745.9
1309.7	754.961
1311.22	815.39
1312.74	824.767
1314.26	854.652
1315.77	895.777
1317.29	903.017
1318.81	931.125
1320.33	984.678
1321.85	1019.29
1323.37	1071.86
1324.88	1069.56
1326.4	1125.53
1327.92	1133.3
1329.44	1177.63
1330.96	1232.97
1332.48	1251.95
1333.99	1292.15
1335.51	1362.35
1337.03	1342.77
1338.55	1412.36
1340.07	1409.83
1341.59	1443.21
1343.1	1482.69
1344.62	1476.08
1346.14	1508.36
1347.66	1490.63
1349.18	1512.59
1350.7	1502.9
1352.21	1469.28
1353.73	1461.25
1355.25	1445.68
1356.77	1434.81
1358.29	1410.38
1359.81	1394.44
1361.32	1350.76
1362.84	1295.45
1364.36	1265.48
1365.88	1222.92
1367.4	1186.03
1368.92	1141.8
1370.43	1090.64
1371.95	1039.8
1373.47	1023.77
1374.99	952.373
1376.51	956.643
1378.03	886.396
1379.54	823.919
1381.06	821.919
1382.58	760.651
1384.1	734.589
1385.62	706.711
1387.14	666.129
1388.65	649.995
1390.17	604.161
1391.69	572.588
1393.21	542.654
1394.73	550.345
1396.25	517.878
1397.76	467.144
1399.28	461.924
1400.8	416.002
1402.32	371.59
1403.84	386.852
1405.36	350.127
1406.87	342.343
1408.39	317.079
1409.91	292.692
1411.43	286.038
1412.95	269.268
1414.47	270.849
1415.98	244.034
1417.5	242.472
1419.02	223.035
1420.54	189.512
1422.06	184.962
1423.58	177.384
1425.09	171.152
1426.61	125.516
1428.13	130.955
1429.65	129.784
1431.17	120.699
1432.69	116.084
1434.2	113.644
1435.72	101.601
1437.24	104.674
1438.76	81.0247
1440.28	101.417
1441.8	83.3797
1443.32	48.132
1444.83	67.9145
1446.35	63.2945
1447.87	66.4402
1449.39	38.4871
1450.91	43.8372
1452.43	47.4547
1453.94	40.1233
1455.46	21.2823
1456.98	41.8164
1458.5	38.4181
1460.02	32.2999
1461.54	20.3945
1463.05	-7.00106
1464.57	28.6649
1466.09	3.64179
1467.61	20.2977
1469.13	0.401333
1470.65	-1.26915
1472.16	6.27819
1473.68	-9.27236
1475.2	2.13106
1476.72	9.57691
1478.24	4.75885
1479.76	-18.3389
1481.27	3.54769
1482.79	12.1768
1484.31	14.0861
1485.83	2.95108
1487.35	9.7258
1488.87	6.3216
1490.38	6.10003
1491.9	14.6113
1493.42	-1.1171
1494.94	19.504
1496.46	-0.914244
1497.98	12.2576
1499.49	42.5139
1501.01	22.6422
1502.53	20.0965
1504.05	30.6357
1505.57	22.4083
1507.09	46.2723
1508.6	43.7534
1510.12	56.7214
1511.64	52.5087
1513.16	63.4656
1514.68	64.7981
1516.2	66.937
1517.71	91.6745
1519.23	99.8407
1520.75	102.144
1522.27	107.715
1523.79	106.508
1525.31	147.212
1526.82	124.75
1528.34	133.425
1529.86	143.101
1531.38	144.493
1532.9	162.455
1534.42	168.726
1535.93	197.717
1537.45	193.851
1538.97	201.178
1540.49	225.471
1542.01	235.825
1543.53	254.179
1545.04	276.85
1546.56	285.235
1548.08	291.069
1549.6	325.789
1551.12	331.07
1552.64	384.066
1554.15	402.947
1555.67	431.871
1557.19	500.872
1558.71	500.319
1560.23	508.418
1561.75	545.4
1563.26	577.01
1564.78	603.054
1566.3	660.931
1567.82	688.344
1569.34	746.369
1570.86	783.976
1572.37	823.879
1573.89	879.694
1575.41	907.16
1576.93	962.607
1578.45	985.284
1579.97	1059.24
1581.48	1087.45
1583	1162.08
1584.52	1190.94
1586.04	1172.57
1587.56	1223.98
1589.08	1254.19
1590.59	1308.98
1592.11	1328.36
1593.63	1326.75
1595.15	1338.01
1596.67	1322.78
1598.19	1318.39
1599.7	1312.69
1601.22	1362.68
1602.74	1325.02
1604.26	1333.54
1605.78	1308.32
1607.3	1303.02
1608.81	1305.05
1610.33	1283.83
1611.85	1249.53
1613.37	1235.65
1614.89	1168.62
1616.41	1186.9
1617.92	1138.66
1619.44	1106.12
1620.96	1053.22
1622.48	1028.8
1624	956.887
1625.52	915.392
1627.04	865.925
1628.55	808.237
1630.07	734.763
1631.59	671.983
1633.11	632.517
1634.63	577.637
1636.15	540.066
1637.66	491.47
1639.18	467.109
1640.7	433.398
1642.22	385.571
1643.74	356.293
1645.26	321.82
1646.77	315.1
1648.29	290.216
1649.81	254.495
1651.33	223.954
1652.85	202.355
1654.37	187.143
1655.88	166.759
1657.4	150.833
1658.92	134.285
1660.44	124.85
1661.96	108.103
1663.48	94.9322
1664.99	78.9362
1666.51	73.726
1668.03	68.6609
1669.55	63.4518
1671.07	52.0597
1672.59	44.982
1674.1	38.8936
1675.62	32.5123
1677.14	21.6478
1678.66	6.03235
1680.18	13.4613
1681.7	1.25345
1683.21	11.3959
1684.73	1.75552
1686.25	2.38966
1687.77	-4.68943
1689.29	-5.18463
1690.81	-2.04599
1692.32	-5.64043
1693.84	-6.60573
1695.36	-13.1848
1696.88	-10.3979
1698.4	-4.46373
1699.92	-13.8191
1701.43	-15.3369
1702.95	-12.8048
1704.47	-11.3379
1705.99	-12.7771
1707.51	-16.2867
1709.03	-11.8941
1710.54	-9.62841
1712.06	-13.7756
1713.58	-8.16148
1715.1	-7.11968
1716.62	-3.5097
1718.14	-4.0962
1719.65	-6.9301
1721.17	-7.24551
1722.69	-3.30631
1724.21	-10.3245
1725.73	-7.8112
1727.25	-7.69511
1728.76	-4.19657
1730.28	-5.25756
1731.8	-6.41135
1733.32	-9.21982
1734.84	-3.06808
1736.36	-8.62276
1737.87	-7.39944
1739.39	-6.49189
1740.91	-5.47973
1742.43	-3.83293
1743.95	-7.34926
1745.47	-2.50882
1746.98	-2.66439
1748.5	-5.63183
1750.02	2.15394
1751.54	-0.0415949
1753.06	2.68868
1754.58	1.49144
1756.09	3.17797
1757.61	0.255738
1759.13	-1.63452
1760.65	-1.12315
1762.17	2.81943
1763.69	3.56845
1765.2	-0.943751
1766.72	-1.24661
1768.24	-0.120212
1769.76	-2.04701
1771.28	3.4787
1772.8	-0.676107
1774.31	-1.98725
1775.83	-0.905623
1777.35	-3.58222
1778.87	-3.18592
1780.39	-0.228813
1781.91	2.35115
1783.42	-2.71164
1784.94	3.36365
1786.46	-3.76448
1787.98	-0.0310921
1789.5	1.83087
1791.02	-3.06295
1792.53	-0.616146
1794.05	1.04775
1795.57	-4.10067
1797.09	-5.0799
1798.61	-2.17595
1800.13	-7.11773
1801.64	1.37489
1803.16	1.23815
1804.68	0.921387
1806.2	-2.54723
1807.72	-1.12338
1809.24	-4.4063
1810.76	-6.88612
1812.27	-1.29547
1813.79	9.9351
1815.31	-8.23255
1816.83	2.33525
1818.35	2.59187
1819.86	4.96508
1821.38	2.51771
1822.9	-0.116866
1824.42	4.26955
1825.94	3.25267
1827.46	-1.94099
1828.98	4.46671
1830.49	0.191458
1832.01	11.9297
1833.53	-4.8863
1835.05	4.04717
1836.57	3.69092
1838.09	3.9401
1839.6	5.23658
1841.12	4.83032
1842.64	4.82692
1844.16	5.3022
1845.68	10.9986
1847.2	1.21691
1848.71	-0.332811
1850.23	2.30282
1851.75	9.78902
1853.27	4.92871
1854.79	8.59294
1856.31	-1.69946
1857.82	7.61235
1859.34	2.59005
1860.86	2.19391
1862.38	5.64407
1863.9	7.90779
1865.42	0.622283
1866.93	9.78779
1868.45	4.92937
1869.97	0.025375
1871.49	-0.273873
1873.01	7.28759
1874.53	1.64147
1876.04	4.94579
1877.56	3.07358
1879.08	-2.07344
1880.6	9.62883
1882.12	-1.36753
1883.64	3.17864
1885.15	2.15894
1886.67	1.09599
1888.19	4.15064
1889.71	2.62374
1891.23	6.61012
1892.75	5.20451
1894.26	-3.40378
1895.78	2.1003
1897.3	-2.09106
1898.82	6.26193
1900.34	5.54993
1901.86	6.62211
1903.37	-5.1604
1904.89	-1.60217
1906.41	-3.41913
1907.93	4.324
1909.45	0.484569
1910.97	4.40138
1912.48	-1.60011
1914	14.7825
1915.52	-0.347546
1917.04	-3.03431
1918.56	4.37762
1920.08	-0.614925
1921.59	-7.25367
1923.11	-4.43186
1924.63	-5.94715
1926.15	-1.61114
1927.67	-1.19449
1929.19	0.202185
1930.7	2.60312
1932.22	3.27123
1933.74	-0.415079
1935.26	-4.99848
1936.78	-2.35887
1938.3	-5.45857
1939.81	0.623442
1941.33	1.52495
1942.85	-5.79756
1944.37	-6.71483
1945.89	-0.862504
1947.41	-2.0418
1948.92	-0.990601
1950.44	-7.33429
1951.96	-1.50404
1953.48	-2.29784
1955	0.439438
1956.52	-6.29338
1958.03	-3.0449
1959.55	-2.39942
1961.07	-2.44675
1962.59	-4.38719
1964.11	-6.42865
1965.63	-0.129035
1967.14	-2.69213
1968.66	-3.39457
1970.18	-3.67019
1971.7	-9.58822
1973.22	0.784668
1974.74	-7.48894
1976.25	-4.73984
1977.77	-1.16579
1979.29	1.10538
1980.81	-3.41235
1982.33	-5.74868
1983.85	3.90112
1985.36	-1.41915
1986.88	2.67539
1988.4	-5.74808
1989.92	-2.33782
1991.44	1.10678
1992.96	-5.46945
1994.47	-1.21129
1995.99	-2.62105
1997.51	-1.49801
1999.03	-2.33558
2000.55	-13.6736
2002.07	-4.74736
2003.58	-6.01573
2005.1	-0.0858439
2006.62	0.0309946
2008.14	-0.0716824
2009.66	-5.64553
2011.18	-6.24828
2012.7	-0.880215
2014.21	-5.00441
2015.73	-10.3483
2017.25	-14.9175
2018.77	-5.53545
2020.29	-3.01893
2021.81	-9.5913
2023.32	-2.26084
2024.84	-1.1348
2026.36	-10.4311
2027.88	3.58339
2029.4	-4.30798
2030.92	-6.24335
2032.43	-3.21439
2033.95	-6.95693
2035.47	-7.19958
2036.99	-6.28758
2038.51	-2.58874
2040.03	-3.77684
2041.54	-1.68941
2043.06	-2.99103
2044.58	-3.65006
2046.1	-3.62747
2047.62	-4.58847
2049.14	-9.89351
2050.65	-5.35672
2052.17	-1.16495
2053.69	-2.14485
2055.21	-0.513604
2056.73	-2.81612
2058.25	-4.58231
2059.76	-3.31306
2061.28	-8.18086
2062.8	-9.35279
2064.32	-5.26759
2065.84	-8.99637
2067.36	-7.25097
2068.87	-5.35919
2070.39	-7.49406
2071.91	-3.45498
2073.43	0.215669
2074.95	-10.2393
2076.47	-5.45073
2077.98	-10.3527
2079.5	-9.88909
2081.02	-10.8489
2082.54	-3.12523
2084.06	-10.6065
2085.58	-2.81386
2087.09	-8.85048
2088.61	-2.93251
2090.13	-11.1254
2091.65	-5.40068
2093.17	-16.2394
2094.69	-6.60714
2096.2	-14.4944
2097.72	-6.68681
2099.24	-6.11484
2100	-2.49195