File: Example Data/Raman/Kara/05-21-10/CNT m2 3-6-2008/CNT m2_4.txt
50	2.39311
52.1517	5.02914
54.3034	4.20784
56.4551	1.96176
58.6069	1.78641
60.7586	1.63868
62.9103	2.70334
65.062	6.68282
67.2137	14.2377
69.3654	36.197
71.5171	59.9288
73.6689	116.822
75.8206	128.302
77.9723	155.035
80.124	110.919
82.2757	104.362
84.4274	141.242
86.5791	136.852
88.7309	103.759
90.8826	108.745
93.0343	139.121
95.186	126.504
97.3377	130.147
99.4894	105.539
101.641	122.291
103.793	99.303
105.945	109.058
108.096	135.289
110.248	139.962
112.4	108.166
114.551	94.9123
116.703	106.133
118.855	122.435
121.007	106.977
123.158	104.156
125.31	123.068
127.462	101.376
129.613	96.9416
131.765	104.289
133.917	97.1213
136.069	91.9392
138.22	92.8688
140.372	99.795
142.524	103.157
144.675	95.5723
146.827	94.3872
148.979	98.5926
151.131	91.6791
153.282	92.9415
155.434	97.9546
157.586	101.13
159.737	96.2001
161.889	85.3062
164.041	90.0922
166.193	87.7138
168.344	81.374
170.496	84.1277
172.648	89.6749
174.799	87.8293
176.951	86.8901
179.103	86.2598
181.255	88.31
183.406	87.9978
185.558	91.1601
187.71	86.2695
189.861	91.6099
192.013	88.1796
194.165	87.8528
196.317	91.0133
198.468	87.985
200.62	90.7817
202.772	87.41
204.923	90.5698
207.075	92.6081
209.227	89.897
211.379	83.1031
213.53	89.0364
215.682	86.4666
217.834	93.8816
219.985	91.9808
222.137	89.735
224.289	86.1235
226.441	82.8239
228.592	83.8176
230.744	88.747
232.896	86.2322
235.047	88.8697
237.199	89.1368
239.351	83.7549
241.503	85.8009
243.654	88.0697
245.806	89.7139
247.958	89.5484
250.109	85.6646
252.261	93.4816
254.413	89.7114
256.565	92.0317
258.716	86.2162
260.868	87.7757
263.02	93.3964
265.171	96.97
267.323	92.3873
269.475	86.7081
271.627	92.6508
273.778	85.9704
275.93	88.09
278.082	83.6646
280.233	90.2923
282.385	89.2032
284.537	88.2677
286.689	91.4203
288.84	84.8253
290.992	81.5537
293.144	79.6552
295.295	84.5843
297.447	91.5002
299.599	85.8057
301.751	79.8189
303.902	88.7919
306.054	80.3594
308.206	83.0774
310.357	84.4218
312.509	86.6915
314.661	83.1619
316.813	78.2412
318.964	80.426
321.116	78.2042
323.268	81.2647
325.419	78.7045
327.571	80.9657
329.723	73.8787
331.875	78.9164
334.026	78.1838
336.178	76.7416
338.33	81.2748
340.481	76.7863
342.633	79.3249
344.785	72.256
346.937	78.6481
349.088	74.7596
351.24	71.0166
353.392	72.5443
355.543	72.5835
357.695	66.6744
359.847	68.1804
361.999	73.1497
364.15	67.5279
366.302	72.8037
368.454	63.3566
370.605	70.1734
372.757	67.3301
374.909	66.6335
377.061	67.6558
379.212	62.6829
381.364	62.8719
383.516	65.6669
385.667	68.6253
387.819	64.6557
389.971	66.2725
392.123	65.8987
394.274	59.6632
396.426	61.4088
398.578	67.921
400.729	63.4804
402.881	60.2
405.033	61.8634
407.185	60.7082
409.336	65.6947
411.488	61.0817
413.64	61.6662
415.791	63.4582
417.943	58.9513
420.095	54.4682
422.247	62.6138
424.398	56.7274
426.55	55.8172
428.702	60.0174
430.853	62.4624
433.005	58.9805
435.157	52.4113
437.309	62.1346
439.46	63.2555
441.612	55.7226
443.764	58.8
445.915	61.5008
448.067	55.6913
450.219	58.6847
452.371	61.7494
454.522	52.0161
456.674	57.6337
458.826	50.7775
460.977	61.3302
463.129	56.847
465.281	54.7517
467.433	56.5846
469.584	54.1156
471.736	58.1941
473.888	55.1638
476.039	57.7371
478.191	54.591
480.343	53.4887
482.495	56.9925
484.646	61.9814
486.798	55.8351
488.95	53.2763
491.101	56.1851
493.253	52.9703
495.405	51.3918
497.557	51.9979
499.708	55.3536
501.86	50.5504
504.012	53.9309
506.163	48.8788
508.315	49.9233
510.467	55.1949
512.619	49.5734
514.77	45.4728
516.922	48.4948
519.074	51.6695
521.225	52.0909
523.377	54.0177
525.529	50.3287
527.681	52.9423
529.832	53.5265
531.984	47.5965
534.136	45.5266
536.287	47.1767
538.439	48.1327
540.591	52.902
542.743	50.105
544.894	46.5946
547.046	51.0384
549.198	53.2535
551.349	52.5379
553.501	54.0853
555.653	50.2029
557.805	47.002
559.956	56.5831
562.108	49.4446
564.26	53.7657
566.411	57.1122
568.563	54.0852
570.715	51.6
572.867	46.0776
575.018	49.9524
577.17	54.2804
579.322	50.4235
581.473	50.348
583.625	51.3067
585.777	54.7899
587.929	49.6568
590.08	51.1475
592.232	49.039
594.384	54.544
596.535	47.7825
598.687	55.3788
600.839	54.796
602.991	54.5127
605.142	49.6882
607.294	50.2675
609.446	50.9686
611.597	58.2732
613.749	55.4819
615.901	51.6592
618.052	46.9483
620.204	54.3507
622.356	50.1358
624.508	55.5178
626.659	52.3901
628.811	55.4156
630.963	54.9867
633.115	52.7195
635.266	58.6425
637.418	60.6082
639.57	57.0393
641.721	55.21
643.873	56.5976
646.025	64.4052
648.177	59.1937
650.328	55.0039
652.48	58.966
654.632	60.3398
656.783	54.6993
658.935	60.2617
661.087	60.8463
663.239	58.4378
665.39	60.7417
667.542	59.923
669.694	60.9013
671.845	66.3838
673.997	65.3057
676.149	62.2314
678.301	62.1389
680.452	65.6288
682.604	62.7039
684.756	61.4724
686.907	63.6874
689.059	63.8455
691.211	62.3727
693.362	66.3611
695.514	66.4027
697.666	63.4609
699.818	59.2961
701.969	65.3074
704.121	65.2339
706.273	65.2377
708.424	66.3466
710.576	60.2679
712.728	65.55
714.88	67.3846
717.031	70.8695
719.183	66.4518
721.335	68.1249
723.487	70.2038
725.638	68.7552
727.79	69.6923
729.942	71.059
732.093	70.6931
734.245	79.1219
736.397	72.2952
738.549	76.3404
740.7	75.2168
742.852	74.5318
745.004	70.6897
747.155	73.064
749.307	77.6996
751.459	73.1495
753.61	76.6651
755.762	75.5793
757.914	77.2354
760.066	81.2573
762.217	82.3362
764.369	81.7624
766.521	83.0786
768.672	79.6
770.824	85.2473
772.976	82.156
775.128	80.3348
777.279	87.0633
779.431	80.7144
781.583	87.1865
783.734	86.2
785.886	82.9521
788.038	87.074
790.19	84.5811
792.341	92.4054
794.493	89.7003
796.645	87.6176
798.797	90.4279
800.948	90.0621
803.1	92.5305
805.252	87.2022
807.403	89.1844
809.555	87.9072
811.707	90.3742
813.859	96.9201
816.01	91.7664
818.162	92.2247
820.314	94.0932
822.465	94.0631
824.617	93.0611
826.769	92.7757
828.92	94.3037
831.072	93.5361
833.224	92.4121
835.376	91.366
837.527	95.8711
839.679	96.4644
841.831	99.9495
843.982	98.1559
846.134	95.24
848.286	98.9551
850.438	95.1524
852.589	93.8479
854.741	101.622
856.893	92.7435
859.044	94.0591
861.196	92.672
863.348	94.1067
865.5	92.2484
867.651	90.0338
869.803	94.0959
871.955	87.5009
874.107	85.571
876.258	82.1496
878.41	84.0426
880.562	81.0816
882.713	81.1429
884.865	77.5269
887.017	77.5941
889.169	77.4235
891.32	71.2814
893.472	69.0417
895.624	65.6823
897.775	68.5721
899.927	66.3861
902.079	60.3582
904.23	63.9944
906.382	59.5822
908.534	61.3582
910.686	58.4
912.837	56.7342
914.989	56.7872
917.141	56.1177
919.292	53.708
921.444	53.8584
923.596	52.6104
925.748	48.5546
927.899	49.833
930.051	50.4041
932.203	49.1223
934.354	49.7144
936.506	49.1118
938.658	46.4543
940.81	48.8164
942.961	44.9336
945.113	44.7731
947.265	48.1124
949.417	48.2093
951.568	45.7496
953.72	49.1358
955.872	46.8491
958.023	44.3059
960.175	47.4131
962.327	43.4719
964.478	43.9288
966.63	45.9255
968.782	41.6387
970.934	43.4367
973.085	40.7344
975.237	43.5385
977.389	44.4301
979.54	45.6387
981.692	41.3495
983.844	44.7234
985.996	46.2053
988.147	44.8243
990.299	43.2381
992.451	43.7227
994.602	42.7932
996.754	43.2155
998.906	44.8236
1001.06	47.5297
1003.21	44.7958
1005.36	45.626
1007.51	44.5098
1009.66	46.1824
1011.82	44.753
1013.97	43.7725
1016.12	51.6207
1018.27	44.9366
1020.42	50.0669
1022.57	48.1499
1024.73	50.0433
1026.88	51.6735
1029.03	47.5722
1031.18	50.1625
1033.33	50.4
1035.49	48.1481
1037.64	47.7779
1039.79	52.2869
1041.94	48.2762
1044.09	51.4345
1046.24	51.0374
1048.4	51.1152
1050.55	52.4403
1052.7	50.2288
1054.85	50.4313
1057	43.7775
1059.15	48.1753
1061.31	48.4566
1063.46	44.8055
1065.61	49.6555
1067.76	43.9629
1069.91	44.7912
1072.06	45.2471
1074.22	47.6801
1076.37	46.1081
1078.52	40.6277
1080.67	43.3834
1082.82	45.3651
1084.97	38.1851
1087.13	39.8956
1089.28	37.647
1091.43	42.0745
1093.58	40.8333
1095.73	44.8062
1097.88	41.4288
1100.04	37.5416
1102.19	36.6618
1104.34	42.911
1106.49	38.5187
1108.64	40.4694
1110.8	45.2446
1112.95	38.7106
1115.1	41.0164
1117.25	40.8117
1119.4	39.6
1121.55	35.6785
1123.71	38.6239
1125.86	37.5884
1128.01	36.5301
1130.16	37.5723
1132.31	37.0327
1134.46	35.0935
1136.62	36.5615
1138.77	33.8336
1140.92	34.9028
1143.07	36.1196
1145.22	31.8511
1147.37	35.0464
1149.53	32.8204
1151.68	36.4175
1153.83	37
1155.98	35.2486
1158.13	35.7948
1160.28	36.2981
1162.44	35.3449
1164.59	36.6331
1166.74	32.2583
1168.89	35.9919
1171.04	30.4527
1173.19	29.3762
1175.35	34.2244
1177.5	34.4388
1179.65	33.8116
1181.8	32.8479
1183.95	33.5274
1186.1	33.6937
1188.26	30.336
1190.41	33.2742
1192.56	29.2566
1194.71	31.2299
1196.86	34.6631
1199.02	36.0911
1201.17	33.9839
1203.32	37.26
1205.47	34.2495
1207.62	31.9593
1209.77	39.7565
1211.93	31.4365
1214.08	33.5394
1216.23	34.58
1218.38	37.4761
1220.53	32.3674
1222.68	38.8709
1224.84	40.2918
1226.99	37.1492
1229.14	35.9971
1231.29	32.4631
1233.44	36.3794
1235.59	38.1921
1237.75	36.4995
1239.9	37.2819
1242.05	40.8862
1244.2	39.6859
1246.35	38.1588
1248.5	36.6967
1250.66	40.1206
1252.81	40.8637
1254.96	39.8313
1257.11	44.0761
1259.26	36.8605
1261.42	37.7589
1263.57	44.5843
1265.72	40.0666
1267.87	41.4141
1270.02	43.7981
1272.17	43.7564
1274.33	49.5452
1276.48	44.9755
1278.63	43.8899
1280.78	48.4978
1282.93	52.2133
1285.08	49.8274
1287.24	50.8159
1289.39	53.5522
1291.54	48.6876
1293.69	56.4242
1295.84	62.2556
1297.99	66.8201
1300.15	67.8918
1302.3	66.2652
1304.45	69.5997
1306.6	79.273
1308.75	75.7003
1310.9	85.3335
1313.06	87.7359
1315.21	91.6945
1317.36	95.2271
1319.51	107.112
1321.66	102.481
1323.81	116.709
1325.97	114.023
1328.12	126.129
1330.27	135.588
1332.42	143.429
1334.57	145.797
1336.72	163.774
1338.88	151.808
1341.03	161.728
1343.18	158.521
1345.33	160.597
1347.48	159.003
1349.64	158.816
1351.79	152.634
1353.94	141.419
1356.09	144.635
1358.24	142.032
1360.39	130.082
1362.55	121.926
1364.7	118.2
1366.85	111.188
1369	100.149
1371.15	101.123
1373.3	93.7809
1375.46	88.4218
1377.61	90.1822
1379.76	80.3125
1381.91	79.7178
1384.06	74.0806
1386.21	67.272
1388.37	62.7095
1390.52	61.3907
1392.67	64.2085
1394.82	60.9869
1396.97	56.422
1399.12	54.669
1401.28	50.361
1403.43	55.3072
1405.58	54.0712
1407.73	49.9207
1409.88	49.7025
1412.04	49.0208
1414.19	47.999
1416.34	47.7275
1418.49	44.1329
1420.64	45.1472
1422.79	52.1239
1424.95	47.8
1427.1	44.6416
1429.25	45.0392
1431.4	43.8524
1433.55	45.3876
1435.7	45.2305
1437.86	42.8363
1440.01	43.0912
1442.16	43.9402
1444.31	48.3389
1446.46	44.653
1448.61	44.084
1450.77	41.9099
1452.92	48.8685
1455.07	46.0984
1457.22	45.1447
1459.37	49.7025
1461.52	45.9265
1463.68	49.8526
1465.83	39.4744
1467.98	47.8764
1470.13	44.9476
1472.28	43.8731
1474.43	43.919
1476.59	45.8693
1478.74	49.1129
1480.89	47.545
1483.04	46.7905
1485.19	46.4857
1487.34	43.1902
1489.5	39.8296
1491.65	46.6478
1493.8	43.955
1495.95	47.0002
1498.1	48.0006
1500.26	48.7689
1502.41	48.1163
1504.56	46.6072
1506.71	42.2147
1508.86	46.7046
1511.01	50.607
1513.17	50.3777
1515.32	57.7242
1517.47	56.7584
1519.62	53.2276
1521.77	57.5872
1523.92	57.8389
1526.08	58.5119
1528.23	59.394
1530.38	60.5517
1532.53	62.5179
1534.68	68.9776
1536.83	71.5248
1538.99	74.0205
1541.14	81.6041
1543.29	84.2111
1545.44	84.9448
1547.59	91.3495
1549.74	100.066
1551.9	106.25
1554.05	120.77
1556.2	128.921
1558.35	138.934
1560.5	148.795
1562.66	152.362
1564.81	172.437
1566.96	176.966
1569.11	195.298
1571.26	196.897
1573.41	204.041
1575.57	206.752
1577.72	204.959
1579.87	200.896
1582.02	201.241
1584.17	193.848
1586.32	180.557
1588.48	180.484
1590.63	165.129
1592.78	161.977
1594.93	149.576
1597.08	149.535
1599.23	140.218
1601.39	133.609
1603.54	125.631
1605.69	127.677
1607.84	115.7
1609.99	115.132
1612.14	119.781
1614.3	113.878
1616.45	107.328
1618.6	103.916
1620.75	93.4541
1622.9	89.1726
1625.05	87.9707
1627.21	79.673
1629.36	73.8521
1631.51	70.2567
1633.66	63.3239
1635.81	57.7967
1637.96	58.2746
1640.12	55.6804
1642.27	47.1706
1644.42	42.2
1646.57	40.8052
1648.72	35.4046
1650.88	35.8414
1653.03	34.4992
1655.18	37.5698
1657.33	33.4628
1659.48	34.1793
1661.63	34.9338
1663.79	30.4722
1665.94	31.7486
1668.09	30.1391
1670.24	30.294
1672.39	29.564
1674.54	28.9075
1676.7	28.1863
1678.85	27.318
1681	28.5691
1683.15	24.9649
1685.3	25.092
1687.45	25.1351
1689.61	23.6798
1691.76	23.9163
1693.91	23.9313
1696.06	24.8244
1698.21	23.0565
1700.36	20.6231
1702.52	22.735
1704.67	23.2398
1706.82	22.3779
1708.97	25.6712
1711.12	24.3534
1713.28	20.2
1715.43	23.7435
1717.58	21.6865
1719.73	21.4685
1721.88	21.3777
1724.03	20.173
1726.19	21.8482
1728.34	20.2135
1730.49	19.2676
1732.64	18.976
1734.79	24.456
1736.94	24
1739.1	22.3697
1741.25	23.2769
1743.4	23.9506
1745.55	22.9055
1747.7	24.1866
1749.85	23.1903
1752.01	19.2236
1754.16	23.8697
1756.31	21.5595
1758.46	17.9101
1760.61	22.5461
1762.76	20.287
1764.92	23.1562
1767.07	21.4564
1769.22	21.5161
1771.37	24.8558
1773.52	20.3397
1775.67	20.0554
1777.83	19.4189
1779.98	21.0985
1782.13	22.8016
1784.28	22.2815
1786.43	20.3002
1788.58	20.9593
1790.74	20.1558
1792.89	22.2572
1795.04	21.8776
1797.19	21.5194
1799.34	21.0939
1801.5	22.37
1803.65	20.6242
1805.8	20.4507
1807.95	25.0068
1810.1	19.0135
1812.25	21.4821
1814.41	17.4918
1816.56	18.7473
1818.71	20.2307
1820.86	19.4167
1823.01	20.3917
1825.16	21.1103
1827.32	22.2469
1829.47	18.1569
1831.62	19.6801
1833.77	21.9482
1835.92	22.381
1838.07	21.1142
1840.23	20.0877
1842.38	20.7307
1844.53	19.5517
1846.68	21.6979
1848.83	22.8473
1850.98	20.6008
1853.14	22.4946
1855.29	23.2316
1857.44	24.6663
1859.59	17.1091
1861.74	22.8859
1863.9	23.731
1866.05	19.4653
1868.2	19.8185
1870.35	24.9514
1872.5	20.7449
1874.65	21.5155
1876.81	23.8137
1878.96	23.3947
1881.11	19.4012
1883.26	19.9406
1885.41	20.7485
1887.56	17.9481
1889.72	22.699
1891.87	20.4468
1894.02	20.72
1896.17	18.8418
1898.32	21.9985
1900.47	21.412
1902.63	23.6761
1904.78	20.3267
1906.93	21.5387
1909.08	21.5493
1911.23	23.7754
1913.38	21.7415
1915.54	24.3112
1917.69	23.0487
1919.84	21.0106
1921.99	25.8924
1924.14	19.6284
1926.29	19.7353
1928.45	21.8823
1930.6	20.2834
1932.75	20.821
1934.9	21.5418
1937.05	20.8964
1939.2	25.1592
1941.36	18.3616
1943.51	22.0634
1945.66	20.7418
1947.81	21.2887
1949.96	22.9246
1952.12	24.6557
1954.27	25.0863
1956.42	20.4628
1958.57	18.8403
1960.72	26.0745
1962.87	20.8882
1965.03	18.4082
1967.18	18.9347
1969.33	20.8723
1971.48	22.2009
1973.63	20.843
1975.78	21.6355
1977.94	21.723
1980.09	18.7186
1982.24	18.867
1984.39	21.9051
1986.54	22.2125
1988.69	23.8025
1990.85	23.1934
1993	20.4
1995.15	21.2331
1997.3	19.0928
1999.45	19.9795
2001.6	20.813
2003.76	15.6836
2005.91	20.404
2008.06	22.149
2010.21	19.6191
2012.36	25.044
2014.51	20.1377
2016.67	17.5951
2018.82	20.3869
2020.97	21.7622
2023.12	22.4274
2025.27	21.6
2027.43	18.3485
2029.58	25.6259
2031.73	20.1163
2033.88	21.449
2036.03	20.685
2038.18	21.4048
2040.34	25.8578
2042.49	20.3653
2044.64	21.7006
2046.79	23.1505
2048.94	23.7774
2051.09	19.9019
2053.25	23.0867
2055.4	19.5937
2057.55	19.8463
2059.7	20.8731
2061.85	22.7642
2064	20.0448
2066.16	21.5006
2068.31	22.2774
2070.46	23.6079
2072.61	18.666
2074.76	18.3405
2076.91	20.0238
2079.07	18.5418
2081.22	16.7452
2083.37	21.77
2085.52	23.2989
2087.67	21.0118
2089.82	18.0774
2091.98	22.2354
2094.13	22.2666
2096.28	18.1243
2098.43	23.8475
2100.58	20.7823
2102.74	21.6348
2104.89	22.3441
2107.04	19.4861
2109.19	24.8868
2111.34	22.3171
2113.49	21.4924
2115.65	24.3131
2117.8	19.5858
2119.95	24.2893
2122.1	20.4047
2124.25	19.8704
2126.4	20.9108
2128.56	19.3722
2130.71	19.6546
2132.86	18.8606
2135.01	18.8948
2137.16	21.8343
2139.31	21.997
2141.47	20.0315
2143.62	21.7472
2145.77	22.3967
2147.92	22.6204
2150.07	23.0916
2152.22	21.8828
2154.38	20.2487
2156.53	22.2757
2158.68	22.0271
2160.83	22.9843
2162.98	20.4538
2165.14	23.9412
2167.29	24.2502
2169.44	22.6029
2171.59	24.8255
2173.74	24.6928
2175.89	21.3711
2178.05	25.934
2180.2	24.305
2182.35	26.1494
2184.5	22.7821
2186.65	22.4575
2188.8	22.3177
2190.96	21.7368
2193.11	22.9495
2195.26	22.7752
2197.41	21.9194
2199.56	21.8101
2201.71	22.8917
2203.87	22.4717
2206.02	21.5439
2208.17	23.3023
2210.32	24.0675
2212.47	20.6029
2214.62	21.5223
2216.78	21.5744
2218.93	21.0511
2221.08	20.3889
2223.23	20.0303
2225.38	19.7143
2227.53	21.1543
2229.69	23.0671
2231.84	18.2343
2233.99	19.0707
2236.14	16.1233
2238.29	18.8579
2240.44	19.9713
2242.6	22.2623
2244.75	18.8739
2246.9	20.999
2249.05	18.9714
2251.2	20.7808
2253.36	21.6416
2255.51	19.7918
2257.66	20.6023
2259.81	18.5566
2261.96	19.1757
2264.11	20.0527
2266.27	21.5607
2268.42	19.129
2270.57	21.9213
2272.72	17.3045
2274.87	20.359
2277.02	15.7099
2279.18	21.6691
2281.33	17.3795
2283.48	18.796
2285.63	20.946
2287.78	18.8448
2289.93	21.2625
2292.09	19.5654
2294.24	21.9507
2296.39	21.675
2298.54	22.3521
2300.69	23.254
2302.84	21.1917
2305	21.2691
2307.15	25.1657
2309.3	18.0437
2311.45	21.0792
2313.6	24.1053
2315.75	22.6165
2317.91	18.3963
2320.06	20.7146
2322.21	22.0409
2324.36	25.9651
2326.51	24.668
2328.67	29.2872
2330.82	41.833
2332.97	31.5517
2335.12	19.0565
2337.27	20.2713
2339.42	24.1774
2341.58	20.7432
2343.73	20.6251
2345.88	20.8394
2348.03	21.2612
2350.18	23.7861
2352.33	21.085
2354.49	20.5812
2356.64	20.2885
2358.79	20.7005
2360.94	23.8774
2363.09	18.3917
2365.24	21.0948
2367.4	24.3748
2369.55	21.9454
2371.7	23.1447
2373.85	25.0562
2376	30.5611
2378.15	18.2988
2380.31	17.3965
2382.46	24.1295
2384.61	25.2372
2386.76	23.6404
2388.91	25.3065
2391.06	25.7704
2393.22	24.4453
2395.37	23.1175
2397.52	24.5429
2399.67	24.6779
2401.82	27.3916
2403.98	24.6978
2406.13	24.2841
2408.28	27.2159
2410.43	26.3663
2412.58	29.2898
2414.73	29.751
2416.89	27.4502
2419.04	32.9223
2421.19	30.8646
2423.34	29.686
2425.49	29.9935
2427.64	28.1289
2429.8	26.876
2431.95	31.7317
2434.1	35.014
2436.25	33.0827
2438.4	34.9443
2440.55	33.172
2442.71	33.4188
2444.86	34.937
2447.01	33.1165
2449.16	28.6899
2451.31	35.326
2453.46	33.2592
2455.62	36.7708
2457.77	31.4339
2459.92	31.7864
2462.07	26.4968
2464.22	29.453
2466.375	29.2396
2468.53	34.1659
2470.68	34.7769
2472.83	28.4
2474.98	30.3126
2477.13	30.9789
2479.29	31.4922
2481.44	28.2019
2483.59	31.2867
2485.74	25.9983
2487.89	30.5126
2490.04	28.7796
2492.2	28.5655
2494.35	31.817
2496.5	24.927
2498.65	27.6421
2500.8	29.4056
2502.95	33.0252
2505.11	30.2556
2507.26	32.5628
2509.41	27.2662
2511.56	28.314
2513.71	29.9284
2515.86	31.8734
2518.02	31.9381
2520.17	29.893
2522.32	31.0194
2524.47	29.7637
2526.62	30.7823
2528.77	34.4407
2530.93	36.2297
2533.08	33.1528
2535.23	28.8556
2537.38	31.9247
2539.53	30.0763
2541.68	28.0389
2543.84	34.2891
2545.99	33.1981
2548.14	29.4836
2550.29	33.0607
2552.44	30.9702
2554.6	29.0347
2556.75	34.3723
2558.9	36.6504
2561.05	34.548
2563.2	32.6109
2565.35	36.6071
2567.51	36.7003
2569.66	37.7276
2571.81	35.0682
2573.96	37.6762
2576.11	33.6475
2578.26	36.458
2580.42	37.3949
2582.57	40.0164
2584.72	37.0249
2586.87	40.6241
2589.02	39.1723
2591.17	39.3681
2593.33	37.7345
2595.48	40.2354
2597.63	43.3776
2599.78	44.0139
2601.93	42.3348
2604.08	45.3104
2606.24	46.5302
2608.39	48.1185
2610.54	50.7838
2612.69	51.1141
2614.84	49.0502
2616.99	52.3829
2619.15	52.902
2621.3	57.4526
2623.45	55.3641
2625.6	61.09
2627.75	65.1388
2629.91	68.7852
2632.06	65.1505
2634.21	69.8879
2636.36	73.1094
2638.51	73.1428
2640.66	72.6008
2642.82	76.2206
2644.97	79.7779
2647.12	85.2356
2649.27	89.3081
2651.42	99.9385
2653.57	98.0575
2655.73	97.3677
2657.88	101.755
2660.03	104.989
2662.18	107.266
2664.33	120.856
2666.48	115.21
2668.64	124.11
2670.79	123.343
2672.94	122.645
2675.09	122.81
2677.24	130.571
2679.39	127.404
2681.55	129.097
2683.7	130.087
2685.85	131.339
2688	128.831
2690.15	125.977
2692.3	127.714
2694.46	132.938
2696.61	127.993
2698.76	122.83
2700.91	120.908
2703.06	113.949
2705.22	109.445
2707.37	108.924
2709.52	109.992
2711.67	98.7958
2713.82	101.113
2715.97	92.5507
2718.13	94.4394
2720.28	89.3243
2722.43	86.3521
2724.58	80.7789
2726.73	76.5716
2728.88	72.4118
2731.04	72.3991
2733.19	69.9995
2735.34	68.3363
2737.49	63.0779
2739.64	60.6087
2741.79	65.802
2743.95	57.0493
2746.1	58.0343
2748.25	57.6786
2750.4	53.9198
2752.55	52.3349
2754.7	50.2155
2756.86	46.7584
2759.01	46.7029
2761.16	44.9759
2763.31	40.4396
2765.46	43.5835
2767.61	41.6819
2769.77	42.2722
2771.92	41.9726
2774.07	36.5906
2776.22	40.9662
2778.37	39.5399
2780.53	39.3162
2782.68	38.307
2784.83	38.3653
2786.98	37.2468
2789.13	38.9003
2791.28	37.5046
2793.44	38.9502
2795.59	35.5255
2797.74	35.935
2799.89	34.0836
2802.04	38.1035
2804.19	32.3736
2806.35	30.0523
2808.5	38.5544
2810.65	35.5168
2812.8	37.0756
2814.95	30.0695
2817.1	33.6743
2819.26	31.2769
2821.41	31.4357
2823.56	35.6719
2825.71	36.3303
2827.86	32.6118
2830.01	29.4022
2832.17	31.3609
2834.32	36.772
2836.47	36.6008
2838.62	30.5686
2840.77	30.4124
2842.92	32.1055
2845.08	32.275
2847.23	31.8448
2849.38	33.6974
2851.53	33.3288
2853.68	30.5921
2855.84	31.9986
2857.99	32.1476
2860.14	32.2774
2862.29	34.2516
2864.44	31.0857
2866.59	32.611
2868.75	31.2976
2870.9	31.1349
2873.05	32.5451
2875.2	35.67
2877.35	29.3052
2879.5	31.7638
2881.66	37.3765
2883.81	37.4876
2885.96	37.9445
2888.11	34.9065
2890.26	34.1731
2892.41	36.4749
2894.57	34.7186
2896.72	38.0038
2898.87	34.399
2901.02	36.9081
2903.17	31.4677
2905.32	36.1438
2907.48	38.2
2909.63	38.5562
2911.78	39.7937
2913.93	36.3042
2916.08	36.2537
2918.23	36.541
2920.39	42.1043
2922.54	38.5002
2924.69	38.6567
2926.84	34.8951
2928.99	34.6324
2931.15	42.5049
2933.3	33.9077
2935.45	38.8465
2937.6	39.351
2939.75	37.3619
2941.9	35.6456
2944.06	39.5923
2946.21	33.0605
2948.36	36.9468
2950.51	33.2731
2952.66	38.0637
2954.81	36.6155
2956.97	38.8192
2959.12	37.4957
2961.27	32.7417
2963.42	32.7153
2965.57	29.715
2967.72	31.6829
2969.88	34.3696
2972.03	29.9712
2974.18	31.6148
2976.33	33.3194
2978.48	30.2129
2980.63	27.5145
2982.79	28.9529
2984.94	33.553
2987.09	27.4002
2989.24	27.1569
2991.39	29.6011
2993.54	26.9983
2995.7	30.3918
2997.85	27.8369
3000	25.9264