File: Example Data/Raman/Kara/05-21-10/CNT m2 3-6-2008/CNT m2.txt
1000	123.125
1000.73	124.062
1001.46	118.384
1002.19	114.242
1002.92	113.6
1003.65	119.517
1004.38	120.022
1005.11	113.388
1005.84	112.275
1006.57	118.632
1007.3	119.69
1008.03	116.002
1008.76	120.979
1009.49	112.405
1010.22	112.588
1010.95	118.283
1011.68	115.309
1012.41	112.67
1013.14	112.491
1013.87	115.886
1014.6	120.221
1015.33	119.691
1016.06	114.481
1016.79	113.19
1017.52	117.894
1018.25	124.393
1018.98	128.441
1019.71	120.311
1020.44	115.032
1021.17	121.632
1021.9	119.484
1022.63	115.816
1023.36	121.428
1024.09	125.412
1024.82	120.18
1025.55	119.194
1026.28	124.545
1027.01	132.941
1027.74	134.599
1028.47	121.534
1029.2	124.438
1029.93	127.633
1030.66	127.447
1031.39	126.037
1032.12	127.075
1032.85	128.333
1033.58	127.414
1034.31	125.134
1035.04	121.874
1035.77	123.471
1036.5	136.758
1037.23	129.034
1037.96	132.913
1038.69	129.646
1039.42	133.524
1040.15	135.068
1040.88	138.392
1041.61	131.874
1042.34	128.183
1043.07	133.885
1043.8	131.487
1044.53	128.615
1045.26	124.911
1045.99	127.208
1046.72	127.393
1047.45	131.139
1048.18	125.092
1048.91	129.05
1049.64	134.034
1050.36	130.108
1051.09	126.2
1051.82	130.691
1052.55	134.682
1053.28	129.803
1054.01	126.241
1054.74	126.323
1055.47	125.767
1056.2	125.213
1056.93	122.854
1057.66	120.778
1058.39	122.056
1059.12	125.313
1059.85	126.962
1060.58	123.604
1061.31	122.217
1062.04	123.717
1062.77	119.911
1063.5	114.954
1064.23	119.334
1064.96	121.888
1065.69	118.4
1066.42	118.4
1067.15	117.195
1067.88	120.153
1068.61	120.857
1069.34	120.031
1070.07	118.123
1070.8	121.065
1071.53	123.595
1072.26	121.261
1072.99	119.507
1073.72	116.662
1074.45	120.721
1075.18	119.968
1075.91	116.256
1076.64	117.114
1077.37	119.727
1078.1	125.133
1078.83	117.511
1079.56	117.993
1080.29	120.933
1081.02	119.077
1081.75	117.622
1082.48	117.78
1083.21	116.553
1083.94	118.956
1084.67	120.501
1085.4	120.82
1086.13	114.502
1086.86	109.829
1087.59	116.165
1088.32	117.865
1089.05	116.449
1089.78	119.226
1090.51	118.943
1091.24	117.002
1091.97	115.783
1092.7	112.274
1093.43	112.116
1094.16	121.961
1094.89	122.744
1095.62	115.705
1096.35	119.398
1097.08	119.212
1097.81	114.678
1098.54	120.096
1099.27	112.363
1100	109.664
1100.73	111.43
1101.46	113.033
1102.19	112.775
1102.92	113.049
1103.65	111.9
1104.38	108.048
1105.11	116.138
1105.84	117.1
1106.57	113.957
1107.3	123.831
1108.03	113.721
1108.76	114.159
1109.49	116.593
1110.22	112.755
1110.95	107.363
1111.68	105.75
1112.41	108.166
1113.14	113.521
1113.87	116.604
1114.6	114.873
1115.33	113.751
1116.06	112.269
1116.79	115.833
1117.52	107.296
1118.25	108.975
1118.98	114.527
1119.71	115.171
1120.44	117.732
1121.17	110.411
1121.9	112.547
1122.63	108.068
1123.36	105.107
1124.09	109.219
1124.82	109.115
1125.55	106.818
1126.28	106.884
1127.01	97.2306
1127.74	101.146
1128.47	106.124
1129.2	112.098
1129.93	105.92
1130.66	109.328
1131.39	106.175
1132.12	111.785
1132.85	105.72
1133.58	106.631
1134.31	103.49
1135.04	100.726
1135.77	102.378
1136.5	102.447
1137.23	102.965
1137.96	105.575
1138.69	108.088
1139.42	105.449
1140.15	97.4764
1140.88	109.18
1141.61	106.361
1142.34	103.371
1143.07	101.522
1143.8	103.178
1144.53	103.381
1145.26	106.893
1145.99	106.351
1146.72	106.562
1147.45	102.52
1148.18	99.9952
1148.91	104.678
1149.64	102.244
1150.36	108.842
1151.09	102.879
1151.82	101.968
1152.55	99.456
1153.28	94.9508
1154.01	103.895
1154.74	102.255
1155.47	105.587
1156.2	99.5903
1156.93	100.885
1157.66	103.899
1158.39	104.269
1159.12	105.869
1159.85	104.774
1160.58	101.922
1161.31	103.106
1162.04	101.24
1162.77	99.3339
1163.5	95.9665
1164.23	97.6137
1164.96	104.504
1165.69	100.547
1166.42	90.7832
1167.15	98.4449
1167.88	97.6312
1168.61	96.7072
1169.34	98.2191
1170.07	103.938
1170.8	106.664
1171.53	105.596
1172.26	104.354
1172.99	102.168
1173.72	100.13
1174.45	99.4971
1175.18	96.133
1175.91	99.4906
1176.64	96.512
1177.37	102.53
1178.1	101.209
1178.83	98.0126
1179.56	100.796
1180.29	106.314
1181.02	104.018
1181.75	101.714
1182.48	103.045
1183.21	104
1183.94	103.234
1184.67	103.093
1185.4	99.3948
1186.13	95.1471
1186.86	98.9003
1187.59	101.978
1188.32	102.253
1189.05	109.477
1189.78	101.535
1190.51	99.3448
1191.24	98.397
1191.97	97.263
1192.7	109.905
1193.43	107.704
1194.16	101.962
1194.89	107.197
1195.62	107.56
1196.35	102.967
1197.08	100.915
1197.81	104.961
1198.54	103.919
1199.27	101.504
1200	104.293
1200.73	102.497
1201.46	106.069
1202.19	110.898
1202.92	101.846
1203.65	101
1204.38	101.449
1205.11	110.177
1205.84	103.576
1206.57	105.885
1207.3	105.021
1208.03	101.005
1208.76	108.434
1209.49	111.124
1210.22	111.511
1210.95	107.804
1211.68	105.43
1212.41	105.995
1213.14	109.69
1213.87	110.65
1214.6	106.141
1215.33	107.886
1216.06	105.988
1216.79	104.63
1217.52	107.129
1218.25	105.639
1218.98	107.936
1219.71	100.904
1220.44	117.279
1221.17	113.434
1221.9	115.145
1222.63	109.597
1223.36	107.111
1224.09	106.8
1224.82	111.428
1225.55	116.023
1226.28	109.851
1227.01	109.379
1227.74	112.948
1228.47	111.329
1229.2	114.701
1229.93	116.206
1230.66	112.496
1231.39	111.735
1232.12	110.49
1232.85	113.375
1233.58	116.752
1234.31	123.862
1235.04	109.964
1235.77	111.459
1236.5	119.183
1237.23	118.695
1237.96	114.141
1238.69	117.754
1239.42	112.301
1240.15	109.98
1240.88	116.208
1241.61	117.431
1242.34	115.503
1243.07	113.916
1243.8	117.149
1244.53	123.298
1245.26	120.21
1245.99	119.18
1246.72	123.585
1247.45	121.025
1248.18	123.509
1248.91	123.021
1249.64	123.099
1250.36	121.506
1251.09	116.737
1251.82	121.8
1252.55	134.765
1253.28	126.979
1254.01	122.807
1254.74	129.589
1255.47	131.29
1256.2	127.265
1256.93	133.134
1257.66	132.576
1258.39	132.776
1259.12	136.002
1259.85	136.432
1260.58	137.037
1261.31	133.062
1262.04	127.185
1262.77	129.7
1263.5	135.063
1264.23	140.613
1264.96	137.84
1265.69	143.923
1266.42	138.208
1267.15	133.524
1267.88	143.677
1268.61	132.632
1269.34	145.599
1270.07	153.574
1270.8	146.533
1271.53	144.8
1272.26	150.886
1272.99	149.207
1273.72	146.277
1274.45	145.104
1275.18	151.532
1275.91	155.752
1276.64	153.199
1277.37	152.489
1278.1	153.916
1278.83	155.476
1279.56	158.473
1280.29	159.423
1281.02	160.347
1281.75	160.468
1282.48	162.213
1283.21	165.829
1283.94	165.274
1284.67	159.393
1285.4	162.198
1286.13	168.341
1286.86	176.025
1287.59	177.132
1288.32	174.923
1289.05	181.639
1289.78	176.595
1290.51	180.955
1291.24	190.934
1291.97	189.038
1292.7	188.491
1293.43	196.996
1294.16	200.533
1294.89	193.564
1295.62	196.938
1296.35	203.072
1297.08	202.803
1297.81	209.848
1298.54	216.726
1299.27	216.353
1300	212.964
1300.73	219.955
1301.46	232.74
1302.19	229.761
1302.92	233.973
1303.65	233.746
1304.38	243.682
1305.11	247.844
1305.84	260.19
1306.57	255.949
1307.3	271.807
1308.03	277.298
1308.76	280.208
1309.49	279.277
1310.22	285.496
1310.95	286.746
1311.68	289.496
1312.41	296.395
1313.14	305.813
1313.87	319.724
1314.6	328.118
1315.33	339.923
1316.06	345.592
1316.79	353.556
1317.52	362.851
1318.25	367.588
1318.98	374.497
1319.71	376.047
1320.44	385.966
1321.17	401.895
1321.9	431.384
1322.63	422.322
1323.36	428.024
1324.09	441.725
1324.82	444.125
1325.55	449.512
1326.28	454.403
1327.01	458.348
1327.74	488.629
1328.47	496.771
1329.2	494.362
1329.93	514.254
1330.66	512.509
1331.39	505.214
1332.12	528.539
1332.85	542.666
1333.58	552.728
1334.31	540.066
1335.04	553.653
1335.77	553.587
1336.5	546.721
1337.23	555.784
1337.96	561.79
1338.69	564.933
1339.42	555.843
1340.15	559.697
1340.88	572.082
1341.61	564.662
1342.34	553.562
1343.07	542.432
1343.8	547.168
1344.53	561.516
1345.26	555.553
1345.99	539.356
1346.72	541.56
1347.45	544.355
1348.18	530.476
1348.91	519.706
1349.64	510.769
1350.36	515.755
1351.09	508.697
1351.82	497.914
1352.55	475.525
1353.28	468.315
1354.01	463.99
1354.74	480.522
1355.47	457.043
1356.2	453.874
1356.93	433.893
1357.66	420.517
1358.39	411.056
1359.12	404.726
1359.85	390.718
1360.58	378.176
1361.31	382.924
1362.04	370.06
1362.77	368.436
1363.5	358.52
1364.23	354.24
1364.96	352.111
1365.69	343.293
1366.42	340.973
1367.15	339.532
1367.88	323.037
1368.61	307.666
1369.34	298.659
1370.07	291.812
1370.8	295.583
1371.53	286.563
1372.26	282.722
1372.99	284.581
1373.72	274.8
1374.45	270.416
1375.18	259.501
1375.91	261.456
1376.64	243.364
1377.37	237.309
1378.1	243.561
1378.83	244.177
1379.56	223.932
1380.29	232.713
1381.02	231.058
1381.75	221.05
1382.48	229.679
1383.21	208.506
1383.94	208.2
1384.67	213.473
1385.4	214.904
1386.13	215.539
1386.86	211.033
1387.59	201.659
1388.32	191.345
1389.05	197.738
1389.78	198.329
1390.51	196.453
1391.24	189.531
1391.97	181.39
1392.7	180.34
1393.43	180.939
1394.16	181.269
1394.89	181.661
1395.62	173.954
1396.35	172.22
1397.08	168.774
1397.81	167.727
1398.54	171.821
1399.27	172.633
1400	167.447
1400.73	165.497
1401.46	170.867
1402.19	168.124
1402.92	164.085
1403.65	168.966
1404.38	163.657
1405.11	156.035
1405.84	158.303
1406.57	159.633
1407.3	165.08
1408.03	167.161
1408.76	160.266
1409.49	154.173
1410.22	151.793
1410.95	146.75
1411.68	147.391
1412.41	149.741
1413.14	147.402
1413.87	143.487
1414.6	150.9
1415.33	150.793
1416.06	152.135
1416.79	147.41
1417.52	152.925
1418.25	148.485
1418.98	144.569
1419.71	137.039
1420.44	147.719
1421.17	145.876
1421.9	148.782
1422.63	147.006
1423.36	132.274
1424.09	139.346
1424.82	138.839
1425.55	141.422
1426.28	136.98
1427.01	133.326
1427.74	141.767
1428.47	136.64
1429.2	137.882
1429.93	140.59
1430.66	132.42
1431.39	137.252
1432.12	136.486
1432.85	150.095
1433.58	140.373
1434.31	136.8
1435.04	139.391
1435.77	134.95
1436.5	139.242
1437.23	139.515
1437.96	137.091
1438.69	132.057
1439.42	133.234
1440.15	134.329
1440.88	133.934
1441.61	141.376
1442.34	137.316
1443.07	134.062
1443.8	134.179
1444.53	136.601
1445.26	138.4
1445.99	135.463
1446.72	135.709
1447.45	131.402
1448.18	130.018
1448.91	133.581
1449.64	136.22
1450.36	135.593
1451.09	137.625
1451.82	137.551
1452.55	137.378
1453.28	137.684
1454.01	136.592
1454.74	136.197
1455.47	134.364
1456.2	140.891
1456.93	140.587
1457.66	136.553
1458.39	140.011
1459.12	138.4
1459.85	135.224
1460.58	130.999
1461.31	135.825
1462.04	143.323
1462.77	140.738
1463.5	135.104
1464.23	135.629
1464.96	135.396
1465.69	137.391
1466.42	134.347
1467.15	136.8
1467.88	137.758
1468.61	136.429
1469.34	136.886
1470.07	133.145
1470.8	132.874
1471.53	135.216
1472.26	133.983
1472.99	139.611
1473.72	137.875
1474.45	137.033
1475.18	132.958
1475.91	134.646
1476.64	137.537
1477.37	133.958
1478.1	130.807
1478.83	139.117
1479.56	145.124
1480.29	137.41
1481.02	139.479
1481.75	139.455
1482.48	145.598
1483.21	135.652
1483.94	138.901
1484.67	147.18
1485.4	146.542
1486.13	144.318
1486.86	146.325
1487.59	139.125
1488.32	144.888
1489.05	141.441
1489.78	143.786
1490.51	146.127
1491.24	138.909
1491.97	143.799
1492.7	146.932
1493.43	144.858
1494.16	140.469
1494.89	140.9
1495.62	142.912
1496.35	150.139
1497.08	138.898
1497.81	146.081
1498.54	149.266
1499.27	147.55
1500	143.055
1500.73	151.545
1501.46	153.022
1502.19	161.984
1502.92	147.862
1503.65	146.621
1504.38	154.823
1505.11	152.674
1505.84	158.208
1506.57	155.523
1507.3	159.571
1508.03	161.35
1508.76	152.065
1509.49	151.647
1510.22	156.741
1510.95	150.078
1511.68	152.53
1512.41	156.478
1513.14	169.65
1513.87	158.438
1514.6	157.31
1515.33	165.715
1516.06	169.557
1516.79	165.398
1517.52	169.178
1518.25	167.552
1518.98	171.973
1519.71	176.783
1520.44	178.193
1521.17	180.509
1521.9	184.999
1522.63	177.271
1523.36	180.505
1524.09	185.049
1524.82	184.28
1525.55	188.052
1526.28	185.892
1527.01	195.949
1527.74	196.833
1528.47	194.162
1529.2	202.14
1529.93	202.532
1530.66	203.428
1531.39	214.694
1532.12	221.257
1532.85	224.313
1533.58	217.029
1534.31	225.074
1535.04	233.423
1535.77	228.481
1536.5	227.877
1537.23	237.505
1537.96	243.762
1538.69	247.778
1539.42	264.096
1540.15	274.139
1540.88	272.411
1541.61	274.842
1542.34	279.462
1543.07	283.036
1543.8	295.987
1544.53	298.069
1545.26	307.411
1545.99	319.088
1546.72	327.225
1547.45	337.893
1548.18	351.927
1548.91	362.616
1549.64	360.736
1550.36	365.971
1551.09	385.197
1551.82	404.976
1552.55	420.73
1553.28	430.267
1554.01	435.769
1554.74	442.01
1555.47	462.136
1556.2	482.963
1556.93	491.295
1557.66	504.61
1558.39	512.81
1559.12	522.552
1559.85	528.393
1560.58	536.766
1561.31	542.712
1562.04	564.739
1562.77	586.583
1563.5	589.583
1564.23	595.1
1564.96	599.744
1565.69	616.841
1566.42	627.418
1567.15	635.668
1567.88	655.027
1568.61	660.7
1569.34	647.701
1570.07	657.749
1570.8	659.586
1571.53	657.452
1572.26	673.104
1572.99	665.142
1573.72	656.033
1574.45	652.367
1575.18	653.218
1575.91	645.58
1576.64	631.055
1577.37	631.299
1578.1	622.878
1578.83	607.023
1579.56	605.452
1580.29	599.961
1581.02	587.919
1581.75	580.323
1582.48	561.382
1583.21	564.447
1583.94	550.291
1584.67	534.314
1585.4	518.17
1586.13	517.479
1586.86	511.365
1587.59	495.198
1588.32	484.349
1589.05	481.096
1589.78	465.272
1590.51	457.656
1591.24	460.001
1591.97	449.929
1592.7	440.635
1593.43	437.562
1594.16	424.785
1594.89	419.888
1595.62	417.268
1596.35	415.428
1597.08	407.737
1597.81	408.558
1598.54	401.129
1599.27	401.975
1600	395.343
1600.73	394.839
1601.46	383.163
1602.19	383.765
1602.92	381.042
1603.65	376.477
1604.38	376.41
1605.11	375.269
1605.84	375.851
1606.57	369.064
1607.3	361.763
1608.03	354.412
1608.76	349.757
1609.49	344.215
1610.22	339.746
1610.95	333.674
1611.68	327.743
1612.41	322.743
1613.14	316.069
1613.87	314.17
1614.6	300.336
1615.33	292.343
1616.06	281.805
1616.79	282.203
1617.52	280.607
1618.25	272.775
1618.98	264.544
1619.71	257.61
1620.44	247.276
1621.17	240.985
1621.9	243.5
1622.63	233.159
1623.36	223.934
1624.09	214.456
1624.82	213.984
1625.55	214.428
1626.28	201.72
1627.01	197.171
1627.74	196.942
1628.47	190.34
1629.2	186.33
1629.93	176.646
1630.66	177.175
1631.39	169.142
1632.12	167.186
1632.85	166.13
1633.58	161.988
1634.31	160.441
1635.04	157.045
1635.77	146.544
1636.5	140.646
1637.23	141.878
1637.96	143.839
1638.69	139.854
1639.42	136.51
1640.15	134.759
1640.88	127.277
1641.61	129.414
1642.34	130.244
1643.07	122.528
1643.8	126.041
1644.53	122.314
1645.26	118.619
1645.99	118.734
1646.72	116.924
1647.45	116.81
1648.18	111.704
1648.91	111.207
1649.64	110.496
1650.36	112.377
1651.09	111.343
1651.82	112.518
1652.55	103.863
1653.28	104.095
1654.01	103.83
1654.74	103.509
1655.47	98.7885
1656.2	97.1905
1656.93	100.047
1657.66	99.2008
1658.39	101.461
1659.12	97.2285
1659.85	94.6617
1660.58	93.5468
1661.31	100.277
1662.04	94.7204
1662.77	96.4686
1663.5	90.1859
1664.23	85.9141
1664.96	87.5103
1665.69	85.2089
1666.42	85.6936
1667.15	87.8818
1667.88	86.0303
1668.61	88.883
1669.34	90.3632
1670.07	86.448
1670.8	83.3821
1671.53	84.9915
1672.26	81.1728
1672.99	88.964
1673.72	87.2989
1674.45	82.0949
1675.18	83.4115
1675.91	87.1988
1676.64	81.307
1677.37	82.5502
1678.1	86.0295
1678.83	83.7595
1679.56	80.0157
1680.29	85.8154
1681.02	79.7944
1681.75	79.6065
1682.48	80.1624
1683.21	82.7419
1683.94	80.9269
1684.67	80.5637
1685.4	80.0399
1686.13	76.2806
1686.86	78.8913
1687.59	79.7742
1688.32	73.8677
1689.05	72.2516
1689.78	72.7896
1690.51	74.2991
1691.24	73.3905
1691.97	78.3321
1692.7	76.6405
1693.43	72.2319
1694.16	75.2651
1694.89	75.4765
1695.62	73.8631
1696.35	76.522
1697.08	76.0091
1697.81	75.4495
1698.54	72.5624
1699.27	68.7964
1700	70.2156
1700.73	74.1505
1701.46	72.4319
1702.19	71.3397
1702.92	70.947
1703.65	73.1678
1704.38	72.8673
1705.11	74.9317
1705.84	77.6165
1706.57	70.9078
1707.3	75.4362
1708.03	74.6943
1708.76	75.2279
1709.49	71.1653
1710.22	76.388
1710.95	70.3548
1711.68	69.5031
1712.41	74.4102
1713.14	72.0043
1713.87	73.7049
1714.6	74.3527
1715.33	68.9051
1716.06	68.6899
1716.79	71.2818
1717.52	69.1349
1718.25	69.5602
1718.98	70.3528
1719.71	66.3492
1720.44	71.0453
1721.17	69.2399
1721.9	67.2496
1722.63	69.6757
1723.36	71.203
1724.09	70.3166
1724.82	69.5226
1725.55	72.8921
1726.28	71.1312
1727.01	72.5001
1727.74	71.6287
1728.47	68.2889
1729.2	65.637
1729.93	67.7198
1730.66	65.9059
1731.39	71.0379
1732.12	73.4295
1732.85	75.2375
1733.58	67.4518
1734.31	66.5364
1735.04	71.2697
1735.77	68.4024
1736.5	70.2365
1737.23	67.9609
1737.96	71.11
1738.69	73.5219
1739.42	64.1776
1740.15	70.1418
1740.88	63.2541
1741.61	68.7122
1742.34	67.1521
1743.07	72.5966
1743.8	70.4729
1744.53	66.2132
1745.26	64.7845
1745.99	62.3215
1746.72	65.3986
1747.45	67.2178
1748.18	69.9797
1748.91	69.6034
1749.64	66.2412
1750.36	66.8854
1751.09	64.4348
1751.82	65.123
1752.55	68.9656
1753.28	67.7115
1754.01	64.894
1754.74	64.9204
1755.47	62.5574
1756.2	64.4395
1756.93	66.3781
1757.66	68.5017
1758.39	67.0846
1759.12	65.1446
1759.85	66.9489
1760.58	72.3757
1761.31	70.1823
1762.04	66.6746
1762.77	63.1653
1763.5	63.981
1764.23	67.3175
1764.96	61.3913
1765.69	65.007
1766.42	61.2162
1767.15	69.5437
1767.88	67.1594
1768.61	58.2554
1769.34	63.2088
1770.07	69.4246
1770.8	69.8389
1771.53	64.5343
1772.26	66.3463
1772.99	65.5606
1773.72	62.1334
1774.45	63.373
1775.18	65.0024
1775.91	68.3341
1776.64	66.642
1777.37	64.2779
1778.1	66.2157
1778.83	67.4661
1779.56	65.8477
1780.29	68.0143
1781.02	62.9557
1781.75	61.2
1782.48	60.8625
1783.21	66.9482
1783.94	64.6883
1784.67	63.6398
1785.4	66.3582
1786.13	63.192
1786.86	62.8921
1787.59	64.4
1788.32	64.195
1789.05	63.4956
1789.78	67.0804
1790.51	67.163
1791.24	65.7963
1791.97	63.3918
1792.7	62.1574
1793.43	64.3526
1794.16	66.5369
1794.89	64.3404
1795.62	62.9851
1796.35	63.7309
1797.08	66.1181
1797.81	65.5499
1798.54	64.5064
1799.27	65.2743
1800	61.1959
1800.73	66.3069
1801.46	60.8704
1802.19	62.8665
1802.92	60.2639
1803.65	64.5692
1804.38	66.7226
1805.11	65.0059
1805.84	69.2458
1806.57	65.2149
1807.3	65.1713
1808.03	63.2454
1808.76	62.0493
1809.49	61.1644
1810.22	62.6691
1810.95	62.9385
1811.68	65.5428
1812.41	67.2318
1813.14	67.0321
1813.87	65.1505
1814.6	66.5041
1815.33	67.9474
1816.06	63.9374
1816.79	64.0772
1817.52	71.6196
1818.25	69.113
1818.98	63.0511
1819.71	64.0736
1820.44	65.9667
1821.17	64.7664
1821.9	63.4745
1822.63	61.8282
1823.36	61.5761
1824.09	68.2798
1824.82	64.0005
1825.55	65.8766
1826.28	68.0292
1827.01	68.7187
1827.74	64.3893
1828.47	68.0072
1829.2	67.7206
1829.93	68.2674
1830.66	67.9841
1831.39	68.9064
1832.12	64.4394
1832.85	63.9997
1833.58	65.4487
1834.31	56.8662
1835.04	60.7842
1835.77	61.8982
1836.5	68.4457
1837.23	65.1522
1837.96	64.582
1838.69	64.6
1839.42	64.8088
1840.15	67.8794
1840.88	68.9106
1841.61	64.8208
1842.34	67.998
1843.07	66.2942
1843.8	66.2621
1844.53	61.0366
1845.26	64.8507
1845.99	62.0806
1846.72	63.6636
1847.45	66.5582
1848.18	65.6261
1848.91	64.8192
1849.64	62.8782
1850.36	67.588
1851.09	65.5606
1851.82	62.9116
1852.55	67.0502
1853.28	69.7898
1854.01	63.9002
1854.74	69.2009
1855.47	69.9004
1856.2	70.9461
1856.93	62.8993
1857.66	61.4393
1858.39	60.9593
1859.12	59.8206
1859.85	66.981
1860.58	64.5263
1861.31	63.1673
1862.04	64.1001
1862.77	65.7979
1863.5	63.2756
1864.23	63.787
1864.96	71.3643
1865.69	70.7855
1866.42	67.3829
1867.15	69.0264
1867.88	69.0365
1868.61	71.4943
1869.34	70.1483
1870.07	66.2479
1870.8	69.6143
1871.53	67.6257
1872.26	64.4034
1872.99	63.8214
1873.72	65.2145
1874.45	62.764
1875.18	65.1168
1875.91	68.5417
1876.64	69.2681
1877.37	65.0381
1878.1	64.028
1878.83	68.3193
1879.56	66.5343
1880.29	63.983
1881.02	64.6357
1881.75	63.1483
1882.48	61.8331
1883.21	70.0961
1883.94	60.1009
1884.67	68.8589
1885.4	61.1289
1886.13	63.3108
1886.86	61.93
1887.59	66.0726
1888.32	66.2656
1889.05	66.8916
1889.78	66.8366
1890.51	66.2734
1891.24	67.562
1891.97	63.7311
1892.7	63.9995
1893.43	70.7245
1894.16	67.8797
1894.89	64.4382
1895.62	64.2
1896.35	64.7438
1897.08	68.5076
1897.81	67.1817
1898.54	65.0082
1899.27	66.65
1900	67.8973
1900.73	65.2942
1901.46	64.3591
1902.19	65.2978
1902.92	64.9038
1903.65	67.7156
1904.38	67.1602
1905.11	66.1875
1905.84	67.3534
1906.57	59.5843
1907.3	66.2336
1908.03	67.9733
1908.76	63.4379
1909.49	64.7474
1910.22	65.496
1910.95	62.4959
1911.68	66.0723
1912.41	66.6666
1913.14	66.6368
1913.87	64.9025
1914.6	65.496
1915.33	68.861
1916.06	65.6288
1916.79	59.1242
1917.52	62.9849
1918.25	65.9521
1918.98	71.8635
1919.71	58.9658
1920.44	64.8018
1921.17	65.128
1921.9	66.1062
1922.63	61.168
1923.36	59.7651
1924.09	61.5759
1924.82	64.5896
1925.55	65.0947
1926.28	64.1255
1927.01	61.7439
1927.74	64.1927
1928.47	66.1561
1929.2	65.6463
1929.93	62.9372
1930.66	64.1913
1931.39	60.9388
1932.12	56.3658
1932.85	63.2278
1933.58	67.3207
1934.31	64.8341
1935.04	63.2267
1935.77	65.4879
1936.5	62.7811
1937.23	66.252
1937.96	64.5359
1938.69	60.2832
1939.42	64.9005
1940.15	67.898
1940.88	64.7506
1941.61	70.3194
1942.34	64.7743
1943.07	62.005
1943.8	62.4156
1944.53	62.6582
1945.26	61.8896
1945.99	58.8136
1946.72	61.1209
1947.45	61.0153
1948.18	61.6
1948.91	62.2624
1949.64	60.0697
1950.36	60.8806
1951.09	66.6978
1951.82	64.0679
1952.55	66.6022
1953.28	67.1928
1954.01	63.4067
1954.74	63.641
1955.47	62.798
1956.2	57.6266
1956.93	60.0966
1957.66	61.5799
1958.39	61.9303
1959.12	61.9123
1959.85	60.8986
1960.58	63.9685
1961.31	61.9041
1962.04	66.1705
1962.77	60.9586
1963.5	57.1667
1964.23	61.3971
1964.96	61.2701
1965.69	61.2087
1966.42	59.0183
1967.15	65.2562
1967.88	65.2712
1968.61	65.7042
1969.34	63.1851
1970.07	63.9818
1970.8	64.2691
1971.53	61.7924
1972.26	66.6652
1972.99	71.1723
1973.72	64.7229
1974.45	63.7175
1975.18	67.1132
1975.91	62.8352
1976.64	63.6499
1977.37	64.8898
1978.1	63.0818
1978.83	63.6396
1979.56	65.4554
1980.29	66.6202
1981.02	67.6954
1981.75	65.9962
1982.48	65.7384
1983.21	69.4862
1983.94	60.2528
1984.67	67.2703
1985.4	67.2073
1986.13	62.8643
1986.86	66.451
1987.59	65.4922
1988.32	70.09
1989.05	66.8319
1989.78	67.0622
1990.51	63.7477
1991.24	60.5936
1991.97	62.5701
1992.7	67.0098
1993.43	64.4357
1994.16	63.946
1994.89	63.4889
1995.62	66.2638
1996.35	66.7655
1997.08	62.0015
1997.81	66.2353
1998.54	67.618
1999.27	70.3042
2000	66.5774