File: Example Data/Raman/Kara/05-21-10/CNT m2 3-6-2008/CNT m2_2.txt
50	13.6935
52.1517	13.7307
54.3034	11.4134
56.4551	11.8276
58.6069	13.7668
60.7586	16.5055
62.9103	22.5069
65.062	20.3906
67.2137	44.3966
69.3654	102.179
71.5171	152.349
73.6689	276.428
75.8206	292.155
77.9723	360.881
80.124	267.23
82.2757	251.868
84.4274	348.247
86.5791	341.993
88.7309	252.729
90.8826	267.409
93.0343	330.412
95.186	305.257
97.3377	302.169
99.4894	260.145
101.641	291.753
103.793	253.619
105.945	260.451
108.096	325.163
110.248	318.835
112.4	260.028
114.551	264.386
116.703	263.183
118.855	274.306
121.007	239.99
123.158	240.919
125.31	274.673
127.462	243.548
129.613	232.189
131.765	240.662
133.917	238.79
136.069	226.566
138.22	216.45
140.372	235.983
142.524	238.285
144.675	211.63
146.827	222.651
148.979	220.353
151.131	214.416
153.282	223.033
155.434	221.723
157.586	246.407
159.737	210.429
161.889	203.296
164.041	214.212
166.193	209.899
168.344	204.135
170.496	195.682
172.648	220.834
174.799	206.655
176.951	221.106
179.103	205.908
181.255	197.429
183.406	200.871
185.558	206.576
187.71	212.713
189.861	209.274
192.013	205.306
194.165	195.421
196.317	214.803
198.468	206.422
200.62	208.863
202.772	197.043
204.923	217.313
207.075	205.978
209.227	214.929
211.379	205.449
213.53	217.202
215.682	210.077
217.834	216.306
219.985	214.95
222.137	213.515
224.289	200.529
226.441	223.88
228.592	203.134
230.744	213.154
232.896	202.443
235.047	207.093
237.199	208.09
239.351	205.523
241.503	212.338
243.654	218.578
245.806	209.949
247.958	208.016
250.109	207.514
252.261	217.313
254.413	222.224
256.565	211.013
258.716	213.473
260.868	209.552
263.02	215.807
265.171	213.083
267.323	201.598
269.475	217.474
271.627	202.667
273.778	213.822
275.93	221.333
278.082	217.67
280.233	212.615
282.385	203.101
284.537	205.066
286.689	207.177
288.84	210.176
290.992	205.333
293.144	217.194
295.295	202.093
297.447	205.553
299.599	191.095
301.751	189.642
303.902	194.229
306.054	187.574
308.206	191.82
310.357	189.197
312.509	183.662
314.661	188.87
316.813	183.286
318.964	184.159
321.116	180.29
323.268	176.117
325.419	188.732
327.571	175.28
329.723	178.793
331.875	182.198
334.026	174.39
336.178	175.985
338.33	165.368
340.481	170.127
342.633	172.167
344.785	182.05
346.937	171.723
349.088	166.666
351.24	173.864
353.392	167.467
355.543	152.14
357.695	174.179
359.847	166.69
361.999	162.171
364.15	162.904
366.302	163.285
368.454	158.252
370.605	165.942
372.757	164.1
374.909	151.973
377.061	151.053
379.212	151.291
381.364	157.221
383.516	156.697
385.667	156.82
387.819	152.965
389.971	138.146
392.123	150.795
394.274	154.813
396.426	152.146
398.578	156.137
400.729	148.756
402.881	148.111
405.033	144.311
407.185	143.748
409.336	144.754
411.488	149.452
413.64	144.817
415.791	138.606
417.943	137.09
420.095	137.445
422.247	131.751
424.398	145.014
426.55	141.625
428.702	140.446
430.853	128.348
433.005	139.049
435.157	132.329
437.309	134.932
439.46	137.56
441.612	137.667
443.764	130.52
445.915	134.966
448.067	139.967
450.219	133.988
452.371	140.332
454.522	132.243
456.674	128.031
458.826	125.011
460.977	130.847
463.129	131.611
465.281	134.138
467.433	123.564
469.584	127.504
471.736	132.116
473.888	126.334
476.039	126.542
478.191	128.883
480.343	130.349
482.495	132.227
484.646	135.943
486.798	112.808
488.95	128.408
491.101	127.043
493.253	135.334
495.405	123.385
497.557	121.228
499.708	115.295
501.86	128.741
504.012	128.121
506.163	132.699
508.315	126.069
510.467	125.668
512.619	119.428
514.77	127.828
516.922	113.525
519.074	119.471
521.225	124.245
523.377	124.601
525.529	110.739
527.681	123.139
529.832	126.683
531.984	115.074
534.136	113.797
536.287	116.13
538.439	114.561
540.591	122.34
542.743	110.409
544.894	124.46
547.046	121.463
549.198	118
551.349	116.821
553.501	115.487
555.653	116.802
557.805	121.333
559.956	125.796
562.108	126.521
564.26	119.665
566.411	113.469
568.563	129.863
570.715	124.91
572.867	117.568
575.018	126.187
577.17	123.554
579.322	119.743
581.473	121.664
583.625	119.632
585.777	110.901
587.929	132.083
590.08	132.024
592.232	121.398
594.384	119.689
596.535	114.02
598.687	114.918
600.839	122.239
602.991	118.284
605.142	116.549
607.294	113.52
609.446	121.757
611.597	123.23
613.749	121.773
615.901	121.293
618.052	119.902
620.204	125.653
622.356	120.432
624.508	125.552
626.659	120.734
628.811	137.351
630.963	132.26
633.115	122.532
635.266	120.933
637.418	136.425
639.57	135.536
641.721	135.51
643.873	128.212
646.025	137.69
648.177	133.542
650.328	139.234
652.48	137.524
654.632	138.732
656.783	132.425
658.935	134.941
661.087	140.533
663.239	140.643
665.39	128.689
667.542	139.623
669.694	138.36
671.845	135
673.997	142.022
676.149	135.448
678.301	137.822
680.452	144.913
682.604	141.832
684.756	137.775
686.907	147.784
689.059	140.782
691.211	144.131
693.362	144.204
695.514	140.804
697.666	150.408
699.818	152.088
701.969	147.715
704.121	145.656
706.273	140.737
708.424	142.074
710.576	145.15
712.728	150.811
714.88	149.65
717.031	158.247
719.183	159.591
721.335	161.166
723.487	153.478
725.638	159.116
727.79	164.205
729.942	162.038
732.093	158.713
734.245	162.753
736.397	170.857
738.549	161.379
740.7	161.333
742.852	158.102
745.004	167.517
747.155	166.419
749.307	167.899
751.459	172.498
753.61	175.829
755.762	172.495
757.914	184.447
760.066	184.22
762.217	177.321
764.369	174.825
766.521	170.235
768.672	180.534
770.824	184.053
772.976	174.378
775.128	182.553
777.279	185.872
779.431	188.524
781.583	181.84
783.734	186.21
785.886	189.7
788.038	180.539
790.19	185.606
792.341	188.819
794.493	194.363
796.645	196.216
798.797	191.644
800.948	192.709
803.1	185.717
805.252	192.993
807.403	196.213
809.555	204.079
811.707	187.696
813.859	185.975
816.01	206.27
818.162	195.082
820.314	199.628
822.465	209.739
824.617	211.964
826.769	206.007
828.92	216.108
831.072	216.786
833.224	205.601
835.376	201.721
837.527	203.81
839.679	212.397
841.831	214.62
843.982	212.344
846.134	210.796
848.286	203.945
850.438	211.287
852.589	210.624
854.741	206.894
856.893	204.61
859.044	208.331
861.196	200.572
863.348	196.09
865.5	196.201
867.651	198.384
869.803	191.544
871.955	190.19
874.107	179.619
876.258	183.792
878.41	175.15
880.562	174.272
882.713	179.91
884.865	167.899
887.017	169.314
889.169	168.978
891.32	158.564
893.472	157.673
895.624	153.812
897.775	156.655
899.927	142.501
902.079	146.56
904.23	135.059
906.382	139.921
908.534	141.862
910.686	130.654
912.837	137.338
914.989	122.294
917.141	131.487
919.292	131.622
921.444	126.213
923.596	132.625
925.748	125.157
927.899	124.626
930.051	121.029
932.203	118.344
934.354	118.938
936.506	125.572
938.658	113.161
940.81	120.747
942.961	117.892
945.113	118.839
947.265	121.007
949.417	110.698
951.568	117.249
953.72	116.889
955.872	111.751
958.023	116.991
960.175	109.688
962.327	121.985
964.478	112.215
966.63	119.426
968.782	114.649
970.934	114.908
973.085	102.766
975.237	111.333
977.389	108.954
979.54	111.453
981.692	109.919
983.844	106.768
985.996	106.709
988.147	121.398
990.299	109.343
992.451	113.871
994.602	114.814
996.754	111.68
998.906	117.18
1001.06	114.745
1003.21	122.043
1005.36	119.667
1007.51	118.009
1009.66	118.308
1011.82	110.263
1013.97	114.299
1016.12	116.188
1018.27	118.683
1020.42	108.677
1022.57	124.119
1024.73	119.367
1026.88	117.135
1029.03	120.784
1031.18	118.698
1033.33	114.878
1035.49	126.05
1037.64	131.767
1039.79	134.016
1041.94	131.083
1044.09	129.479
1046.24	134.269
1048.4	139.414
1050.55	131.999
1052.7	119.321
1054.85	126.195
1057	124.62
1059.15	121.202
1061.31	124.684
1063.46	118.207
1065.61	122.287
1067.76	126.381
1069.91	111.125
1072.06	117.641
1074.22	118.249
1076.37	114.453
1078.52	119.236
1080.67	125.241
1082.82	126.201
1084.97	110.823
1087.13	118.334
1089.28	115.201
1091.43	121.734
1093.58	124.389
1095.73	111.48
1097.88	115.112
1100.04	118.738
1102.19	117.995
1104.34	111.513
1106.49	108.314
1108.64	109.13
1110.8	105.451
1112.95	114.459
1115.1	106.901
1117.25	116.124
1119.4	98.0034
1121.55	111.986
1123.71	115.945
1125.86	107.609
1128.01	101.9
1130.16	103.267
1132.31	101.48
1134.46	97.2466
1136.62	105.904
1138.77	107.233
1140.92	109.105
1143.07	108.229
1145.22	102.803
1147.37	102.706
1149.53	95.5227
1151.68	100.119
1153.83	100.62
1155.98	94.5081
1158.13	103.813
1160.28	98.5032
1162.44	94.3094
1164.59	102.916
1166.74	98.0349
1168.89	95.5283
1171.04	94.4278
1173.19	99.7608
1175.35	102.049
1177.5	100.333
1179.65	96.438
1181.8	103.17
1183.95	98.816
1186.1	97.3783
1188.26	100.884
1190.41	95.7296
1192.56	101.667
1194.71	103.919
1196.86	107.813
1199.02	104.725
1201.17	99.3457
1203.32	102.063
1205.47	103.832
1207.62	100.566
1209.77	99.0842
1211.93	113.556
1214.08	107.871
1216.23	112.48
1218.38	108.931
1220.53	109.817
1222.68	110.349
1224.84	111.88
1226.99	103.468
1229.14	113.82
1231.29	111.625
1233.44	109.176
1235.59	117.217
1237.75	121.022
1239.9	125.308
1242.05	119.143
1244.2	118.884
1246.35	119.687
1248.5	128.592
1250.66	123
1252.81	124.805
1254.96	117.955
1257.11	123.691
1259.26	135.272
1261.42	134.353
1263.57	130.633
1265.72	139.937
1267.87	146.217
1270.02	144.606
1272.17	147.436
1274.33	159.5
1276.48	166.1
1278.63	153.099
1280.78	169.699
1282.93	165.11
1285.08	178.295
1287.24	169.361
1289.39	188.695
1291.54	196.54
1293.69	201.764
1295.84	196.848
1297.99	207.553
1300.15	230.058
1302.3	247.958
1304.45	260.695
1306.6	269.944
1308.75	286.424
1310.9	311.869
1313.06	328.694
1315.21	347.384
1317.36	378.865
1319.51	420.151
1321.66	449.333
1323.81	470.181
1325.97	504.541
1328.12	542.699
1330.27	559.971
1332.42	584.849
1334.57	609.225
1336.72	631.76
1338.88	640.302
1341.03	647.034
1343.18	635.493
1345.33	618.414
1347.48	596.625
1349.64	577.615
1351.79	543.304
1353.94	507.308
1356.09	472.931
1358.24	453.155
1360.39	422.041
1362.55	398.227
1364.7	358.546
1366.85	342.314
1369	325.397
1371.15	304.831
1373.3	292.567
1375.46	264.505
1377.61	259.68
1379.76	245.332
1381.91	233.129
1384.06	226.734
1386.21	214.433
1388.37	201.971
1390.52	190.662
1392.67	184.879
1394.82	185.087
1396.97	170.406
1399.12	172.175
1401.28	180.403
1403.43	166.779
1405.58	159.989
1407.73	153.769
1409.88	155.366
1412.04	147.191
1414.19	150.044
1416.34	138.167
1418.49	155.608
1420.64	152.056
1422.79	137.962
1424.95	142.404
1427.1	141.537
1429.25	134.764
1431.4	146.494
1433.55	135.53
1435.7	139.03
1437.86	133.667
1440.01	144.604
1442.16	129.915
1444.31	135.507
1446.46	128.021
1448.61	131.947
1450.77	138.928
1452.92	131.252
1455.07	134.803
1457.22	139.052
1459.37	131.655
1461.52	118.95
1463.68	140.545
1465.83	142.217
1467.98	135.905
1470.13	136.557
1472.28	133.894
1474.43	135.329
1476.59	132.187
1478.74	145.522
1480.89	138.41
1483.04	140.735
1485.19	140.459
1487.34	131.021
1489.5	144.715
1491.65	127.737
1493.8	138.183
1495.95	146.392
1498.1	149.31
1500.26	154.189
1502.41	153.072
1504.56	147.916
1506.71	157.99
1508.86	151.021
1511.01	153.201
1513.17	152.781
1515.32	162.22
1517.47	166.482
1519.62	165.215
1521.77	169.542
1523.92	170.293
1526.08	183.089
1528.23	194.592
1530.38	190.575
1532.53	218.162
1534.68	223.41
1536.83	237.428
1538.99	241.839
1541.14	273.121
1543.29	284.517
1545.44	307.06
1547.59	328.726
1549.74	345.23
1551.9	389.068
1554.05	417.148
1556.2	472.2
1558.35	518.692
1560.5	543.793
1562.66	580.238
1564.81	616.136
1566.96	643.713
1569.11	664.111
1571.26	665.181
1573.41	680.718
1575.57	669.248
1577.72	650.535
1579.87	628.988
1582.02	584.301
1584.17	564.172
1586.32	530.691
1588.48	503.622
1590.63	464.306
1592.78	445.392
1594.93	444.659
1597.08	418.244
1599.23	394.259
1601.39	390.902
1603.54	385.608
1605.69	382.149
1607.84	368.163
1609.99	342.663
1612.14	329.941
1614.3	310.123
1616.45	288.248
1618.6	277.917
1620.75	249.439
1622.9	237.559
1625.05	218.033
1627.21	205.327
1629.36	178.702
1631.51	171.592
1633.66	150.344
1635.81	153.57
1637.96	136.3
1640.12	131.009
1642.27	121.988
1644.42	112.689
1646.57	107.985
1648.72	110.355
1650.88	105.195
1653.03	100.719
1655.18	88.4834
1657.33	94.7702
1659.48	92.2583
1661.63	85.8407
1663.79	82.8264
1665.94	83.9165
1668.09	81.2043
1670.24	76.3117
1672.39	77.0704
1674.54	77.4359
1676.7	78.8289
1678.85	82.0148
1681	70.8867
1683.15	67.5066
1685.3	68.1653
1687.45	71.3109
1689.61	76.3447
1691.76	70.0024
1693.91	69.838
1696.06	68.3767
1698.21	71.9698
1700.36	63.1368
1702.52	62.6009
1704.67	65.6878
1706.82	70.4725
1708.97	66.7916
1711.12	67.0466
1713.28	68.1412
1715.43	66.9815
1717.58	67.3953
1719.73	73.2176
1721.88	68.8139
1724.03	60.0091
1726.19	67.5045
1728.34	57.6642
1730.49	59.5853
1732.64	58.8817
1734.79	60.7902
1736.94	66.6955
1739.1	63.2622
1741.25	61.2307
1743.4	60.4072
1745.55	58.9369
1747.7	59
1749.85	63.9839
1752.01	64.586
1754.16	62.2851
1756.31	61.8201
1758.46	59.8367
1760.61	62.5768
1762.76	59.1883
1764.92	64.191
1767.07	62.2454
1769.22	59.4409
1771.37	58.2093
1773.52	55.6595
1775.67	59.2117
1777.83	53.3953
1779.98	55.1659
1782.13	58.477
1784.28	54.9847
1786.43	65.0649
1788.58	59.5405
1790.74	63.3553
1792.89	52.9395
1795.04	61.6431
1797.19	63.3002
1799.34	56.1077
1801.5	53.7067
1803.65	55.1062
1805.8	60.3371
1807.95	64.5886
1810.1	63.7218
1812.25	61.1812
1814.41	56.8082
1816.56	58.1403
1818.71	54.8384
1820.86	58.1666
1823.01	64.9028
1825.16	61.3561
1827.32	60.1276
1829.47	52.7257
1831.62	63.6758
1833.77	58.6954
1835.92	55.1892
1838.07	54.0715
1840.23	58.7509
1842.38	58.4429
1844.53	60.9195
1846.68	57.6446
1848.83	64.6482
1850.98	61.2207
1853.14	63.0818
1855.29	59.5431
1857.44	57.861
1859.59	58.3697
1861.74	58.9442
1863.9	64.8161
1866.05	60.7625
1868.2	65.8115
1870.35	60.1971
1872.5	62.1548
1874.65	57.4789
1876.81	66.3803
1878.96	58.5946
1881.11	59.3313
1883.26	67.1682
1885.41	56.1965
1887.56	57.8094
1889.72	58.1069
1891.87	65.7643
1894.02	57.32
1896.17	57.4987
1898.32	60.9047
1900.47	61.0799
1902.63	51.745
1904.78	54.9856
1906.93	59.4624
1909.08	63.7373
1911.23	54.7628
1913.38	59.0628
1915.54	49.4729
1917.69	61.1913
1919.84	59.5351
1921.99	56.0728
1924.14	55.8567
1926.29	55.9461
1928.45	57.9714
1930.6	56.1479
1932.75	57.965
1934.9	63.585
1937.05	61.9957
1939.2	54.4385
1941.36	55.8125
1943.51	53.6084
1945.66	54.3439
1947.81	59.1152
1949.96	53.4731
1952.12	58.4527
1954.27	56.541
1956.42	57.4435
1958.57	49.9376
1960.72	57.9012
1962.87	56.8103
1965.03	57.2841
1967.18	58.3944
1969.33	48.5744
1971.48	54.8543
1973.63	56.1147
1975.78	54.8723
1977.94	58.2162
1980.09	58.3899
1982.24	58.9751
1984.39	53.1722
1986.54	49.6334
1988.69	59.9568
1990.85	52.2521
1993	50.6379
1995.15	54.6267
1997.3	61.5358
1999.45	55.4829
2001.6	52.1599
2003.76	60.0365
2005.91	59.17
2008.06	50.5816
2010.21	64.2515
2012.36	70.214
2014.51	58.4395
2016.67	56.5876
2018.82	61.2891
2020.97	64.4398
2023.12	59.3544
2025.27	61.8284
2027.43	62.3021
2029.58	57.3942
2031.73	62.1418
2033.88	63.3012
2036.03	61.727
2038.18	55.678
2040.34	57.1426
2042.49	54.0689
2044.64	60.9659
2046.79	49.8591
2048.94	59.2534
2051.09	54.9605
2053.25	53.3355
2055.4	61.4991
2057.55	65.3686
2059.7	58.1913
2061.85	56.3966
2064	61.9706
2066.16	52.0068
2068.31	45.2901
2070.46	62.5727
2072.61	57.7766
2074.76	57.7161
2076.91	49.7651
2079.07	55.3136
2081.22	57.785
2083.37	57.9022
2085.52	56.7631
2087.67	64.5098
2089.82	51.5268
2091.98	58.5267
2094.13	53.2367
2096.28	62.075
2098.43	52.3268
2100.58	52.6803
2102.74	63.1463
2104.89	58.1269
2107.04	61.7153
2109.19	60.0403
2111.34	58.6667
2113.49	56.4143
2115.65	55.0906
2117.8	56.2326
2119.95	57.8323
2122.1	59.8247
2124.25	57.6471
2126.4	52.7995
2128.56	51.4768
2130.71	53.6428
2132.86	54.8404
2135.01	55.8561
2137.16	56.2032
2139.31	58.4552
2141.47	58.4719
2143.62	54.7301
2145.77	57.737
2147.92	64.1138
2150.07	57.2513
2152.22	56.7471
2154.38	60.5855
2156.53	57.1036
2158.68	58.4847
2160.83	61.4719
2162.98	57.4538
2165.14	60.575
2167.29	60.7747
2169.44	55.9651
2171.59	64.1375
2173.74	59.7491
2175.89	54.3045
2178.05	55.898
2180.2	63.6193
2182.35	56.8435
2184.5	59.1683
2186.65	55.6782
2188.8	63.7859
2190.96	57.5704
2193.11	62.5766
2195.26	61.5606
2197.41	62.9151
2199.56	59.134
2201.71	57.988
2203.87	59.7343
2206.02	59.6538
2208.17	57.8591
2210.32	55.2078
2212.47	59.1524
2214.62	54.9597
2216.78	59.9143
2218.93	56.8974
2221.08	54.7542
2223.23	54.9712
2225.38	57.8102
2227.53	57.5341
2229.69	57.8152
2231.84	62.8338
2233.99	64.1345
2236.14	61.01
2238.29	61.1241
2240.44	59.3198
2242.6	62.9047
2244.75	53.6298
2246.9	53.2672
2249.05	64.4811
2251.2	61.7625
2253.36	59.2144
2255.51	58.7024
2257.66	61.015
2259.81	65.8508
2261.96	66.3923
2264.11	60.8772
2266.27	61.2391
2268.42	59.4968
2270.57	62.9873
2272.72	58.9549
2274.87	65.7967
2277.02	47.0885
2279.18	61.1518
2281.33	54.6778
2283.48	57.5724
2285.63	57.0445
2287.78	65.9692
2289.93	60.2084
2292.09	63.4478
2294.24	62.6469
2296.39	56.8066
2298.54	60.7161
2300.69	56.9609
2302.84	65.3089
2305	61.5543
2307.15	65.0462
2309.3	71.8709
2311.45	60.1948
2313.6	61.9982
2315.75	54.9229
2317.91	65.9236
2320.06	59.9968
2322.21	61.9318
2324.36	63.6667
2326.51	62
2328.67	88.504
2330.82	110.21
2332.97	92.5156
2335.12	64.4846
2337.27	65.6951
2339.42	56.8573
2341.58	67.4086
2343.73	62.7309
2345.88	63.9343
2348.03	73.3607
2350.18	67.601
2352.33	65.2079
2354.49	63.4561
2356.64	65.322
2358.79	62.6048
2360.94	72.0642
2363.09	68.7445
2365.24	64.0704
2367.4	65.168
2369.55	68.064
2371.7	66.3426
2373.85	72.2772
2376	72.67
2378.15	66.9918
2380.31	74.8898
2382.46	76.2877
2384.61	70.4197
2386.76	66.8002
2388.91	73.8837
2391.06	78.1481
2393.22	74.8282
2395.37	74.5047
2397.52	74.8096
2399.67	75.4111
2401.82	74.2982
2403.98	83.2168
2406.13	77.1689
2408.28	84.037
2410.43	87.9736
2412.58	84.0117
2414.73	83.9183
2416.89	81.2748
2419.04	89.3752
2421.19	94.352
2423.34	95.9139
2425.49	87.8369
2427.64	96.8726
2429.8	87.6196
2431.95	95.0754
2434.1	94.8213
2436.25	99.8203
2438.4	95.5189
2440.55	90.5717
2442.71	88.7359
2444.86	91.3379
2447.01	99.4473
2449.16	90.779
2451.31	90.5064
2453.46	97.8312
2455.62	95.0708
2457.77	95.1131
2459.92	89.7803
2462.07	93.3928
2464.22	88.9762
2466.375	83.464
2468.53	89.9431
2470.68	89.0113
2472.83	83.1029
2474.98	83.1019
2477.13	91.5894
2479.29	87.6989
2481.44	85.6721
2483.59	83.098
2485.74	94.9623
2487.89	83.5449
2490.04	84.0472
2492.2	77.0115
2494.35	91.44
2496.5	95.7407
2498.65	92.2106
2500.8	88.1777
2502.95	87.9579
2505.11	84.5463
2507.26	90.6563
2509.41	99.4103
2511.56	90.19
2513.71	99.9025
2515.86	93.3618
2518.02	86.2751
2520.17	91.2185
2522.32	92.1827
2524.47	89.5281
2526.62	86.9068
2528.77	97.9201
2530.93	91.335
2533.08	95.0196
2535.23	90.5128
2537.38	91.5565
2539.53	96.0657
2541.68	99.654
2543.84	101.599
2545.99	99.7066
2548.14	99.1988
2550.29	88.0109
2552.44	104.992
2554.6	99.3719
2556.75	108.826
2558.9	97.311
2561.05	99.9422
2563.2	108.928
2565.35	105.131
2567.51	105.229
2569.66	107.181
2571.81	105.75
2573.96	112.592
2576.11	108.684
2578.26	110.832
2580.42	121.839
2582.57	119.27
2584.72	119.936
2586.87	119
2589.02	125.161
2591.17	130.781
2593.33	131.653
2595.48	136.407
2597.63	128.121
2599.78	145.802
2601.93	147.095
2604.08	147.181
2606.24	155.346
2608.39	157.103
2610.54	165.342
2612.69	163.106
2614.84	175.304
2616.99	181.615
2619.15	195.072
2621.3	204.663
2623.45	193.721
2625.6	211.96
2627.75	215.823
2629.91	228.551
2632.06	239.713
2634.21	247.099
2636.36	262.353
2638.51	273.482
2640.66	281.261
2642.82	278.853
2644.97	306.105
2647.12	315.895
2649.27	327.17
2651.42	339.486
2653.57	354.352
2655.73	362.969
2657.88	358.988
2660.03	369.798
2662.18	383.154
2664.33	403.234
2666.48	402.454
2668.64	406.02
2670.79	410.022
2672.94	408.755
2675.09	423.077
2677.24	412.441
2679.39	424.029
2681.55	410.809
2683.7	401.881
2685.85	409.363
2688	394.645
2690.15	388.517
2692.3	365.695
2694.46	373.777
2696.61	362.924
2698.76	350.661
2700.91	334.309
2703.06	325.548
2705.22	319.235
2707.37	304.973
2709.52	291.083
2711.67	288.313
2713.82	270.812
2715.97	259.372
2718.13	247.236
2720.28	247.004
2722.43	239.669
2724.58	222.926
2726.73	224.935
2728.88	205.902
2731.04	203.744
2733.19	190.48
2735.34	187.032
2737.49	178.257
2739.64	178.301
2741.79	171.163
2743.95	164.815
2746.1	162.871
2748.25	155.134
2750.4	150.093
2752.55	150.55
2754.7	146.643
2756.86	135.803
2759.01	131.496
2761.16	132.471
2763.31	134.606
2765.46	126.62
2767.61	125.61
2769.77	128.659
2771.92	121.175
2774.07	128.339
2776.22	112.756
2778.37	119.333
2780.53	116.442
2782.68	116.112
2784.83	117.459
2786.98	114.075
2789.13	110.735
2791.28	106.416
2793.44	108.135
2795.59	107.309
2797.74	108.647
2799.89	103.466
2802.04	98.8566
2804.19	104.401
2806.35	98.6711
2808.5	94.8338
2810.65	101.934
2812.8	104.145
2814.95	100.365
2817.1	105.102
2819.26	91.9451
2821.41	102.924
2823.56	98.4687
2825.71	103.095
2827.86	104.328
2830.01	103.662
2832.17	89.8926
2834.32	101.874
2836.47	102.002
2838.62	95.4892
2840.77	106.927
2842.92	104.551
2845.08	107.363
2847.23	97.6448
2849.38	103.46
2851.53	103.934
2853.68	94.3333
2855.84	101.868
2857.99	106.333
2860.14	108.314
2862.29	107.828
2864.44	98.2131
2866.59	97.9178
2868.75	109.943
2870.9	98.5543
2873.05	103.89
2875.2	107.062
2877.35	111.465
2879.5	105.465
2881.66	103.249
2883.81	111.903
2885.96	124.576
2888.11	115.38
2890.26	124.858
2892.41	114.93
2894.57	120.399
2896.72	118.854
2898.87	115.669
2901.02	116.091
2903.17	116.412
2905.32	129.578
2907.48	131.452
2909.63	120.152
2911.78	118.871
2913.93	120.71
2916.08	128.025
2918.23	115.466
2920.39	124.928
2922.54	122.204
2924.69	124.129
2926.84	122.776
2928.99	119.64
2931.15	115.841
2933.3	122.359
2935.45	117.22
2937.6	114.053
2939.75	119.9
2941.9	110.538
2944.06	117.566
2946.21	109.236
2948.36	107.827
2950.51	101.063
2952.66	104.456
2954.81	105.026
2956.97	107.777
2959.12	93.8694
2961.27	99.4199
2963.42	101.752
2965.57	100.717
2967.72	93.2439
2969.88	105.436
2972.03	97.6485
2974.18	98.2689
2976.33	92.5814
2978.48	90.4172
2980.63	86.5879
2982.79	95.1682
2984.94	87.3333
2987.09	88.4089
2989.24	87.2617
2991.39	87.3432
2993.54	92.5941
2995.7	85.3197
2997.85	78.1361
3000	81.528