File: Example Data/Raman/Kara/05-21-10/CNT m2 3-6-2008/CNT m2_3_Si only.txt
50	62.2491
52.1517	64.457
54.3034	51.0827
56.4551	42.1609
58.6069	41.5564
60.7586	37.6769
62.9103	41.3658
65.062	36.6887
67.2137	45.4797
69.3654	86.2656
71.5171	120.801
73.6689	194.259
75.8206	215.253
77.9723	263.437
80.124	158.962
82.2757	147.635
84.4274	217.426
86.5791	229.699
88.7309	152.251
90.8826	155.086
93.0343	230.588
95.186	207.65
97.3377	194.571
99.4894	144.739
101.641	189.086
103.793	145.586
105.945	147.381
108.096	219.783
110.248	222.011
112.4	137.458
114.551	132.151
116.703	152.419
118.855	170.333
121.007	140.25
123.158	147.492
125.31	175.37
127.462	139.529
129.613	139.027
131.765	157.49
133.917	148.879
136.069	135.29
138.22	140.537
140.372	158.533
142.524	159.279
144.675	120.478
146.827	140.427
148.979	136.319
151.131	146.899
153.282	126.919
155.434	140.258
157.586	144.584
159.737	129.762
161.889	131.184
164.041	122.368
166.193	125.283
168.344	122.411
170.496	119.608
172.648	122.614
174.799	123.866
176.951	113.009
179.103	129.932
181.255	122.989
183.406	131.416
185.558	121.309
187.71	122.601
189.861	122.874
192.013	129.525
194.165	117.553
196.317	125.346
198.468	128.711
200.62	123.538
202.772	118.019
204.923	121.167
207.075	115.09
209.227	125.33
211.379	124.888
213.53	124.201
215.682	119.838
217.834	130.981
219.985	133.049
222.137	120.379
224.289	137.391
226.441	129.801
228.592	136.801
230.744	136.482
232.896	138.715
235.047	152.967
237.199	140.439
239.351	144.139
241.503	139.336
243.654	147.685
245.806	139.454
247.958	131.356
250.109	141.433
252.261	153.272
254.413	137.228
256.565	141.897
258.716	142.68
260.868	157.694
263.02	151.468
265.171	144.146
267.323	144.091
269.475	148.141
271.627	142.749
273.778	150.917
275.93	146.592
278.082	154.546
280.233	133.641
282.385	146.203
284.537	145.81
286.689	156.418
288.84	153.82
290.992	161.224
293.144	160.531
295.295	156.274
297.447	154.451
299.599	159.648
301.751	165.302
303.902	175.418
306.054	170.028
308.206	164.591
310.357	161.98
312.509	156.256
314.661	157.298
316.813	151.667
318.964	150.42
321.116	143.183
323.268	151.582
325.419	135.667
327.571	141.954
329.723	137.131
331.875	130.847
334.026	127.994
336.178	135.992
338.33	131.59
340.481	135.446
342.633	121.458
344.785	136.356
346.937	129.726
349.088	129.868
351.24	129.162
353.392	116.967
355.543	126.694
357.695	121.824
359.847	120.768
361.999	125.868
364.15	119.994
366.302	114.716
368.454	115.353
370.605	112.827
372.757	105.166
374.909	111.463
377.061	117.054
379.212	108.505
381.364	101.431
383.516	96.422
385.667	103.813
387.819	98.4638
389.971	98.4469
392.123	97.4884
394.274	98.7368
396.426	103.55
398.578	94.6667
400.729	101.052
402.881	96.0643
405.033	91.5825
407.185	104.744
409.336	100.386
411.488	88.0813
413.64	92.0435
415.791	95.242
417.943	91.0536
420.095	89.3333
422.247	98.2799
424.398	103.212
426.55	90.4321
428.702	95.4534
430.853	96.2671
433.005	97.3047
435.157	98.0091
437.309	95.9523
439.46	91.8599
441.612	90.5401
443.764	86.2602
445.915	83.6346
448.067	97.5098
450.219	87.338
452.371	79.9173
454.522	83.6482
456.674	79.924
458.826	84.426
460.977	74.9183
463.129	77.0948
465.281	72.0154
467.433	76.8312
469.584	81.2345
471.736	83.4991
473.888	87.9075
476.039	80.3936
478.191	77.7583
480.343	88.1165
482.495	88.0259
484.646	88.0911
486.798	94.5966
488.95	94.5214
491.101	82.4853
493.253	92.1958
495.405	92.0515
497.557	92.1104
499.708	103.333
501.86	111.698
504.012	116.152
506.163	133.296
508.315	145.49
510.467	182.311
512.619	201.502
514.77	291.159
516.922	445.501
519.074	965.244
521.225	3027.09
523.377	5645.2
525.529	2852.38
527.681	907.513
529.832	407.396
531.984	271.986
534.136	206.627
536.287	159.318
538.439	148.901
540.591	120.385
542.743	115.75
544.894	112.799
547.046	101.444
549.198	95.9133
551.349	89.5908
553.501	93.6464
555.653	85.4162
557.805	80.8357
559.956	82.1009
562.108	82.6667
564.26	82.9207
566.411	86.1746
568.563	86.0673
570.715	81.0158
572.867	75.6577
575.018	77.3333
577.17	80.0949
579.322	73.7169
581.473	71.0842
583.625	71.9939
585.777	70.257
587.929	77.7837
590.08	65.6109
592.232	72.9322
594.384	72.5087
596.535	80.5885
598.687	76.2804
600.839	76.5581
602.991	80.277
605.142	78.9117
607.294	78.4243
609.446	78.7751
611.597	85.4835
613.749	79.4394
615.901	86.4812
618.052	89.3647
620.204	89.0479
622.356	88.3562
624.508	87.3196
626.659	83.1836
628.811	89.9915
630.963	84.5771
633.115	85.248
635.266	90.3633
637.418	89.2418
639.57	95.9653
641.721	85.7507
643.873	83.3878
646.025	82.6593
648.177	94.0209
650.328	91.8297
652.48	88.6805
654.632	86.6001
656.783	101.026
658.935	94.43
661.087	97.0378
663.239	89.3753
665.39	98.7677
667.542	95.1466
669.694	103.795
671.845	97.2135
673.997	95.6924
676.149	98.768
678.301	98.9748
680.452	94.5433
682.604	91.926
684.756	94.0213
686.907	98.1943
689.059	96.0759
691.211	93.4954
693.362	88.8818
695.514	95.599
697.666	101.933
699.818	94.1712
701.969	94.5447
704.121	96.5591
706.273	95.9514
708.424	92.7481
710.576	100.704
712.728	97.9369
714.88	97.0167
717.031	96.6088
719.183	588.695
721.335	94.9166
723.487	101.956
725.638	101.951
727.79	98.282
729.942	100.623
732.093	105.675
734.245	102.312
736.397	113.489
738.549	106.199
740.7	107.349
742.852	106.214
745.004	104.816
747.155	109.589
749.307	111.85
751.459	108.751
753.61	108.318
755.762	110.581
757.914	112.075
760.066	125.064
762.217	111.826
764.369	116.967
766.521	110.63
768.672	114.967
770.824	119.153
772.976	128.52
775.128	110.666
777.279	116.947
779.431	125.604
781.583	123.08
783.734	126.62
785.886	128.303
788.038	128.453
790.19	125.239
792.341	121.148
794.493	130.895
796.645	128.833
798.797	142.202
800.948	132.972
803.1	130.985
805.252	141.007
807.403	145.618
809.555	133.192
811.707	134.293
813.859	133.754
816.01	139.071
818.162	140.389
820.314	138.936
822.465	140.308
824.617	141.278
826.769	151.113
828.92	143.321
831.072	137.12
833.224	140.651
835.376	147.114
837.527	152.959
839.679	153.486
841.831	153.179
843.982	144.658
846.134	148.127
848.286	140.468
850.438	137.388
852.589	145.253
854.741	145.611
856.893	146.923
859.044	142.529
861.196	137.302
863.348	137.653
865.5	131.562
867.651	134.631
869.803	133.507
871.955	126.409
874.107	126.894
876.258	122.964
878.41	124.216
880.562	121.812
882.713	114.924
884.865	115.301
887.017	117.641
889.169	116.644
891.32	104.372
893.472	109.866
895.624	110.305
897.775	102.177
899.927	97.9339
902.079	89.5687
904.23	97.7103
906.382	95.3377
908.534	92.7263
910.686	99.3065
912.837	92.9225
914.989	91.3732
917.141	85.4221
919.292	84.8918
921.444	84.9439
923.596	86.1238
925.748	89.5707
927.899	98.9589
930.051	104.918
932.203	107.635
934.354	123.488
936.506	132.974
938.658	156.273
940.81	173.642
942.961	172.737
945.113	171.03
947.265	163.257
949.417	167.425
951.568	157.487
953.72	162.309
955.872	158.376
958.023	166.661
960.175	166.53
962.327	163.816
964.478	158.667
966.63	154.644
968.782	163.383
970.934	160.107
973.085	155
975.237	165.331
977.389	166.48
979.54	161.691
981.692	162.237
983.844	154.026
985.996	166.69
988.147	149.683
990.299	140.871
992.451	130.596
994.602	125.66
996.754	114.485
998.906	109.906
1001.06	94.5485
1003.21	87.0154
1005.36	88.2792
1007.51	84.6425
1009.66	86.9303
1011.82	86.2544
1013.97	81.5516
1016.12	76.9486
1018.27	82.122
1020.42	74.8786
1022.57	71.707
1024.73	70.6045
1026.88	73.8307
1029.03	72.6204
1031.18	77.2708
1033.33	70.0469
1035.49	76.9009
1037.64	71.861
1039.79	69.989
1041.94	68.0062
1044.09	67.5102
1046.24	65.7594
1048.4	68.6134
1050.55	64.0387
1052.7	62.7313
1054.85	57.2833
1057	58.9625
1059.15	58.0247
1061.31	58.3333
1063.46	59.8368
1065.61	62.1042
1067.76	50.076
1069.91	59.9597
1072.06	54.6473
1074.22	47.733
1076.37	50.065
1078.52	50.0307
1080.67	50.2217
1082.82	45.5467
1084.97	48.8684
1087.13	44.9853
1089.28	46.4007
1091.43	49.31
1093.58	41.5557
1095.73	43.5412
1097.88	49.7467
1100.04	39.8202
1102.19	43.5399
1104.34	44.4385
1106.49	40.1356
1108.64	46.9792
1110.8	40.2136
1112.95	41.7447
1115.1	44.4073
1117.25	44.2287
1119.4	45.3329
1121.55	41.9711
1123.71	36.471
1125.86	33.438
1128.01	35.4207
1130.16	38.8361
1132.31	39.981
1134.46	38.9093
1136.62	34.446
1138.77	31.972
1140.92	30.8287
1143.07	34.668
1145.22	33.7983
1147.37	30.3575
1149.53	32.4526
1151.68	29.6788
1153.83	35.3943
1155.98	33.6521
1158.13	33.8882
1160.28	28.8137
1162.44	32.3573
1164.59	31.4315
1166.74	32.5199
1168.89	32.8751
1171.04	34.1194
1173.19	33.4275
1175.35	26.8618
1177.5	39.2337
1179.65	31.562
1181.8	33.507
1183.95	25.1442
1186.1	32.7229
1188.26	35.278
1190.41	31.7296
1192.56	29.2013
1194.71	26.9969
1196.86	29.7427
1199.02	24.9589
1201.17	28.9955
1203.32	35.0773
1205.47	28.043
1207.62	20.9225
1209.77	26.7439
1211.93	30.3774
1214.08	34.3806
1216.23	27.5367
1218.38	32.4964
1220.53	29.6565
1222.68	35.7849
1224.84	27.0401
1226.99	31.5274
1229.14	36.376
1231.29	32.3749
1233.44	30
1235.59	30.291
1237.75	29.6961
1239.9	37.4269
1242.05	31.0955
1244.2	32.5236
1246.35	30.8852
1248.5	32.086
1250.66	34.6325
1252.81	32.5993
1254.96	28.8626
1257.11	33.3498
1259.26	34.3939
1261.42	28.6525
1263.57	30.9028
1265.72	31.8096
1267.87	29.4651
1270.02	33.0064
1272.17	32.8061
1274.33	28.1669
1276.48	31.2925
1278.63	39.3188
1280.78	33.7102
1282.93	31.3406
1285.08	29.9895
1287.24	31.7437
1289.39	30.3375
1291.54	34.7496
1293.69	38.3606
1295.84	37.2694
1297.99	38.1834
1300.15	37.03
1302.3	35.0055
1304.45	44.5284
1306.6	37.9969
1308.75	48.5877
1310.9	41.5951
1313.06	45.3573
1315.21	40.1508
1317.36	44.4083
1319.51	37.0497
1321.66	44.3038
1323.81	51.2146
1325.97	45.6019
1328.12	50.6567
1330.27	49.9256
1332.42	51.8513
1334.57	50.7967
1336.72	57.8305
1338.88	54.3391
1341.03	57.5324
1343.18	63.606
1345.33	60.4138
1347.48	62.7483
1349.64	62.1044
1351.79	67.0346
1353.94	67.9519
1356.09	51.8843
1358.24	58.3178
1360.39	56.2602
1362.55	59.795
1364.7	57.587
1366.85	61.1385
1369	52.9788
1371.15	54.7026
1373.3	46.5817
1375.46	51.6034
1377.61	49.3138
1379.76	46.9837
1381.91	44.0647
1384.06	42.4328
1386.21	41.9756
1388.37	39.1329
1390.52	37.1577
1392.67	41.0707
1394.82	35.4191
1396.97	42.9812
1399.12	37.7976
1401.28	30.9374
1403.43	37.2207
1405.58	42.6046
1407.73	37.4655
1409.88	38.1626
1412.04	32.3701
1414.19	35.2585
1416.34	34
1418.49	36.5459
1420.64	37.2387
1422.79	38.7472
1424.95	34.4529
1427.1	29.1386
1429.25	34.268
1431.4	32.304
1433.55	31.8093
1435.7	32.1093
1437.86	35.0455
1440.01	37.1511
1442.16	34.119
1444.31	39.6169
1446.46	30.5646
1448.61	37.5347
1450.77	35.6291
1452.92	33.3741
1455.07	33.5708
1457.22	30.7457
1459.37	33.6725
1461.52	28.8062
1463.68	35.5447
1465.83	35.0773
1467.98	38.2224
1470.13	35.9482
1472.28	33.4391
1474.43	33.5567
1476.59	33.262
1478.74	33.6496
1480.89	31.1552
1483.04	33.2085
1485.19	30.2571
1487.34	34.6641
1489.5	31.7072
1491.65	34.3141
1493.8	36.4494
1495.95	30.4903
1498.1	31.6319
1500.26	38.5396
1502.41	29.464
1504.56	32.6427
1506.71	27.3479
1508.86	36.679
1511.01	29.9505
1513.17	36.1053
1515.32	28.6732
1517.47	29.0693
1519.62	28.6074
1521.77	36.2497
1523.92	26.6794
1526.08	34.2806
1528.23	31.9164
1530.38	35.9542
1532.53	34.7535
1534.68	32.8089
1536.83	32.2892
1538.99	39.4539
1541.14	38.8775
1543.29	33.6627
1545.44	38.38
1547.59	40.4899
1549.74	39.5558
1551.9	47.2276
1554.05	46.7682
1556.2	52.3105
1558.35	52.8746
1560.5	45.3404
1562.66	44.0617
1564.81	49.4509
1566.96	52.5581
1569.11	54.4527
1571.26	57.1155
1573.41	62.0623
1575.57	57.4149
1577.72	64.3543
1579.87	70.3639
1582.02	72.1398
1584.17	69.8405
1586.32	78.9927
1588.48	72.2721
1590.63	66.49
1592.78	67.2004
1594.93	67.6913
1597.08	58.4779
1599.23	61.7596
1601.39	60.3275
1603.54	51.5244
1605.69	49.0194
1607.84	52.92
1609.99	56.8111
1612.14	48.8011
1614.3	44.5204
1616.45	50.5523
1618.6	46.8606
1620.75	43.9448
1622.9	43.3488
1625.05	49.3171
1627.21	46.2638
1629.36	44.0282
1631.51	39.624
1633.66	38.143
1635.81	35.9377
1637.96	41.2857
1640.12	32.7165
1642.27	30.6932
1644.42	34.7821
1646.57	28.228
1648.72	23.926
1650.88	27.5401
1653.03	26.3778
1655.18	28.2165
1657.33	26.6386
1659.48	21.6021
1661.63	27.902
1663.79	27.4347
1665.94	21.3323
1668.09	26.0622
1670.24	23.6973
1672.39	27.9783
1674.54	28.2057
1676.7	29.9354
1678.85	21.1013
1681	23.1133
1683.15	25.6247
1685.3	23.18
1687.45	27.9142
1689.61	21.3113
1691.76	25.491
1693.91	24.6285
1696.06	22.038
1698.21	21.7464
1700.36	24.7521
1702.52	21.0787
1704.67	25.0678
1706.82	27.2408
1708.97	22.0449
1711.12	26.6511
1713.28	24.007
1715.43	30.5633
1717.58	25.7489
1719.73	25.4938
1721.88	25.3204
1724.03	26.4279
1726.19	22.5364
1728.34	30.7456
1730.49	22.5102
1732.64	28.0217
1734.79	22.2681
1736.94	22.3479
1739.1	25.0111
1741.25	22.8206
1743.4	27.7013
1745.55	25.6248
1747.7	21.4011
1749.85	19.5509
1752.01	22.339
1754.16	28.4978
1756.31	28.1534
1758.46	23.9455
1760.61	24.4868
1762.76	24.4647
1764.92	22.3464
1767.07	24.3787
1769.22	26.4774
1771.37	27.7519
1773.52	26.5448
1775.67	24.2433
1777.83	26.8806
1779.98	24.3479
1782.13	25.3707
1784.28	22.5156
1786.43	23.8425
1788.58	25.5179
1790.74	23.8269
1792.89	26.6449
1795.04	29.0312
1797.19	23.0978
1799.34	27.3476
1801.5	25.6617
1803.65	22.569
1805.8	23.5581
1807.95	26.0767
1810.1	18.7594
1812.25	22.6821
1814.41	23.4306
1816.56	20.9475
1818.71	22.0402
1820.86	28.4724
1823.01	20.2037
1825.16	25.6667
1827.32	23.96
1829.47	26.8102
1831.62	25.1144
1833.77	24.3276
1835.92	17.0624
1838.07	25.0137
1840.23	21.5093
1842.38	25.7785
1844.53	25.5287
1846.68	26.9904
1848.83	27.9757
1850.98	21.7812
1853.14	25.467
1855.29	27.4904
1857.44	25.2959
1859.59	22.4133
1861.74	27.924
1863.9	26.2642
1866.05	29.2963
1868.2	22.3397
1870.35	23.361
1872.5	27.2861
1874.65	30.9765
1876.81	27.3262
1878.96	25.0992
1881.11	21.319
1883.26	23.5614
1885.41	25.2475
1887.56	25.1041
1889.72	27.5347
1891.87	23.2948
1894.02	27.44
1896.17	23.1498
1898.32	26.3725
1900.47	29.2268
1902.63	28.2071
1904.78	23.3995
1906.93	23.6774
1909.08	27.7791
1911.23	26.1822
1913.38	29.0755
1915.54	21.6751
1917.69	18.6783
1919.84	27.4649
1921.99	27.2689
1924.14	26.1308
1926.29	26.3228
1928.45	27.1962
1930.6	24.6578
1932.75	26.9825
1934.9	25.3946
1937.05	33.6786
1939.2	27.9611
1941.36	25.6027
1943.51	22.8106
1945.66	26.7848
1947.81	22.9725
1949.96	17.7141
1952.12	25.5572
1954.27	28.6084
1956.42	24.405
1958.57	28.7698
1960.72	23.6297
1962.87	25.7624
1965.03	19.7351
1967.18	26.6189
1969.33	27.0923
1971.48	25.9374
1973.63	25.129
1975.78	25.4704
1977.94	25.1171
1980.09	24.7682
1982.24	23.7961
1984.39	30.4366
1986.54	32.8832
1988.69	25.7707
1990.85	23.9422
1993	28.0395
1995.15	27.2648
1997.3	30.2981
1999.45	29.6433
2001.6	31.878
2003.76	24.0398
2005.91	21.0044
2008.06	26.566
2010.21	29.6101
2012.36	26.3623
2014.51	28.21
2016.67	25.7103
2018.82	30.8887
2020.97	21.937
2023.12	26.0702
2025.27	25.3912
2027.43	23.7447
2029.58	28.6961
2031.73	23.3144
2033.88	26.6453
2036.03	23.3176
2038.18	26.983
2040.34	29.341
2042.49	29.3333
2044.64	28.2811
2046.79	30.8729
2048.94	22.0752
2051.09	24.8476
2053.25	26.3797
2055.4	30.0279
2057.55	24.6667
2059.7	25.7971
2061.85	27.8175
2064	28.163
2066.16	26.5614
2068.31	23.4128
2070.46	24.2437
2072.61	24.3333
2074.76	28.0451
2076.91	25.5857
2079.07	23.4908
2081.22	27.7979
2083.37	22.0751
2085.52	31.6946
2087.67	26.2549
2089.82	31.2536
2091.98	26.3553
2094.13	25.6716
2096.28	31.8648
2098.43	23.9869
2100.58	26.3485
2102.74	26.9849
2104.89	27.8849
2107.04	29.7141
2109.19	26.1483
2111.34	27.5016
2113.49	25.2285
2115.65	23.2971
2117.8	25.3644
2119.95	27.6184
2122.1	26.1943
2124.25	25.8045
2126.4	22.9599
2128.56	22.1899
2130.71	25.1037
2132.86	23.9131
2135.01	29.579
2137.16	27.6252
2139.31	23.6244
2141.47	25.2871
2143.62	28.4458
2145.77	29.4148
2147.92	27.493
2150.07	27.6158
2152.22	31.138
2154.38	31.8717
2156.53	26.2072
2158.68	28.5193
2160.83	27.1648
2162.98	22.2437
2165.14	31.9458
2167.29	35.857
2169.44	30.8218
2171.59	30.038
2173.74	29.3535
2175.89	28.6465
2178.05	26.8235
2180.2	28.9243
2182.35	26.2134
2184.5	26.372
2186.65	26.6797
2188.8	29.3205
2190.96	30.1795
2193.11	28.6804
2195.26	30.251
2197.41	27.1149
2199.56	25.7183
2201.71	31.3156
2203.87	29.9373
2206.02	30.768
2208.17	28.0236
2210.32	26.5148
2212.47	28.2979
2214.62	29.3258
2216.78	26.7455
2218.93	25.8982
2221.08	26.1041
2223.23	25.7433
2225.38	32.3532
2227.53	27.6476
2229.69	27.172
2231.84	27.1561
2233.99	24.753
2236.14	29.2018
2238.29	25
2240.44	24.85
2242.6	27.733
2244.75	26.8267
2246.9	25.3333
2249.05	28.6508
2251.2	27.8084
2253.36	29.1552
2255.51	27.0935
2257.66	24.8826
2259.81	24.0285
2261.96	28.0423
2264.11	32.0475
2266.27	30.6069
2268.42	25.7011
2270.57	28.0419
2272.72	29.6567
2274.87	28.7691
2277.02	29.6372
2279.18	24.2844
2281.33	27.1037
2283.48	28.4714
2285.63	24.7993
2287.78	28.0759
2289.93	29.8745
2292.09	28.2873
2294.24	26.0296
2296.39	25.122
2298.54	20.2535
2300.69	25.5725
2302.84	28.7506
2305	28.889
2307.15	28
2309.3	28.5687
2311.45	25.505
2313.6	29.3912
2315.75	28.1712
2317.91	26.6932
2320.06	28.5259
2322.21	24.4416
2324.36	32.0356
2326.51	28.5144
2328.67	42.2152
2330.82	76.3197
2332.97	63.0227
2335.12	28.9815
2337.27	27.938
2339.42	25.1855
2341.58	27.9377
2343.73	26.5127
2345.88	25.8121
2348.03	24.3257
2350.18	25.0502
2352.33	32.2186
2354.49	26.4922
2356.64	21.4581
2358.79	29.6229
2360.94	22.5811
2363.09	29.2834
2365.24	31.4914
2367.4	26.4882
2369.55	29.2525
2371.7	26.9171
2373.85	26.0708
2376	35.0258
2378.15	26.3292
2380.31	28.1884
2382.46	24.4902
2384.61	28.6181
2386.76	29.6631
2388.91	30.8598
2391.06	33.428
2393.22	25.8178
2395.37	23.3823
2397.52	30.5122
2399.67	31.4551
2401.82	28.1196
2403.98	31.5051
2406.13	28.0242
2408.28	30.4445
2410.43	25.0594
2412.58	33.379
2414.73	27.9118
2416.89	32.9463
2419.04	34.2483
2421.19	31.8613
2423.34	31.4659
2425.49	28.3768
2427.64	33.7807
2429.8	31.1407
2431.95	27.2831
2434.1	33.1247
2436.25	35.2475
2438.4	35.3245
2440.55	31.7622
2442.71	31.566
2444.86	32.8721
2447.01	28.1898
2449.16	31.6367
2451.31	29.8247
2453.46	35.9109
2455.62	23.7208
2457.77	35.4404
2459.92	29.8333
2462.07	25.862
2464.22	29.0238
2466.375	29.2653
2468.53	31.4331
2470.68	35.9796
2472.83	26.8864
2474.98	29.8224
2477.13	28.1171
2479.29	29.3015
2481.44	29.6727
2483.59	33.4685
2485.74	32.2058
2487.89	27.6247
2490.04	27.6327
2492.2	36.7126
2494.35	30.56
2496.5	25.5133
2498.65	30.3772
2500.8	27.96
2502.95	25.7915
2505.11	34.2683
2507.26	27.0828
2509.41	31.9795
2511.56	27.449
2513.71	31.77
2515.86	30.2111
2518.02	27.2169
2520.17	34.2166
2522.32	32.6882
2524.47	29.8053
2526.62	35.9413
2528.77	27.7361
2530.93	33.9043
2533.08	33.4966
2535.23	32.3866
2537.38	29.4031
2539.53	33.614
2541.68	33.1514
2543.84	35.0191
2545.99	28.3365
2548.14	34.1236
2550.29	34.0748
2552.44	39.3757
2554.6	29.1965
2556.75	25.4602
2558.9	29.3333
2561.05	35.3491
2563.2	28.8469
2565.35	33.8972
2567.51	28.1327
2569.66	32.3466
2571.81	36.7118
2573.96	31.27
2576.11	32.3391
2578.26	34.9523
2580.42	32.1239
2582.57	34.4211
2584.72	35.4666
2586.87	30.1933
2589.02	32.1849
2591.17	33.2861
2593.33	29.6793
2595.48	32.8407
2597.63	31.9762
2599.78	33.2485
2601.93	31.445
2604.08	33.1176
2606.24	36.3601
2608.39	34.3459
2610.54	34.8177
2612.69	29.4663
2614.84	36.8356
2616.99	28.0794
2619.15	28.7103
2621.3	35.5842
2623.45	29.7121
2625.6	34.4527
2627.75	37.9977
2629.91	35.4325
2632.06	31.6158
2634.21	34.259
2636.36	39.9814
2638.51	36.2908
2640.66	38.3554
2642.82	38.8381
2644.97	36.5634
2647.12	33.0226
2649.27	39.6037
2651.42	42.562
2653.57	41.3008
2655.73	41.4559
2657.88	42.7768
2660.03	39.8062
2662.18	42.9417
2664.33	46.3277
2666.48	48.0979
2668.64	47.0728
2670.79	46.488
2672.94	48.7298
2675.09	48.8911
2677.24	47.4344
2679.39	55.026
2681.55	49.539
2683.7	53.1102
2685.85	54.2185
2688	57.1804
2690.15	56.1371
2692.3	54.03
2694.46	55.2027
2696.61	57.6113
2698.76	61.9137
2700.91	52.0985
2703.06	56.0355
2705.22	54.4478
2707.37	55.3981
2709.52	52.08
2711.67	53.0834
2713.82	52.9586
2715.97	53.1839
2718.13	52.7092
2720.28	48.6123
2722.43	50.7693
2724.58	44.6175
2726.73	43.1179
2728.88	44.5592
2731.04	46.4228
2733.19	45.7418
2735.34	42.9312
2737.49	42.9799
2739.64	44.1863
2741.79	40.3447
2743.95	43.408
2746.1	39.1103
2748.25	37.5174
2750.4	42.3911
2752.55	38.2706
2754.7	34.4381
2756.86	41.2342
2759.01	32.9556
2761.16	36.5459
2763.31	36.6122
2765.46	35.2219
2767.61	36.505
2769.77	36.4724
2771.92	34.8511
2774.07	33.7606
2776.22	35
2778.37	35.0849
2780.53	34.8744
2782.68	31.8116
2784.83	40.1392
2786.98	37.9543
2789.13	37.9444
2791.28	33.5862
2793.44	36.7735
2795.59	32.1517
2797.74	33.6138
2799.89	33.7678
2802.04	30.4821
2804.19	29.4055
2806.35	32.2691
2808.5	36.656
2810.65	34.2381
2812.8	32.6979
2814.95	27.4653
2817.1	32.9587
2819.26	33.6758
2821.41	36.3821
2823.56	27.862
2825.71	30.9205
2827.86	30.3369
2830.01	31.0011
2832.17	31.4483
2834.32	29.9935
2836.47	36.064
2838.62	32.4482
2840.77	29.7289
2842.92	32.206
2845.08	33.7753
2847.23	38.6885
2849.38	33.0531
2851.53	27.8598
2853.68	38.3167
2855.84	35.2064
2857.99	32.7433
2860.14	33.0565
2862.29	36.4409
2864.44	35.3339
2866.59	27.7899
2868.75	29.925
2870.9	30.3295
2873.05	31.871
2875.2	32.1083
2877.35	36.3639
2879.5	34.1951
2881.66	35.5935
2883.81	30.4654
2885.96	39.9966
2888.11	28.7295
2890.26	34.4409
2892.41	29.8231
2894.57	30.4651
2896.72	35.5497
2898.87	27.0036
2901.02	34.2826
2903.17	31.4068
2905.32	34.6691
2907.48	34.7921
2909.63	27.1661
2911.78	28.6299
2913.93	36.7246
2916.08	35.696
2918.23	34.2254
2920.39	36.1101
2922.54	36.7407
2924.69	37.0341
2926.84	33.1319
2928.99	32.7641
2931.15	34.9128
2933.3	39.3974
2935.45	36.8921
2937.6	38.895
2939.75	40.7029
2941.9	31.2806
2944.06	35.5157
2946.21	34.0598
2948.36	34.5739
2950.51	37.2971
2952.66	38.5456
2954.81	26.9486
2956.97	35.6851
2959.12	36.4711
2961.27	32.5118
2963.42	40.3125
2965.57	32.6667
2967.72	36.7701
2969.88	34.3839
2972.03	35.904
2974.18	30.7188
2976.33	34.9096
2978.48	29.4795
2980.63	33.1485
2982.79	34.6646
2984.94	31.2156
2987.09	32.9893
2989.24	30.0811
2991.39	35.71
2993.54	34.2493
2995.7	29.1926
2997.85	33.2329
3000	31.0373