File: Example Data/Raman/Kara/12-20-10/Si-Graphene/5bulk/SGbulk_2.txt
400	378.601
402.515	386.198
405.03	391.768
407.546	407.12
410.061	409.069
412.576	415.601
415.091	431.06
417.607	442.162
420.122	442.458
422.637	479.043
425.152	476.786
427.668	482.314
430.183	486.128
432.698	484.293
435.213	493.743
437.729	496.552
440.244	512.177
442.759	521.2
445.274	519.011
447.79	514.762
450.305	540.059
452.82	550.475
455.335	571.108
457.851	593.482
460.366	613.095
462.881	655.911
465.396	664.505
467.912	710.591
470.427	741.395
472.942	764.47
475.457	835.622
477.973	897.989
480.488	961.206
483.003	1028.04
485.518	1119.09
488.034	1238.44
490.549	1337.44
493.064	1481.12
495.579	1719.25
498.095	1990.03
500.61	2290.99
503.125	2647.24
505.64	2862.49
508.155	2888.35
510.671	2685.69
513.186	2314.18
515.701	1874.44
518.216	1478.88
520.732	1147.54
523.247	907.075
525.762	740.141
528.277	622.892
530.793	538.314
533.308	511.306
535.823	448.899
538.338	404.949
540.854	380.518
543.369	364.542
545.884	342.82
548.399	328.469
550.915	304.509
553.43	294.336
555.945	295.116
558.46	297.284
560.976	292.951
563.491	270.479
566.006	271.959
568.521	276.858
571.037	275.894
573.552	270.143
576.067	273.289
578.582	284.258
581.098	280.113
583.613	278.181
586.128	280.63
588.643	281.025
591.159	287.161
593.674	300.838
596.189	294.374
598.704	289.63
601.219	294.151
603.735	298.138
606.25	293.822
608.765	291.151
611.281	294.117
613.796	284.119
616.311	269.983
618.826	282.4
621.341	282.4
623.857	280.628
626.372	280.114
628.887	273.91
631.402	266.63
633.918	272.841
636.433	268.51
638.948	267.559
641.463	271.157
643.979	278.195
646.494	282.071
649.009	273.518
651.524	260.997
654.04	266.573
656.555	266.923
659.07	264.411
661.585	263.643
664.101	264.483
666.616	253.279
669.131	255.831
671.646	259.017
674.162	253.435
676.677	244.894
679.192	248.052
681.707	258.102
684.223	254.902
686.738	247.871
689.253	248.667
691.768	251.468
694.284	244.839
696.799	241.316
699.314	252.726
701.829	239.905
704.344	233.368
706.86	237.055
709.375	240.32
711.89	238.113
714.406	246.357
716.921	250.852
719.436	241.286
721.951	242.042
724.466	255.25
726.982	241.979
729.497	244.507
732.012	244.8
734.527	253.611
737.043	254.547
739.558	250.503
742.073	257.287
744.588	250.704
747.104	257.963
749.619	254.739
752.134	256.442
754.649	262.42
757.165	265.785
759.68	268.31
762.195	265.604
764.71	264.625
767.226	262.366
769.741	262.363
772.256	264.961
774.771	265.77
777.287	263.907
779.802	278.336
782.317	288.845
784.832	287.471
787.348	279.539
789.863	274.021
792.378	272.724
794.893	280.022
797.409	284.823
799.924	283.278
802.439	278.858
804.954	277.386
807.469	281.933
809.985	285.335
812.5	281.73
815.015	282.232
817.531	289.226
820.046	292.79
822.561	288.459
825.076	285.086
827.591	287.813
830.107	288.317
832.622	289.175
835.137	288.703
837.652	291.663
840.168	296.755
842.683	289.296
845.198	296.635
847.713	305.818
850.229	306.418
852.744	303.494
855.259	300.286
857.774	299.688
860.29	308.915
862.805	307.034
865.32	317.443
867.835	316.764
870.351	318.059
872.866	325.786
875.381	331.295
877.896	327.212
880.412	333.042
882.927	340.063
885.442	341.838
887.957	347.043
890.473	352.889
892.988	356.784
895.503	380.118
898.018	387.678
900.534	396.145
903.049	402.53
905.564	406.611
908.079	412.469
910.594	420.909
913.11	423.178
915.625	438.842
918.14	443.967
920.656	440.926
923.171	436.409
925.686	433.984
928.201	433.955
930.716	434.915
933.232	431.983
935.747	418.535
938.262	409.35
940.777	412.934
943.293	411.18
945.808	399.265
948.323	395.759
950.838	385.909
953.354	401.71
955.869	380.637
958.384	354.671
960.899	345.32
963.415	346.507
965.93	341.419
968.445	336.346
970.96	324.395
973.476	311.34
975.991	304.765
978.506	301.252
981.021	293.344
983.537	282.254
986.052	279.47
988.567	279.991
991.082	269.249
993.598	273.75
996.113	261.201
998.628	251.904
1001.14	251.686
1003.66	246.972
1006.17	241.017
1008.69	248.845
1011.2	247.297
1013.72	241.771
1016.23	240.722
1018.75	239.185
1021.27	237.123
1023.78	239.779
1026.3	234.629
1028.81	235.327
1031.33	236.338
1033.84	236.469
1036.36	235.662
1038.87	238.605
1041.39	241.807
1043.9	234.936
1046.42	229.123
1048.93	242.063
1051.45	239.593
1053.96	242.66
1056.48	243.751
1058.99	237.219
1061.51	228.62
1064.02	227.541
1066.54	227.301
1069.05	231.156
1071.57	230.048
1074.09	234.955
1076.6	240.98
1079.12	237.691
1081.63	227.204
1084.15	224.603
1086.66	231.619
1089.18	227.755
1091.69	231.871
1094.21	225.008
1096.72	225.319
1099.24	227.03
1101.75	227.59
1104.27	232.141
1106.78	228.256
1109.3	233.541
1111.81	219.23
1114.33	225.742
1116.84	230.12
1119.36	228.771
1121.875	227.89
1124.39	229.456
1126.91	229.344
1129.42	235.792
1131.94	235.085
1134.45	234.223
1136.97	236.244
1139.48	229.137
1142	221.858
1144.51	225.457
1147.03	236.563
1149.54	245.449
1152.06	245.98
1154.57	230.325
1157.09	232.906
1159.6	239.034
1162.12	238.039
1164.63	238.868
1167.15	243.765
1169.66	239.6
1172.18	239.397
1174.7	236.203
1177.21	249.468
1179.73	247.165
1182.24	243.621
1184.76	241.509
1187.27	238.092
1189.79	234.838
1192.3	238.087
1194.82	248.517
1197.33	243.713
1199.85	236.906
1202.36	239.937
1204.88	253.497
1207.39	259.084
1209.91	249.606
1212.42	239.951
1214.94	244.979
1217.45	245.25
1219.97	238.289
1222.48	255.447
1225	254.06
1227.52	248.241
1230.03	249.327
1232.55	256.936
1235.06	260.877
1237.58	258.775
1240.09	267.533
1242.61	268.575
1245.12	264.281
1247.64	269.207
1250.15	273.501
1252.67	277.498
1255.18	277.374
1257.7	274.822
1260.21	277.171
1262.73	285.447
1265.24	286.992
1267.76	279.095
1270.27	288.824
1272.79	275.311
1275.3	279.315
1277.82	285.476
1280.34	285.245
1282.85	279.266
1285.37	274.816
1287.88	285.15
1290.4	293.458
1292.91	291.118
1295.43	282.787
1297.94	292.44
1300.46	304.408
1302.97	297.195
1305.49	293.606
1308	298.032
1310.52	300.201
1313.03	316.174
1315.55	312.014
1318.06	312.194
1320.58	327.576
1323.09	325.758
1325.61	333.722
1328.125	327.942
1330.64	327.547
1333.16	341.837
1335.67	354.729
1338.19	355.919
1340.7	344.643
1343.22	345.008
1345.73	345.552
1348.25	342.792
1350.76	341.468
1353.28	351.801
1355.79	350.597
1358.31	344.419
1360.82	346.435
1363.34	352.65
1365.85	355.316
1368.37	338.764
1370.88	336.22
1373.4	328.624
1375.91	330.233
1378.43	330.8
1380.95	337.229
1383.46	341.108
1385.98	335.614
1388.49	330.677
1391.01	329.544
1393.52	316.577
1396.04	312.075
1398.55	312.866
1401.07	323.625
1403.58	311.993
1406.1	315.487
1408.61	321.661
1411.13	325.958
1413.64	327.408
1416.16	322.384
1418.67	317.532
1421.19	320.26
1423.7	311.534
1426.22	320.358
1428.73	305.539
1431.25	320.528
1433.77	312.391
1436.28	315.652
1438.8	324.673
1441.31	317.68
1443.83	312.671
1446.34	318.235
1448.86	321.973
1451.37	330.852
1453.89	342.299
1456.4	338.84
1458.92	335.902
1461.43	320.903
1463.95	339.307
1466.46	336.368
1468.98	337.913
1471.49	339.949
1474.01	341.73
1476.52	343.676
1479.04	344.045
1481.55	347.177
1484.07	348.559
1486.59	334.63
1489.1	337.172
1491.62	352.662
1494.13	339.273
1496.65	334.624
1499.16	343.798
1501.68	337.037
1504.19	334.879
1506.71	335.121
1509.22	337.668
1511.74	350.53
1514.25	353.059
1516.77	341.366
1519.28	341.908
1521.8	348.558
1524.31	336.341
1526.83	339.777
1529.34	360.467
1531.86	356.062
1534.375	352.92
1536.89	347.549
1539.41	350.457
1541.92	362.841
1544.44	368.417
1546.95	366.809
1549.47	369.108
1551.98	368.344
1554.5	377.898
1557.01	369.277
1559.53	389.178
1562.04	380.754
1564.56	385.866
1567.07	398.897
1569.59	405.82
1572.1	405.206
1574.62	397.896
1577.13	402.113
1579.65	409.728
1582.16	403.865
1584.68	406.544
1587.2	405.812
1589.71	397.421
1592.23	396.254
1594.74	401.483
1597.26	404.339
1599.77	419.861
1602.29	403.977
1604.8	398.657
1607.32	397.817
1609.83	397.87
1612.35	391.084
1614.86	388.551
1617.38	391.062
1619.89	387.401
1622.41	383.369
1624.92	375.51
1627.44	379.086
1629.95	378.997
1632.47	372.085
1634.98	366.644
1637.5	368.911
1640.02	380.398
1642.53	379.035
1645.05	371.142
1647.56	367.746
1650.08	372.867
1652.59	374.675
1655.11	376.138
1657.62	379.933
1660.14	377.898
1662.65	374.118
1665.17	376.138
1667.68	378.594
1670.2	385.226
1672.71	387.477
1675.23	377.507
1677.74	369.772
1680.26	370.298
1682.77	374.443
1685.29	375.043
1687.8	384.942
1690.32	380.625
1692.84	378.414
1695.35	384.609
1697.87	390.135
1700.38	385.741
1702.9	377.831
1705.41	381.795
1707.93	384.725
1710.44	372.601
1712.96	384.151
1715.47	374.34
1717.99	384.262
1720.5	401.13
1723.02	388.801
1725.53	402.972
1728.05	393.583
1730.56	398.524
1733.08	391.196
1735.59	400.075
1738.11	396.691
1740.625	401.685
1743.14	409.872
1745.66	410.594
1748.17	411.051
1750.69	413.088
1753.2	408.036
1755.72	404.122
1758.23	411.407
1760.75	411.947
1763.26	416.216
1765.78	410.188
1768.29	410.913
1770.81	408.742
1773.32	410.982
1775.84	419.958
1778.35	396.033
1780.87	412.786
1783.38	440.424
1785.9	416.195
1788.41	411.662
1790.93	410.47
1793.45	412.134
1795.96	419.764
1798.48	423.019
1800.99	429.83
1803.51	425.943
1806.02	422.187
1808.54	430.878
1811.05	431.428
1813.57	431.668
1816.08	433.584
1818.6	430.515
1821.11	437.345
1823.63	446.012
1826.14	437.132
1828.66	444.604
1831.17	423.22
1833.69	443.465
1836.2	446.737
1838.72	460.764
1841.23	451.085
1843.75	440.614
1846.27	451.854
1848.78	460.452
1851.3	456.984
1853.81	450.331
1856.33	450.191
1858.84	453.877
1861.36	458.124
1863.87	462.839
1866.39	452.571
1868.9	454.778
1871.42	465.243
1873.93	459.961
1876.45	459.573
1878.96	469.447
1881.48	472.967
1883.99	473.211
1886.51	474.748
1889.02	464.508
1891.54	485.89
1894.05	484.577
1896.57	476.338
1899.09	469.698
1901.6	474.883
1904.12	469.805
1906.63	484.718
1909.15	473.988
1911.66	473.212
1914.18	470.904
1916.69	485.476
1919.21	478.673
1921.72	478.848
1924.24	492.367
1926.75	481.199
1929.27	493.742
1931.78	494.274
1934.3	500.605
1936.81	493.481
1939.33	496.492
1941.84	489.369
1944.36	483.176
1946.875	487.767
1949.39	494.19
1951.91	490.162
1954.42	488.988
1956.94	496.164
1959.45	501.891
1961.97	505.13
1964.48	500.712
1967	491.876
1969.51	495.166
1972.03	501.804
1974.54	495.638
1977.06	498.765
1979.57	514.866
1982.09	509.567
1984.6	511.773
1987.12	518.611
1989.63	524.392
1992.15	515.454
1994.66	522.652
1997.18	523.025
1999.7	521.364
2002.21	527
2004.73	537.855
2007.24	536.662
2009.76	525.495
2012.27	524.796
2014.79	528.284
2017.3	547.567
2019.82	553.351
2022.33	547.296
2024.85	536.331
2027.36	546.969
2029.88	561.354
2032.39	550.741
2034.91	542.368
2037.42	551.425
2039.94	559.995
2042.45	564.452
2044.97	561.723
2047.48	558.542
2050	563.313
2052.52	570.266
2055.03	567.935
2057.55	555.859
2060.06	562.35
2062.58	571.453
2065.09	572.345
2067.61	564.435
2070.12	565
2072.64	570.19
2075.15	562.008
2077.67	564.356
2080.18	582.212
2082.7	569.431
2085.21	585.906
2087.73	574.12
2090.24	572.902
2092.76	587.241
2095.27	579.73
2097.79	566.78
2100.3	577.295
2102.82	592.373
2105.34	597.075
2107.85	599.105
2110.37	594.912
2112.88	579.633
2115.4	593.99
2117.91	607.872
2120.43	601.922
2122.94	596.479
2125.46	606.89
2127.97	617.963
2130.49	618.031
2133	626.628
2135.52	626.028
2138.03	623.907
2140.55	624.462
2143.06	619.164
2145.58	628.263
2148.09	632.019
2150.61	626.542
2153.125	624.272
2155.64	639.548
2158.16	639.242
2160.67	639.975
2163.19	644.893
2165.7	638.216
2168.22	641.382
2170.73	655.87
2173.25	649.132
2175.76	656.014
2178.28	663.183
2180.79	669.578
2183.31	663.728
2185.82	677.478
2188.34	669.317
2190.85	671.716
2193.37	671.388
2195.88	662.71
2198.4	676.533
2200.91	664.904
2203.43	678.175
2205.95	696.845
2208.46	682.939
2210.98	675.388
2213.49	672.632
2216.01	677.963
2218.52	692.685
2221.04	714.176
2223.55	702.652
2226.07	690.25
2228.58	699.745
2231.1	709.105
2233.61	705.602
2236.13	711.714
2238.64	709.166
2241.16	712.128
2243.67	721.738
2246.19	716.116
2248.7	726.211
2251.22	734.831
2253.73	720.002
2256.25	716.544
2258.77	725.034
2261.28	722.131
2263.8	745.115
2266.31	736.118
2268.83	753.003
2271.34	746.957
2273.86	761.511
2276.37	760.674
2278.89	753.68
2281.4	758.117
2283.92	759.253
2286.43	760.787
2288.95	774.613
2291.46	757.764
2293.98	773.586
2296.49	778.872
2299.01	782.737
2301.52	780.818
2304.04	794.147
2306.55	799.343
2309.07	790.425
2311.59	794.649
2314.1	794.49
2316.62	801.887
2319.13	803.749
2321.65	802.375
2324.16	803.385
2326.68	815.335
2329.19	828.549
2331.71	813.001
2334.22	818.935
2336.74	838.937
2339.25	829.862
2341.77	815.254
2344.28	822.913
2346.8	813.075
2349.31	823.655
2351.83	828.331
2354.34	829.358
2356.86	846.643
2359.375	838.796
2361.89	826.148
2364.41	828.484
2366.92	831.531
2369.44	849.849
2371.95	843.774
2374.47	853.834
2376.98	843.393
2379.5	844.067
2382.01	849.237
2384.53	857.021
2387.04	869.509
2389.56	872.551
2392.07	875.021
2394.59	882.942
2397.1	879.642
2399.62	884.946
2402.13	877.449
2404.65	878.916
2407.16	884.27
2409.68	891.424
2412.2	894.137
2414.71	895.303
2417.23	893.687
2419.74	900.556
2422.26	916.505
2424.77	926.416
2427.29	933.82
2429.8	929.485
2432.32	931.31
2434.83	948.297
2437.35	952.797
2439.86	960.679
2442.38	977.66
2444.89	976.332
2447.41	960.382
2449.92	968.617
2452.44	955.526
2454.95	949.849
2457.47	952.136
2459.98	963.429
2462.5	970.006
2465.02	968.519
2467.53	972.029
2470.05	964.513
2472.56	967.088
2475.08	972.728
2477.59	977.317
2480.11	966.757
2482.62	977.308
2485.14	983.578
2487.65	968.301
2490.17	978.542
2492.68	988.053
2495.2	977.869
2497.71	998.526
2500.23	993.25
2502.74	1007.78
2505.26	1000.41
2507.77	1002.15
2510.29	992.739
2512.8	996.738
2515.32	1003.15
2517.84	1026.33
2520.35	1023.61
2522.87	1036.13
2525.38	1028.13
2527.9	1037.64
2530.41	1035.54
2532.93	1033.28
2535.44	1028.23
2537.96	1067.02
2540.47	1060.77
2542.99	1056.54
2545.5	1059.31
2548.02	1047.42
2550.53	1056.52
2553.05	1072.41
2555.56	1078.12
2558.08	1067.45
2560.59	1055.15
2563.11	1090.95
2565.625	1081.9
2568.14	1081.33
2570.66	1103.2
2573.17	1106.63
2575.69	1095.73
2578.2	1098.16
2580.72	1091.6
2583.23	1092.65
2585.75	1104.86
2588.26	1095.65
2590.78	1121.27
2593.29	1111.04
2595.81	1114.46
2598.32	1113.67
2600.84	1118.31
2603.35	1119.52
2605.87	1134.02
2608.38	1132.5
2610.9	1131.8
2613.41	1147.04
2615.93	1136.95
2618.45	1142.37
2620.96	1140.22
2623.48	1156.95
2625.99	1159.78
2628.51	1137.44
2631.02	1147.55
2633.54	1158.76
2636.05	1157.04
2638.57	1175.74
2641.08	1161.5
2643.6	1168.45
2646.11	1173.48
2648.63	1169.94
2651.14	1186.59
2653.66	1193.41
2656.17	1203.52
2658.69	1187.34
2661.2	1199.5
2663.72	1180.72
2666.23	1217.19
2668.75	1219.15
2671.27	1216.42
2673.78	1211.25
2676.3	1218.65
2678.81	1224.66
2681.33	1228.37
2683.84	1241.88
2686.36	1242.3
2688.87	1244.94
2691.39	1236.9
2693.9	1249.48
2696.42	1252.71
2698.93	1235.12
2701.45	1256.44
2703.96	1268.86
2706.48	1279.42
2708.99	1263.05
2711.51	1282.71
2714.02	1271.19
2716.54	1270.72
2719.05	1282.79
2721.57	1286.42
2724.09	1290.23
2726.6	1290.19
2729.12	1287.55
2731.63	1305.23
2734.15	1323.11
2736.66	1322.34
2739.18	1324.25
2741.69	1326.19
2744.21	1315.67
2746.72	1320.57
2749.24	1324.43
2751.75	1330.88
2754.27	1332.03
2756.78	1332.17
2759.3	1364.33
2761.81	1342.33
2764.33	1360.74
2766.84	1334.97
2769.36	1337.75
2771.875	1358.15
2774.39	1370.31
2776.91	1365.17
2779.42	1375.3
2781.94	1381.83
2784.45	1378.34
2786.97	1379.73
2789.48	1382.92
2792	1393.2
2794.51	1399.45
2797.03	1411.6
2799.54	1398.06
2802.06	1401
2804.57	1406.38
2807.09	1415.55
2809.6	1411.53
2812.12	1407.97
2814.63	1418.44
2817.15	1432.06
2819.66	1420.91
2822.18	1454.12
2824.7	1427.65
2827.21	1454.1
2829.73	1446.85
2832.24	1445.63
2834.76	1454.95
2837.27	1471.81
2839.79	1472.16
2842.3	1470.29
2844.82	1475.08
2847.33	1480.51
2849.85	1489.25
2852.36	1491.59
2854.88	1474.53
2857.39	1501.1
2859.91	1485.98
2862.42	1496.32
2864.94	1517.28
2867.45	1518.47
2869.97	1509.24
2872.48	1529.05
2875	1530.2
2877.52	1546.57
2880.03	1535.43
2882.55	1537.01
2885.06	1535.73
2887.58	1549.01
2890.09	1565.39
2892.61	1560.48
2895.12	1558.94
2897.64	1556.93
2900.15	1591.42
2902.67	1591.21
2905.18	1592.99
2907.7	1608.31
2910.21	1594.02
2912.73	1611.58
2915.24	1615.43
2917.76	1630.09
2920.27	1630.66
2922.79	1646.5
2925.3	1629.79
2927.82	1612.23
2930.34	1665.42
2932.85	1630.94
2935.37	1648.44
2937.88	1657.1
2940.4	1663.2
2942.91	1662.91
2945.43	1665.54
2947.94	1667.81
2950.46	1672.8
2952.97	1681.21
2955.49	1687.64
2958	1687.59
2960.52	1661.69
2963.03	1705.85
2965.55	1687.61
2968.06	1691.14
2970.58	1694.64
2973.09	1691.98
2975.61	1725.33
2978.125	1694.67
2980.64	1688.23
2983.16	1712.92
2985.67	1715.56
2988.19	1738.32
2990.7	1716.11
2993.22	1722.34
2995.73	1747.96
2998.25	1735.8
3000.76	1748.14
3003.28	1747.1
3005.79	1748.82
3008.31	1762.73
3010.82	1760.95
3013.34	1746.77
3015.85	1763.37
3018.37	1790.96
3020.88	1791.7
3023.4	1791.78
3025.91	1804.51
3028.43	1791.64
3030.95	1796.57
3033.46	1804.16
3035.98	1817.89
3038.49	1804.03
3041.01	1823.23
3043.52	1831.54
3046.04	1844.77
3048.55	1839.58
3051.07	1851.88
3053.58	1851.64
3056.1	1855.22
3058.61	1866.22
3061.13	1877.89
3063.64	1883.67
3066.16	1867.52
3068.67	1868.64
3071.19	1907.36
3073.7	1906.74
3076.22	1901.61
3078.73	1919.85
3081.25	1931.02
3083.77	1906.4
3086.28	1924.71
3088.8	1922.09
3091.31	1954.05
3093.83	1962.31
3096.34	1953.94
3098.86	1963.16
3101.37	1946.83
3103.89	1978
3106.4	1977.93
3108.92	1978.06
3111.43	1973.29
3113.95	1983.43
3116.46	2016.4
3118.98	1986.29
3121.49	2009.6
3124.01	2014.99
3126.52	2017.91
3129.04	1998.31
3131.55	2015.82
3134.07	2032.75
3136.59	2046.79
3139.1	2039.97
3141.62	2021.13
3144.13	2063.09
3146.65	2065.45
3149.16	2068.27
3151.68	2076.95
3154.19	2087.37
3156.71	2088.13
3159.22	2104.61
3161.74	2083.46
3164.25	2104.74
3166.77	2078.62
3169.28	2115.96
3171.8	2115.42
3174.31	2114.71
3176.83	2150.9
3179.34	2115.49
3181.86	2154.36
3184.375	2170.89
3186.89	2178.82
3189.41	2170.1
3191.92	2202.21
3194.44	2210.82
3196.95	2212.25
3199.47	2211.85
3201.98	2229.5
3204.5	2214.44
3207.01	2220.88
3209.53	2233.51
3212.04	2280.35
3214.56	2276.47
3217.07	2264.61
3219.59	2272.95
3222.1	2270.27
3224.62	2276.75
3227.13	2300.18
3229.65	2335.13
3232.16	2321.15
3234.68	2297.29
3237.2	2320.15
3239.71	2327.09
3242.23	2336.52
3244.74	2351
3247.26	2352.62
3249.77	2378
3252.29	2368.55
3254.8	2362.47
3257.32	2390.22
3259.83	2377.85
3262.35	2414.21
3264.86	2392.05
3267.38	2418.9
3269.89	2432.78
3272.41	2445
3274.92	2458.13
3277.44	2449.91
3279.95	2438.13
3282.47	2440.86
3284.98	2427.73
3287.5	2484.74
3290.02	2464.88
3292.53	2482.87
3295.05	2496.05
3297.56	2468.88
3300.08	2494.03
3302.59	2501.38
3305.11	2490.54
3307.62	2486.58
3310.14	2497.7
3312.65	2514.4
3315.17	2523.05
3317.68	2524.37
3320.2	2538.9
3322.71	2554.03
3325.23	2548.96
3327.74	2508.94
3330.26	2591.3
3332.77	2573.1
3335.29	2607.16
3337.8	2592.88
3340.32	2581.44
3342.84	2585.87
3345.35	2622.66
3347.87	2648.96
3350.38	2657.35
3352.9	2643.51
3355.41	2613.58
3357.93	2639.81
3360.44	2660.25
3362.96	2657.03
3365.47	2680.41
3367.99	2671.18
3370.5	2675.22
3373.02	2729.39
3375.53	2710.52
3378.05	2727.47
3380.56	2727.21
3383.08	2741.64
3385.59	2777.71
3388.11	2759.41
3390.625	2748.24
3393.14	2737.65
3395.66	2724.92
3398.17	2788.19
3400.69	2802.96
3403.2	2790.79
3405.72	2801.27
3408.23	2804.68
3410.75	2826.97
3413.26	2844
3415.78	2858.86
3418.29	2840.45
3420.81	2864.46
3423.32	2880.8
3425.84	2858.47
3428.35	2880.3
3430.87	2882.94
3433.38	2854.61
3435.9	2902.21
3438.41	2916.28
3440.93	2925.23
3443.45	2923.06
3445.96	2959.55
3448.48	2955.74
3450.99	2980.81
3453.51	2936.47
3456.02	2957.56
3458.54	3014.56
3461.05	2982.69
3463.57	2994.58
3466.08	3002.65
3468.6	2994.28
3471.11	3031.01
3473.63	3040.72
3476.14	3047.87
3478.66	3072.37
3481.17	3074.74
3483.69	3091.71
3486.2	3084.45
3488.72	3115.53
3491.23	3110.94
3493.75	3107.91
3496.27	3120.91
3498.78	3108.52
3501.3	3114.14
3503.81	3109.38
3506.33	3129.6
3508.84	3150.11
3511.36	3187.21
3513.87	3161.45
3516.39	3188.1
3518.9	3196.99
3521.42	3191.53
3523.93	3229
3526.45	3202.21
3528.96	3211.73
3531.48	3240.66
3533.99	3252.29
3536.51	3257.43
3539.02	3268.09
3541.54	3279.87
3544.05	3284.87
3546.57	3335.16
3549.09	3280.3
3551.6	3306.57
3554.12	3326.89
3556.63	3330.05
3559.15	3349.25
3561.66	3357.87
3564.18	3361.91
3566.69	3381.66
3569.21	3378.42
3571.72	3396.07
3574.24	3469.69
3576.75	3417.31
3579.27	3450.46
3581.78	3439.45
3584.3	3472.25
3586.81	3450.99
3589.33	3486.98
3591.84	3509.99
3594.36	3524.98
3596.875	3514.86
3599.39	3499.62
3601.91	3520.75
3604.42	3568.75
3606.94	3563.87
3609.45	3556.91
3611.97	3566.08
3614.48	3540.45
3617	3567.51
3619.51	3598.79
3622.03	3615.93
3624.54	3618.82
3627.06	3649.97
3629.57	3631.59
3632.09	3611.82
3634.6	3628.4
3637.12	3648.14
3639.63	3659.93
3642.15	3649.59
3644.66	3653.22
3647.18	3725.63
3649.7	3696.54
3652.21	3687.08
3654.73	3723.02
3657.24	3718.02
3659.76	3698.59
3662.27	3732.57
3664.79	3773.37
3667.3	3785.9
3669.82	3788.32
3672.33	3780.14
3674.85	3775.48
3677.36	3808.52
3679.88	3801.43
3682.39	3805.14
3684.91	3846.45
3687.42	3837.1
3689.94	3853.53
3692.45	3857.75
3694.97	3858.83
3697.48	3867.66
3700	3919.67