File: Example Data/Raman/Kara/12-20-10/Si-Graphene/5bulk/SGbulk_5.txt
300	331.894
302.53	336.691
305.06	339.059
307.589	345.891
310.119	351.546
312.649	356.79
315.179	368.883
317.708	379.019
320.238	378.622
322.768	378.784
325.298	377.634
327.827	381.074
330.357	387.807
332.887	394.546
335.417	396.328
337.946	403.554
340.476	400.895
343.006	389.864
345.536	379.584
348.065	384.846
350.595	386.631
353.125	397.685
355.655	393.945
358.185	381.169
360.714	378.057
363.244	380.657
365.774	391.3
368.304	393.216
370.833	386.956
373.363	377.815
375.893	372.283
378.423	375.709
380.952	368.115
383.482	363.765
386.012	366.314
388.542	365.685
391.071	357.373
393.601	359.501
396.131	360.256
398.661	359.234
401.19	361.469
403.72	374.044
406.25	371.345
408.78	365.982
411.31	357.924
413.839	353.412
416.369	368.676
418.899	375.052
421.429	372.658
423.958	378.939
426.488	387.192
429.018	384.883
431.548	395.36
434.077	388.43
436.607	399.76
439.137	412.206
441.667	414.789
444.196	417.207
446.726	417.535
449.256	445.355
451.786	457.504
454.315	452.728
456.845	450.526
459.375	471.886
461.905	488.518
464.435	505.73
466.964	531.399
469.494	553.04
472.024	546.147
474.554	583.177
477.083	602.903
479.613	627.984
482.143	665.485
484.673	712.585
487.202	756.422
489.732	807.301
492.262	869.548
494.792	963.293
497.321	1071.81
499.851	1182.79
502.381	1385.67
504.911	1477.69
507.44	1538.5
509.97	1494.43
512.5	1330.05
515.03	1100.81
517.56	871.801
520.089	701.928
522.619	576.06
525.149	483.875
527.679	418.256
530.208	376.461
532.738	347.476
535.268	324.874
537.798	299.507
540.327	277.601
542.857	263.651
545.387	250.286
547.917	242.323
550.446	241.606
552.976	244.509
555.506	237.698
558.036	221.675
560.565	235.297
563.095	222.362
565.625	221.832
568.155	223.195
570.685	224.424
573.214	226.843
575.744	228.175
578.274	217.901
580.804	212.74
583.333	221.152
585.863	231.673
588.393	230.648
590.923	226.478
593.452	239.162
595.982	232.605
598.512	233.932
601.042	240.922
603.571	239.903
606.101	230.881
608.631	231.959
611.161	238.973
613.69	237.702
616.22	234.477
618.75	237.09
621.28	235.511
623.81	227.309
626.339	228.943
628.869	229.254
631.399	227.554
633.929	226.045
636.458	224.388
638.988	219.358
641.518	221.449
644.048	222.82
646.577	223.078
649.107	221.868
651.637	217.386
654.167	217.218
656.696	218.7
659.226	225.1
661.756	231.008
664.286	229.762
666.815	221.152
669.345	229.732
671.875	209.991
674.405	218.065
676.935	216.002
679.464	208.5
681.994	213.51
684.524	208.002
687.054	208.17
689.583	212.366
692.113	220.657
694.643	220.547
697.173	213.614
699.702	221.045
702.232	219.188
704.762	207.908
707.292	215.17
709.821	215.445
712.351	209.566
714.881	217.581
717.411	231.798
719.94	211.819
722.47	209.978
725	212.899
727.53	221.42
730.06	231.601
732.589	227.345
735.119	226.666
737.649	226.447
740.179	225.664
742.708	221.964
745.238	222.245
747.768	230.239
750.298	225.255
752.827	230.183
755.357	233.552
757.887	239.631
760.417	237.951
762.946	232.503
765.476	239.735
768.006	236.161
770.536	232.748
773.065	237.581
775.595	241.019
778.125	237.991
780.655	231.358
783.185	230.988
785.714	244.802
788.244	240.703
790.774	239.074
793.304	245.71
795.833	251.848
798.363	248.217
800.893	241.363
803.423	251.273
805.952	241.947
808.482	236.639
811.012	244.013
813.542	252.894
816.071	250.605
818.601	248.736
821.131	247.194
823.661	249.844
826.19	252.011
828.72	251.505
831.25	251.534
833.78	255.723
836.31	259.716
838.839	252.855
841.369	245.686
843.899	255.565
846.429	258.414
848.958	258.249
851.488	268.662
854.018	266.746
856.548	258.49
859.077	261.896
861.607	268.721
864.137	274.636
866.667	274.956
869.196	273.008
871.726	282.384
874.256	277.386
876.786	276.523
879.315	274.953
881.845	277.528
884.375	284.503
886.905	292.077
889.435	294.847
891.964	285.695
894.494	299.775
897.024	302.04
899.554	305.972
902.083	306.031
904.613	304.378
907.143	309.682
909.673	305.161
912.202	318.487
914.732	329.555
917.262	323.662
919.792	316.155
922.321	314.141
924.851	315.324
927.381	318.373
929.911	316.118
932.44	305.974
934.97	313.457
937.5	315.234
940.03	318.144
942.56	323.326
945.089	315.222
947.619	291.846
950.149	293.063
952.679	295.978
955.208	285.119
957.738	274.813
960.268	268.143
962.798	265.121
965.327	270.677
967.857	269.805
970.387	257.153
972.917	251.509
975.446	247.639
977.976	244.747
980.506	239.785
983.036	232.2
985.565	228.579
988.095	226.658
990.625	234.564
993.155	236.433
995.685	234.935
998.214	230.894
1000.74	231.308
1003.27	236.349
1005.8	228.031
1008.33	218.928
1010.86	218.094
1013.39	226.5
1015.92	227.414
1018.45	224.098
1020.98	223.877
1023.51	227.453
1026.04	228.607
1028.57	225.274
1031.1	218.845
1033.63	221.925
1036.16	218.359
1038.69	219.243
1041.22	223.251
1043.75	224.807
1046.28	229.316
1048.81	223.428
1051.34	226.069
1053.87	223.476
1056.4	218.441
1058.93	214.821
1061.46	218.617
1063.99	224.63
1066.52	221.279
1069.05	218.933
1071.58	221.049
1074.11	226.936
1076.64	220.898
1079.17	213.123
1081.7	221.3
1084.23	227.102
1086.76	215.569
1089.29	221.152
1091.82	214.816
1094.35	222.245
1096.875	218.728
1099.4	215.302
1101.93	216.686
1104.46	218.8
1106.99	216.432
1109.52	212.78
1112.05	219.284
1114.58	220.17
1117.11	206.319
1119.64	226.314
1122.17	230.214
1124.7	228
1127.23	225.563
1129.76	222.294
1132.29	221.723
1134.82	217.601
1137.35	237.686
1139.88	221.278
1142.41	225.437
1144.94	220.338
1147.47	219.424
1150	224.105
1152.53	226
1155.06	227.286
1157.59	232.688
1160.12	231.441
1162.65	227.431
1165.18	233.439
1167.71	231.073
1170.24	232.373
1172.77	236.807
1175.3	234.965
1177.83	228.017
1180.36	228.511
1182.89	226.187
1185.42	223.504
1187.95	223.675
1190.48	224.212
1193.01	227.657
1195.54	239.435
1198.07	242.956
1200.6	231.293
1203.125	230.935
1205.65	230.943
1208.18	236.143
1210.71	245.607
1213.24	246.9
1215.77	246.024
1218.3	245.056
1220.83	239.656
1223.36	236.455
1225.89	242.115
1228.42	241.118
1230.95	241.239
1233.48	257.602
1236.01	244.297
1238.54	237.148
1241.07	242.183
1243.6	250.691
1246.13	258.357
1248.66	260.924
1251.19	256.423
1253.72	253.558
1256.25	243.582
1258.78	252.599
1261.31	257.243
1263.84	255.319
1266.37	256.989
1268.9	260.161
1271.43	258.516
1273.96	261.578
1276.49	271.821
1279.02	265.179
1281.55	259.245
1284.08	249.291
1286.61	258.835
1289.14	269.915
1291.67	263.647
1294.2	264.118
1296.73	274.104
1299.26	279.374
1301.79	274.057
1304.32	269.139
1306.85	275.841
1309.375	284.195
1311.9	278.749
1314.43	281.288
1316.96	276.346
1319.49	281.794
1322.02	282.411
1324.55	287.847
1327.08	297.336
1329.61	299.4
1332.14	298.127
1334.67	295.013
1337.2	306.411
1339.73	301.129
1342.26	307.975
1344.79	317.772
1347.32	314.579
1349.85	312.506
1352.38	314.903
1354.91	309.689
1357.44	301.947
1359.97	308.28
1362.5	313.607
1365.03	316.012
1367.56	302.126
1370.09	308.23
1372.62	307.224
1375.15	315.891
1377.68	302.594
1380.21	303.152
1382.74	309.252
1385.27	301.827
1387.8	294.218
1390.33	295.501
1392.86	297.31
1395.39	301.366
1397.92	289.257
1400.45	299.212
1402.98	303.481
1405.51	305.493
1408.04	297.599
1410.57	299.015
1413.1	300.778
1415.625	292.093
1418.15	288.005
1420.68	298.995
1423.21	308.389
1425.74	312.786
1428.27	312.602
1430.8	310.957
1433.33	310.8
1435.86	305.513
1438.39	315.443
1440.92	317.168
1443.45	315.85
1445.98	321.346
1448.51	324.676
1451.04	318.976
1453.57	312.98
1456.1	311.049
1458.63	321.916
1461.16	308.24
1463.69	324.528
1466.22	319.034
1468.75	318.662
1471.28	323.784
1473.81	318.815
1476.34	319.442
1478.87	324.277
1481.4	328.086
1483.93	329.203
1486.46	319.89
1488.99	322.485
1491.52	330.395
1494.05	326.495
1496.58	322.41
1499.11	323.081
1501.64	329.352
1504.17	322.088
1506.7	330.618
1509.23	327.921
1511.76	321.778
1514.29	325.333
1516.82	336.281
1519.35	338.436
1521.875	323.895
1524.4	330.164
1526.93	329.752
1529.46	328.023
1531.99	332.681
1534.52	327.529
1537.05	332.554
1539.58	326.783
1542.11	333.013
1544.64	330.753
1547.17	343.373
1549.7	346.944
1552.23	338.045
1554.76	339.102
1557.29	346.969
1559.82	355.848
1562.35	357.171
1564.88	354.983
1567.41	359.407
1569.94	362.778
1572.47	356.286
1575	359.964
1577.53	361.566
1580.06	365.96
1582.59	361.682
1585.12	367.421
1587.65	367.357
1590.18	367.173
1592.71	375.733
1595.24	376.496
1597.77	368.378
1600.3	371.495
1602.83	375.659
1605.36	365.173
1607.89	364.908
1610.42	363.767
1612.95	362.073
1615.48	359.476
1618.01	354.138
1620.54	353.671
1623.07	356.276
1625.6	363.512
1628.125	365.985
1630.65	364.483
1633.18	361.29
1635.71	358.643
1638.24	360.387
1640.77	366.415
1643.3	370.479
1645.83	366.337
1648.36	360.665
1650.89	356.002
1653.42	369.461
1655.95	367.387
1658.48	366.06
1661.01	358.045
1663.54	368.607
1666.07	358.617
1668.6	367.547
1671.13	370.209
1673.66	371.017
1676.19	367.771
1678.72	369.01
1681.25	367.289
1683.78	363.147
1686.31	368.119
1688.84	373.737
1691.37	370.963
1693.9	365.691
1696.43	371.307
1698.96	368.476
1701.49	375.082
1704.02	388.361
1706.55	379.99
1709.08	376.181
1711.61	370.551
1714.14	377.755
1716.67	370.851
1719.2	374.69
1721.73	381.752
1724.26	378.241
1726.79	379.777
1729.32	392.786
1731.85	393.785
1734.375	390.297
1736.9	380.92
1739.43	379.654
1741.96	383.149
1744.49	370.569
1747.02	394.883
1749.55	395.648
1752.08	392.871
1754.61	382.279
1757.14	390.343
1759.67	398.004
1762.2	383.456
1764.73	403.229
1767.26	398.834
1769.79	403.337
1772.32	389.157
1774.85	402.309
1777.38	410.79
1779.91	415.82
1782.44	396.538
1784.97	398.967
1787.5	408.092
1790.03	414.372
1792.56	420.5
1795.09	420.774
1797.62	419.877
1800.15	424.018
1802.68	420.791
1805.21	409.151
1807.74	407.561
1810.27	415.616
1812.8	423.822
1815.33	423.43
1817.86	418.941
1820.39	416.261
1822.92	427.864
1825.45	416.514
1827.98	421.333
1830.51	427.835
1833.04	424.044
1835.57	428.884
1838.1	427.299
1840.625	426.835
1843.15	432.622
1845.68	433.23
1848.21	441.083
1850.74	439.637
1853.27	449.602
1855.8	433.706
1858.33	432.916
1860.86	436.273
1863.39	443.553
1865.92	445.676
1868.45	445.422
1870.98	445.328
1873.51	448.419
1876.04	445.24
1878.57	446.359
1881.1	458.465
1883.63	450.809
1886.16	438.352
1888.69	449.086
1891.22	462.006
1893.75	468.115
1896.28	455.262
1898.81	448.083
1901.34	438
1903.87	453.94
1906.4	454.127
1908.93	465.249
1911.46	459.843
1913.99	458.786
1916.52	457.378
1919.05	457.362
1921.58	459.629
1924.11	468.36
1926.64	471.892
1929.17	482.717
1931.7	467.632
1934.23	469.91
1936.76	484.753
1939.29	472.819
1941.82	462.549
1944.35	468.171
1946.875	472.306
1949.4	488.3
1951.93	496.002
1954.46	471.039
1956.99	478.145
1959.52	479.993
1962.05	486.337
1964.58	482.857
1967.11	477.774
1969.64	492.959
1972.17	482.546
1974.7	483.788
1977.23	498.631
1979.76	491.888
1982.29	491.396
1984.82	496.995
1987.35	494.575
1989.88	489.543
1992.41	494.068
1994.94	498.284
1997.47	495.143
2000	498.455
2002.53	504.303
2005.06	506.995
2007.59	508.921
2010.12	508.379
2012.65	518
2015.18	523.014
2017.71	520.85
2020.24	525.553
2022.77	525.569
2025.3	526.595
2027.83	530.87
2030.36	534.773
2032.89	531.994
2035.42	528.3
2037.95	529.262
2040.48	534.374
2043.01	544.509
2045.54	543.047
2048.07	540.231
2050.6	527.638
2053.125	530.004
2055.65	535.01
2058.18	535.391
2060.71	532.755
2063.24	529.466
2065.77	549.159
2068.3	548.71
2070.83	530.599
2073.36	544.486
2075.89	550.379
2078.42	542.24
2080.95	541.718
2083.48	553.683
2086.01	551.131
2088.54	549.918
2091.07	551.696
2093.6	555.092
2096.13	558.151
2098.66	560.295
2101.19	556.011
2103.72	553.344
2106.25	554.026
2108.78	570.222
2111.31	578.887
2113.84	565.638
2116.37	565.546
2118.9	576.461
2121.43	579.804
2123.96	575.443
2126.49	575.007
2129.02	580.757
2131.55	582.96
2134.08	586.472
2136.61	589.359
2139.14	575.929
2141.67	585.016
2144.2	602.642
2146.73	601.427
2149.26	588.894
2151.79	586.448
2154.32	591.305
2156.85	596.301
2159.375	601.429
2161.9	606.208
2164.43	602.895
2166.96	605.563
2169.49	609.889
2172.02	608.191
2174.55	614.142
2177.08	611.776
2179.61	610.231
2182.14	618.096
2184.67	616.841
2187.2	608.707
2189.73	629.239
2192.26	636.533
2194.79	626.941
2197.32	633.956
2199.85	636.667
2202.38	626.731
2204.91	626.3
2207.44	629.219
2209.97	633.483
2212.5	628.402
2215.03	633.291
2217.56	643.84
2220.09	643.612
2222.62	635.636
2225.15	646.443
2227.68	644.911
2230.21	632.036
2232.74	653.51
2235.27	654.404
2237.8	665.323
2240.33	660.642
2242.86	648.936
2245.39	662.293
2247.92	652.458
2250.45	676.302
2252.98	661.158
2255.51	659.309
2258.04	677.979
2260.57	674.809
2263.1	685.266
2265.625	681.746
2268.15	689.201
2270.68	687.646
2273.21	700.966
2275.74	693.01
2278.27	700.873
2280.8	698.957
2283.33	699.084
2285.86	695.244
2288.39	713.277
2290.92	702.248
2293.45	714.101
2295.98	711.341
2298.51	707.267
2301.04	726.226
2303.57	718.54
2306.1	715.056
2308.63	714.901
2311.16	716.213
2313.69	720.141
2316.22	734.441
2318.75	734.722
2321.28	731.657
2323.81	736.71
2326.34	743.785
2328.87	751.029
2331.4	753.989
2333.93	766.727
2336.46	753.343
2338.99	757.736
2341.52	750.539
2344.05	750.761
2346.58	761.959
2349.11	736.982
2351.64	754.102
2354.17	760.758
2356.7	767.154
2359.23	772.662
2361.76	776.145
2364.29	767.032
2366.82	767.093
2369.35	779.408
2371.875	774.349
2374.4	775.716
2376.93	776.758
2379.46	775.646
2381.99	782.477
2384.52	777.565
2387.05	783.413
2389.58	782.095
2392.11	784.96
2394.64	787.912
2397.17	801.651
2399.7	812.74
2402.23	810.546
2404.76	813.817
2407.29	804.963
2409.82	811.187
2412.35	816.358
2414.88	818.785
2417.41	821.99
2419.94	824.71
2422.47	817.283
2425	825.207
2427.53	843.253
2430.06	845.72
2432.59	850.039
2435.12	854.285
2437.65	868.024
2440.18	871.719
2442.71	867.344
2445.24	871.198
2447.77	887.355
2450.3	880.236
2452.83	870.443
2455.36	871.074
2457.89	870.975
2460.42	868.155
2462.95	886.887
2465.48	868.205
2468.01	877.466
2470.54	868.555
2473.07	881.083
2475.6	880.423
2478.125	879.411
2480.65	886.594
2483.18	885.226
2485.71	878.677
2488.24	887.013
2490.77	880.967
2493.3	892.904
2495.83	897.738
2498.36	896.368
2500.89	905.119
2503.42	905.156
2505.95	903.074
2508.48	909.114
2511.01	914.67
2513.54	914.708
2516.07	907.31
2518.6	924.201
2521.13	936.91
2523.66	927.587
2526.19	928.688
2528.72	930.036
2531.25	923.61
2533.78	941.926
2536.31	953.883
2538.84	929.47
2541.37	943.62
2543.9	959.912
2546.43	946.161
2548.96	967.376
2551.49	968.611
2554.02	968.228
2556.55	966.949
2559.08	967.199
2561.61	975.655
2564.14	978.912
2566.67	971.672
2569.2	971.426
2571.73	979.865
2574.26	990.392
2576.79	998.407
2579.32	993.643
2581.85	996.141
2584.375	993.844
2586.9	984.529
2589.43	987.823
2591.96	992.796
2594.49	1015.13
2597.02	1004.61
2599.55	1018.76
2602.08	1037.74
2604.61	1015.94
2607.14	1018.16
2609.67	1019.57
2612.2	1016.51
2614.73	1025.88
2617.26	1031.3
2619.79	1031.37
2622.32	1032.91
2624.85	1045.39
2627.38	1047.91
2629.91	1057.89
2632.44	1030.12
2634.97	1055.85
2637.5	1032.36
2640.03	1059.24
2642.56	1057.4
2645.09	1065.53
2647.62	1083.67
2650.15	1083.43
2652.68	1074.65
2655.21	1072.83
2657.74	1082.66
2660.27	1094.07
2662.8	1101.17
2665.33	1120.85
2667.86	1107.93
2670.39	1113.7
2672.92	1118.16
2675.45	1103.37
2677.98	1116.73
2680.51	1120.75
2683.04	1125.19
2685.57	1140.58
2688.1	1134.13
2690.625	1141.23
2693.15	1139.86
2695.68	1150.82
2698.21	1155.64
2700.74	1171.72
2703.27	1162.16
2705.8	1176.84
2708.33	1169.91
2710.86	1183.72
2713.39	1167.74
2715.92	1177.4
2718.45	1174.22
2720.98	1181.44
2723.51	1186.36
2726.04	1195.18
2728.57	1210.08
2731.1	1195.75
2733.63	1216.33
2736.16	1209.58
2738.69	1216.13
2741.22	1217.05
2743.75	1230
2746.28	1228.48
2748.81	1235.36
2751.34	1239.25
2753.87	1238.88
2756.4	1220.92
2758.93	1232.42
2761.46	1241.57
2763.99	1240.75
2766.52	1234.95
2769.05	1250.62
2771.58	1259.75
2774.11	1271.27
2776.64	1288.39
2779.17	1271.89
2781.7	1260.35
2784.23	1264.75
2786.76	1254.9
2789.29	1269.8
2791.82	1287.93
2794.35	1320.85
2796.875	1297.23
2799.4	1316.88
2801.93	1303.84
2804.46	1290.73
2806.99	1312.39
2809.52	1309.89
2812.05	1316.92
2814.58	1312.82
2817.11	1320.58
2819.64	1341.54
2822.17	1323.11
2824.7	1339.55
2827.23	1332.85
2829.76	1349.09
2832.29	1358.2
2834.82	1366.19
2837.35	1362.85
2839.88	1356.02
2842.41	1356.74
2844.94	1379.56
2847.47	1383.89
2850	1391.88
2852.53	1388.76
2855.06	1370.64
2857.59	1409.22
2860.12	1397.34
2862.65	1408.99
2865.18	1422.69
2867.71	1416.17
2870.24	1411.14
2872.77	1427.81
2875.3	1455.7
2877.83	1433.08
2880.36	1451.11
2882.89	1451.04
2885.42	1446.11
2887.95	1468.52
2890.48	1460.71
2893.01	1458.73
2895.54	1463.58
2898.07	1481.15
2900.6	1502.03
2903.125	1479.59
2905.65	1492.34
2908.18	1505.83
2910.71	1513.51
2913.24	1528.21
2915.77	1536.55
2918.3	1551.49
2920.83	1550.11
2923.36	1549.55
2925.89	1543.29
2928.42	1562.23
2930.95	1551.04
2933.48	1554.77
2936.01	1578.59
2938.54	1583.04
2941.07	1580.1
2943.6	1570.9
2946.13	1586.54
2948.66	1590.17
2951.19	1589.92
2953.72	1587.3
2956.25	1601.31
2958.78	1617.5
2961.31	1621.97
2963.84	1610.86
2966.37	1623.92
2968.9	1629.54
2971.43	1600
2973.96	1622.76
2976.49	1644.22
2979.02	1643.71
2981.55	1641.81
2984.08	1653.35
2986.61	1642.78
2989.14	1627.41
2991.67	1660.43
2994.2	1656.98
2996.73	1657.46
2999.26	1658.52
3001.79	1682.88
3004.32	1699.04
3006.85	1702.6
3009.375	1682.17
3011.9	1697.83
3014.43	1699.54
3016.96	1720.86
3019.49	1729.91
3022.02	1720.84
3024.55	1729
3027.08	1726.57
3029.61	1743.76
3032.14	1770.38
3034.67	1777.67
3037.2	1801.44
3039.73	1775.23
3042.26	1776.17
3044.79	1784.82
3047.32	1791.68
3049.85	1799.69
3052.38	1805.94
3054.91	1822.58
3057.44	1829.37
3059.97	1835.06
3062.5	1833.42
3065.03	1818.68
3067.56	1833.95
3070.09	1841.82
3072.62	1856.67
3075.15	1866.55
3077.68	1874.09
3080.21	1877.92
3082.74	1885.36
3085.27	1876.23
3087.8	1906.04
3090.33	1894.03
3092.86	1886.08
3095.39	1941.57
3097.92	1926.8
3100.45	1944.56
3102.98	1953.54
3105.51	1924.01
3108.04	1916.53
3110.57	1944.55
3113.1	1953.36
3115.625	1948.42
3118.15	1955.33
3120.68	1957.54
3123.21	1936.35
3125.74	1965.4
3128.27	1945.13
3130.8	1968.82
3133.33	1988.83
3135.86	1999.32
3138.39	2023.4
3140.92	2020.94
3143.45	2013.04
3145.98	2004.82
3148.51	2051.8
3151.04	2025.74
3153.57	2041.73
3156.1	2042.72
3158.63	2052.6
3161.16	2040.25
3163.69	2068.63
3166.22	2041.53
3168.75	2064.47
3171.28	2077.3
3173.81	2093.17
3176.34	2124.02
3178.87	2113.32
3181.4	2122.8
3183.93	2101.43
3186.46	2140.14
3188.99	2136.94
3191.52	2144.04
3194.05	2137.63
3196.58	2167.86
3199.11	2184.84
3201.64	2161.64
3204.17	2180.68
3206.7	2208.55
3209.23	2222.77
3211.76	2242
3214.29	2252.7
3216.82	2233.04
3219.35	2217.9
3221.875	2250.88
3224.4	2275.78
3226.93	2253.52
3229.46	2262.8
3231.99	2305.04
3234.52	2314.79
3237.05	2294.42
3239.58	2292.3
3242.11	2316.86
3244.64	2324.41
3247.17	2310.65
3249.7	2311.46
3252.23	2350.75
3254.76	2358.27
3257.29	2367.91
3259.82	2358.94
3262.35	2373.6
3264.88	2373.62
3267.41	2399.21
3269.94	2402.79
3272.47	2415.52
3275	2389.89
3277.53	2453.44
3280.06	2412.86
3282.59	2416.91
3285.12	2426.3
3287.65	2459.13
3290.18	2473.95
3292.71	2486.12
3295.24	2455.83
3297.77	2486.34
3300.3	2463.06
3302.83	2494.9
3305.36	2510.67
3307.89	2477.28
3310.42	2482.81
3312.95	2487.54
3315.48	2493.61
3318.01	2506.76
3320.54	2517.01
3323.07	2529.22
3325.6	2532.23
3328.125	2554.51
3330.65	2558.05
3333.18	2552.54
3335.71	2525.83
3338.24	2577.84
3340.77	2592.01
3343.3	2608.18
3345.83	2592.82
3348.36	2582.69
3350.89	2627.24
3353.42	2603.09
3355.95	2661.5
3358.48	2636.58
3361.01	2634.93
3363.54	2652.83
3366.07	2629.38
3368.6	2675.53
3371.13	2654.13
3373.66	2677.11
3376.19	2675.45
3378.72	2680.54
3381.25	2689.51
3383.78	2709.81
3386.31	2678.36
3388.84	2709.15
3391.37	2754.67
3393.9	2727.55
3396.43	2765.64
3398.96	2748.01
3401.49	2778.13
3404.02	2807.08
3406.55	2806.58
3409.08	2791.99
3411.61	2789.64
3414.14	2836.14
3416.67	2840.81
3419.2	2815.19
3421.73	2819.74
3424.26	2818.14
3426.79	2866.76
3429.32	2906.29
3431.85	2901.29
3434.375	2910.97
3436.9	2896.64
3439.43	2910.37
3441.96	2928.92
3444.49	2909.29
3447.02	2937.77
3449.55	2949.27
3452.08	2928.01
3454.61	2980.34
3457.14	2974.87
3459.67	2968.73
3462.2	2988.81
3464.73	2972.83
3467.26	3019.97
3469.79	3032.93
3472.32	3006.26
3474.85	3035.25
3477.38	3023.81
3479.91	3042.06
3482.44	3058.27
3484.97	3057.2
3487.5	3058.74
3490.03	3059.24
3492.56	3086.67
3495.09	3094.74
3497.62	3119.66
3500.15	3141.2
3502.68	3105.65
3505.21	3163.78
3507.74	3113.59
3510.27	3138.29
3512.8	3150.54
3515.33	3155.29
3517.86	3169.13
3520.39	3188.26
3522.92	3170.83
3525.45	3186.61
3527.98	3232.44
3530.51	3177.95
3533.04	3203.83
3535.57	3246.39
3538.1	3279.52
3540.625	3258.81
3543.15	3284.39
3545.68	3296.24
3548.21	3280.95
3550.74	3292.58
3553.27	3287.35
3555.8	3322.19
3558.33	3317.79
3560.86	3325.55
3563.39	3359.19
3565.92	3349.87
3568.45	3369.6
3570.98	3388.6
3573.51	3345.72
3576.04	3377.32
3578.57	3435.79
3581.1	3437.28
3583.63	3454.69
3586.16	3459.14
3588.69	3504.25
3591.22	3474.42
3593.75	3491.2
3596.28	3505.71
3598.81	3483.86
3601.34	3528.01
3603.87	3486.02
3606.4	3528.63
3608.93	3529.02
3611.46	3580.32
3613.99	3563.37
3616.52	3561.75
3619.05	3572.01
3621.58	3582.75
3624.11	3572.3
3626.64	3564.96
3629.17	3604.23
3631.7	3637.87
3634.23	3643.36
3636.76	3593.51
3639.29	3629.45
3641.82	3659.6
3644.35	3625.26
3646.875	3645.18
3649.4	3637.27
3651.93	3690.64
3654.46	3704.82
3656.99	3677
3659.52	3696.57
3662.05	3722.52
3664.58	3736.46
3667.11	3754.64
3669.64	3729.31
3672.17	3757.38
3674.7	3785.74
3677.23	3764.22
3679.76	3732.41
3682.29	3752.13
3684.82	3784.93
3687.35	3794.17
3689.88	3836.07
3692.41	3812.05
3694.94	3849.98
3697.47	3852
3700	3865.34