File: Example Data/Raman/CNT - TIM/Raytheon/Al foil/2011/02-28-11/Al - B30 - bottom_1.txt
279.807
303.928
322.521
316.543
340.414
336.488
322.836
337.175
327.662
324.997
324.584
341.127
319.4
318.18
328.46
318.172
316.497
317.68
315.81
333.285
345.551
311.469
312.585
329.039
326.189
309.68
314.842
353.403
342.154
328.064
319.483
315.374
298.585
304.898
303.81
326.437
315.324
306.802
319.915
300.279
323.493
292.14
300.735
282.436
297.79
289.293
274.447
285.286
304.711
277.805
280.755
278.705
284.213
274.616
270.264
273.352
256.883
257.598
275.906
256.851
263.371
264.643
244.621
224.402
265.749
251.192
239.024
242.139
235.35
236.356
222.876
223.811
231.072
227.262
217.257
223.664
232.847
215.151
216.365
215.287
221.51
219.57
198.67
191.225
177.454
197.897
177.347
190.07
193.37
192.417
180.72
186.821
204.099
186.237
163.487
180.971
201.551
163.35
164.556
184.657
179.846
183.345
175.71
166.816
162.288
160.311
176.301
168.428
167.223
148.277
146.332
150.228
152.567
138.703
142.992
145.816
146.002
160.472
130.659
137.801
134.981
136.998
112.195
138.66
133.479
142.711
131.606
148.424
119.435
119.518
117.254
135.574
125.547
128.663
108.692
111.743
126.319
109.361
104.886
131.925
117.28
113.158
111.153
113.518
104.054
118.971
113.066
112.153
101.88
102.864
100.834
89.2619
100.169
105.603
95.6545
93.3824
85.9497
86.2768
81.1339
84.3079
90.679
82.7292
74.1071
77.7993
80.9359
75.6954
65.5906
55.3891
68.0895
74.3385
50.5199
76.4574
47.569
62.9505
56.9792
69.0924
492.164
48.9897
47.0391
43.3197
48.9496
36.5204
43.0885
10.4522
15.4886
22.9217
15.1969
5.55839
10.801
18.9879
17.2238
-2.60482
-7.78725
19.1228
-7.29078
-12.0307
-18.0807
-18.9859
-16.5097
-15.9334
-15.6321
-18.742
-17.0087
-24.9116
-22.2043
-35.254
-28.1993
-18.5676
-20.6165
-28.3042
-20.4175
-35.5222
-26.743
-41.3077
-21.6188
-41.7694
-28.5429
-26.0174
-30.7593
-32.383
-27.0358
-41.9868
-31.8087
-33.039
-37.4516
-36.0543
-25.9825
-28.1636
-48.4692
-33.3514
-34.0027
-27.7007
-31.2916
-30.3214
-45.6261
-48.9547
-49.32
-38.8321
-32.572
-32.0336
-33.4251
-39.1473
-36.9239
-29.0608
-31.0678
-39.5835
-18.4072
-27.3747
-14.998
-21.6393
-17.077
-17.6139
-25.3144
-34.455
-29.5959
-26.3659
-8.53336
-11.0276
-26.464
-21.7918
-23.5399
-18.9659
-14.3956
-20.5825
-26.4109
-15.9811
-28.9645
-39.8051
-25.0903
-17.9522
-29.392
-15.0788
-10.9536
-26.6106
-3.72161
-28.2301
-12.2967
-13.2292
-19.7573
-12.3295
-12.7752
-12.3606
-26.1739
-19.2088
-6.28608
-8.62916
-8.58892
10.5958
-15.8473
-33.2285
-15.3459
-13.1445
-7.46432
-20.1579
-13.2897
-8.5052
9.89597
7.25754
-8.92382
-3.52747
-3.09284
-11.7153
1.40203
-12.1504
-3.41357
-4.41953
-6.99722
3.57704
-0.0625998
-17.9389
-18.1863
-12.5621
-14.0081
3.35022
7.24169
-7.82871
-3.49832
-17.5904
-5.27694
-19.045
-17.3587
-8.76975
0.659231
-6.13724
-7.88227
-21.2683
2.8008
-9.89084
-24.7538
-2.73235
12.3724
10.9085
2.36454
2.82884
-12.8199
-3.53733
4.65232
13.2924
19.0236
28.4905
22.449
16.9938
27.3103
24.6074
30.556
19.9631
23.6952
27.9346
22.4825
19.2982
31.7883
30.6624
32.7398
28.0351
36.2015
40.598
37.5905
51.3391
53.7076
42.3368
48.1553
39.4086
69.7483
37.0017
59.7631
46.8481
54.4321
78.0655
63.0211
47.5786
63.7383
78.852
61.2353
86.2481
72.7129
80.8064
79.5694
75.6995
73.0689
74.4053
70.1789
68.3145
77.8431
77.1093
100.419
108.124
101.194
90.9854
87.5998
95.3896
93.5195
98.7627
80.9483
107.108
89.7172
109.021
98.5809
87.5996
107.979
111.463
123.962
112.776
110.433
121.989
97.487
124.946
137.194
115.288
114.767
122.723
117.588
128.104
122.246
128.006
137.224
126.261
135.699
147.253
141.97
125.703
145.239
144.379
156.319
141.177
123.505
131.158
121.57
128.575
142.826
106.089
129.46
116.268
92.5816
115.02
77.4246
82.4988
93.6817
78.9753
66.7154
84.5035
78.1961
55.3584
69.4314
69.9257
58.7936
68.2173
57.9394
48.3669
65.9571
42.892
36.4347
49.0365
39.7952
41.2347
29.6609
29.2076
19.8696
14.3496
6.29522
20.3522
-7.70376
4.35573
8.80501
14.4883
12.3539
4.51445
11.6623
-0.466159
22.2635
-15.3997
4.18566
18.6605
8.20836
11.8707
-10.2421
2.28671
6.59188
15.8185
8.85102
-3.58268
-15.2674
23.415
4.40061
-0.308749
15.5641
-0.973252
11.9968
11.7424
11.0099
2.73924
-4.7174
14.5195
8.96484
15.9579
-1.14712
8.39506
4.29542
9.63276
-8.9934
4.82646
11.0758
32.9477
13.8645
2.90369
25.0999
19.1115
19.7575
21.6485
21.0132
22.3007
23.2755
36.5849
34.6033
31.9473
27.0775
23.2669
36.0233
20.7685
33.5255
36.2215
45.8868
50.1339
48.7144
37.9879
57.9596
48.7904
41.493
59.8304
55.18
60.2881
52.4969
58.9471
57.5166
59.8061
65.6907
50.403
59.2533
70.5078
59.157
54.7018
71.6223
52.9891
50.9015
57.2623
60.6828
48.7004
61.3695
42.4128
35.9909
18.3405
38.7632
39.3839
21.2612
30.5617
31.9383
46.8054
33.6067
21.1261
29.6919
22.4684
21.7199
28.3219
23.6982
15.8691
36.621
25.3016
-5.23412
21.8913
5.85952
28.6048
14.5524
5.70533
25.821
595.016
22.5721
12.8362
18.8494
19.6384
20.2034
20.9315
10.3926
10.2888
23.4574
14.3061
26.4008
27.4677
47.6934
64.5605
39.8727
19.1698
31.4792
20.8923
35.5588
28.2141
57.8589
55.4196
48.4665
63.6705
55.3754
35.9734
66.5193
79.2864
93.5495
73.9224
83.2842
85.8726
99.9096
101.345
124.712
133.425
135.634
122.571
125.828
132.717
163.076
154.033
178.047
185.781
169.979
192.159
185.547
210.602
190.292
213.438
239.899
203.002
222.347
238.956
209.97
226.374
233.239
225.326
202.563
220.781
249.299
203.327
218.137
218.926
205.969
231.382
230.942
231.584
237.925
186.035
225.791
223.412
230.95
235.79
260.588
244.966
236.391
238.208
249.48
223.643
243.136
261.825
278.612
252.364
264.998
278.819
286.64
271.736
313.949
321.498
313.35
327.092
333.635
365.61
364.464
357.663
381.755
424.812
407.101
426.523
438.379
411.716
447.106
484.757
515.287
514.666
522.15
539.713
544.618
561.617
631.351
633.319
639.762
644.058
598.836
699.305
731.859
775.254
826.563
837.59
807.095
890.272
945.211
945.251
990.044
1065.45
1058.46
1122.46
1200.08
1196.29
1235.15
1293.95
1357.77
1355.96
1449.51
1459.89
1526.21
1565.48
1649.61
1719.89
1731.46
1800.96
1904.24
1928.28
2016.04
2084.02
2186.49
2194.44
2324.86
2323.47
2451.02
2492.25
2608.91
2709.5
2719.48
2800.16
2879.79
2965.08
3002.66
3106.28
3163.53
3192.43
3203.41
3336.57
3310.46
3382.19
3370.54
3444.24
3394.87
3405.01
3420.37
3414.05
3372.86
3297.45
3298.34
3243.59
3175.35
3109.94
3048.18
3011.45
2947.03
2855.07
2808.23
2703.78
2629.46
2548.41
2444.98
2389.04
2318.98
2199.46
2129.01
2056.25
1949.62
1908.62
1767.44
1722.73
1621.74
1587.93
1496.99
1443.76
1331.78
1354.43
1248.48
1233.47
1160.51
1066.55
1039.68
984.717
929.514
880.671
850.643
829.814
779.487
720.88
692.615
668.377
637.096
566.73
546.746
542.523
467.497
446.702
430.117
381.186
423.915
359.881
343.556
306.065
263.593
281.921
230.887
225.508
199.634
207.71
168.889
154.958
144.662
144.733
156.569
131.538
94.332
83.8751
70.0691
38.4796
45.1826
18.5953
43.4443
50.3949
-6.8633
10.4183
4.71116
-44.6583
-42.6353
2.67436
-38.7692
20.3078
10.767
8.94457
22.6602
95.6937
78.3986
99.496
90.4456
105.58
114.213
140.539
132.134
199.49
198.696
222.084
237.277
239.036
260.792
276.758
305.072
292.625
305.311
363.88
380.302
379.293
422.7
420.881
452.52
494.422
497.151
546.139
577.536
597.959
627.593
660.271
694.322
708.841
753.473
843.86
871.253
910.107
940.396
992.529
1033.84
1105.99
1157.28
1219.72
1312.28
1364.61
1478.04
1542.51
1630.7
1710.28
1761.42
1802.67
1861.35
2000.74
2056
2158.26
2249.34
2357.59
2424.53
2565.71
2666.75
2778.54
2886.42
2978.33
3085.96
3152.88
3235.08
3342.51
3414.52
3512.08
3577.5
3580.67
3666.61
3742.96
3717.63
3741.69
3734.11
3763.53
3726.02
3708.64
3672.16
3574.31
3534.83
3471.44
3388.23
3301.2
3215.35
3133.47
2995.41
2856.12
2713.87
2583.67
2474.42
2335.07
2195.64
2051.76
1960.22
1819.75
1726.18
1596.22
1512.06
1432.05
1355.84
1232.6
1159.8
1083.82
978.171
932.273
869.026
804.954
751.04
675.585
640.419
579.33
529.736
480.92
420.438
396.81
353.423
308.252
277.442
250.744
213.823
196.104
173.498
142.171
120.619
105.481
73.5761
67.0032
66.8401
45.2891
35.6756
31.4555
20.0377
4.26307
9.94721
19.7478
-0.894255
1.71841
26.8525
-5.5404
-9.14209
1.83397
13.0396
26.5409
27.9038
8.0415
31.0969
19.8853
3.55836
15.1102
-1.26496
17.6225
24.4539
21.4019
1.33119
11.931
21.4923
6.26489
5.43915
5.49308
11.1331
16.0023
16.1526
31.3872
35.0547
26.135
33.3561
37.2384
27.3981
9.43312
0.978495
22.4012
21.8217
7.25427
7.73406
6.72666
-5.73679
-5.85762
5.78617
-13.3006
-3.46938
-8.0683
-13.7185
-11.4311
-14.5337
-9.89663
-3.6763
-19.5284
-19.9407
-9.76679
-23.6798
-25.6337
-32.2143
-32.5457
-18.6748
-20.9369
-17.3871
-25.8157
-18.0442
-25.8636
-22.9065
-21.8932
-18.4644
-22.4831
-27.1655
-25.1483
-15.5146
-16.573
-16.1868
-27.8868
-22.5577
-16.6761
-13.0758
-23.3764
-13.8843
-18.3687
-9.31741
-11.8881
-0.386588
-17.317
-8.08617
-9.73468
-9.49782
-19.1612
-15.1711
-11.9429
-17.997
-14.1843
-17.3295
-4.51246
-8.54857
-21.2397
-10.9538
-30.9232
-14.2021
-21.9164
-23.6494
-14.4679
-11.6167
-8.97519
-14.5993
-7.91333
-4.94496
-6.34631
-11.5633
-6.17375
-7.11239
-13.6648
-3.46084
-7.9708
8.40928
-9.04172
-2.23359
0.711892
-6.54032
-6.31304
-10.1743
-13.1949
12.8827
-0.973118
9.46339
-6.60659
-19.9415
5.98118
-7.3855
0.712263
0.971956
9.48137
-1.87108
8.65353
13.4828
-4.69153
9.12587
10.495
26.7007
4.21443
14.4619
1.937
13.5911
15.3376
2.92961
11.5606
24.2347
6.98999
17.5771
18.9259
14.773
14.8227
18.496
19.9544
11.8534
15.97
5.08266
17.355
12.2534
29.4646
32.9733
32.3201
20.757
20.6351
29.685
17.419
25.138
24.4645
29.8467
20.2805
30.7515
27.3851
44.254
43.6249
19.7562
30.4893
38.3675
31.0169
55.6819
32.2352
43.0175
41.5463
52.2017
39.6557
49.9411
32.5452
47.0823
53.0539
61.9782
35.5064
34.5629
36.6108
49.998
54.0421
61.0713
45.3007
63.4415
53.0435
62.5544
73.3845