File: Example Data/Raman/CNT - TIM/Raytheon/Al foil/2011/02-28-11/Al - B30 - top_2.txt
310.397
337.101
344.013
351.586
326.876
368.857
359.959
319.412
328.127
356.912
340.814
336.493
355.57
368.48
335.794
356.132
347.661
355.691
352.099
347.127
339.394
337.582
355.282
349.221
351.13
357.857
364.351
363.995
357.135
350.608
347.678
334.007
363.43
361.122
365.505
351.66
337.194
348.945
338.992
342.882
323.649
344.726
367.478
360.318
343.246
338.004
340.78
355.616
346.119
345.202
339.449
328.261
335.807
333.647
326.302
323.063
332.062
325.91
309.465
317.879
295.156
315.995
306.822
301.445
311.321
307.822
304.531
303.704
299.246
289.786
290.794
287.334
317.484
290.225
279.483
275.046
270.243
284.511
285.535
268.195
282.043
289.433
272.378
275.601
270.005
285.07
266.886
270.48
267.669
275.34
273.098
263.835
262.443
258.024
256.493
256.801
260.455
245.157
257.213
264.131
258.157
259.685
254.91
270.401
266.174
245.522
244.557
260.264
261.046
247.445
235.296
248.407
237.608
228.546
249.375
237.372
239.725
238.644
218.076
232.096
232.869
228.713
233.313
230.157
230
223.446
224.766
222.093
222.797
226.528
218.741
234.099
231.309
227.025
228.338
213.647
233.228
213.414
226.5
227.238
212.855
215.944
217.557
222.895
215.987
215.802
217.738
218.396
214.544
206.643
207.273
203.257
195.673
203.722
216.831
196.747
220.409
200.807
201.911
202.319
190.99
176.134
194.785
196.102
205.576
194.189
211.709
188.135
174.161
179.5
175.862
193.381
190.652
185.528
177.256
198.151
186.953
158.103
182.934
167.275
168.589
174.845
137.296
167.491
165.58
153.945
142.057
161.901
136.955
133.499
139.306
133.42
119.22
145.695
139.889
140.444
146.167
126.754
118.534
120.651
118.899
116.843
133.035
141.421
131.951
116.2
114.851
131.767
124.222
107.993
129.481
94.122
120.793
127.313
108.517
123.933
122.615
113.857
131.148
124.72
130.6
135.55
124.189
132.965
122.982
97.4203
127.11
138.831
123.758
135.933
123.235
124.756
125.596
132.216
127.142
142.375
131.244
130.003
130.418
132.64
141.31
127.667
145.913
145.867
152.468
153.067
141.437
152.951
144.799
156.355
143.457
162.763
151.511
155.759
141.025
165.413
156.092
163.252
162.455
145.906
147.339
172.266
145.487
164.764
165.514
174.458
171.097
163.686
165.235
180.678
171.332
166.6
165.876
164.27
192.565
153.602
180.952
172.219
188.386
180.505
200.497
191.495
179.247
175.382
194.804
191.09
207.8
191.23
182.75
203.724
203.114
196.899
205.286
195.645
204.858
191.206
205.077
194.526
202.822
206.244
209.138
218.716
227.896
200.263
214.914
199.75
203.5
230.119
211.277
206.301
226.076
223.325
212.91
207.303
214.298
226.217
220.161
221.688
193.866
215.047
204.368
224.182
232.561
208.661
223.597
219.922
215.026
236.866
216.73
246.475
239.749
237.584
243.524
255.881
242.341
235.679
252.359
246.977
254.15
257.14
258.694
264.66
261.647
262.671
278.24
268.548
280.708
297.997
279.515
276.436
288.739
288.711
288.014
280.859
285.63
289.877
311.794
311.628
308.495
310.027
304.474
332.157
325.201
321.124
319.614
313.008
315.004
308.935
339.211
333.092
345.646
336.123
351.233
338.392
323.927
345.711
346.816
327.982
345.891
348.952
359.698
340.75
352.629
338.082
357.791
349.76
355.039
374.366
370.639
372.192
378.515
371.184
372.247
375.701
390.251
403.117
389.045
397.706
403.755
405.059
399.214
386.126
403.748
408.931
393.663
409.507
385.945
404.006
433.959
430.809
415.558
443.02
420.293
418.775
434.232
423.34
411.827
445.109
433.171
428.706
424.893
443.25
462.385
472.775
441.985
447.176
455.754
422.876
452.105
427.145
434.742
425.157
418.264
444.645
413.634
406.531
401.784
389.746
396.464
409.818
391.83
400.646
388.492
400.157
406.023
384.346
369.47
372.32
384.601
380.823
365.852
367.856
352.554
378.676
353.839
348.052
367.9
357.249
373.382
359.311
358.152
354.396
353.949
355.177
346.064
357.013
350.02
366.965
369.38
361.181
370.817
346.869
356.939
361.504
358.48
377.398
380.049
366.03
362.431
372.502
380.134
373.297
396.306
382.855
370.581
390.688
386.78
404.918
391.918
398.922
399.21
416.419
399.144
416.28
401.606
424.271
431.255
453.394
421.903
459.728
458.723
457.801
467.011
536.209
482.486
497.773
486.116
509.595
513.733
512.928
522.869
537.647
543.355
532.972
558.798
559.527
566.766
585.101
586.282
592.947
608.495
613.411
614.141
629.144
633.363
644.011
654.014
663.124
701.674
676.225
686.16
706.161
697.189
699.085
719.587
736.926
725.507
724.984
746.784
748.346
763.608
763.571
760.268
784.301
760.803
774.925
760.539
771.57
782.938
776.9
805.549
800.381
795.338
773.175
814.52
811.054
824.768
822.536
835.176
824.299
834.388
826.165
841.017
841.555
837.57
862.808
880.345
869.833
872.648
887.271
915.968
923.118
898.718
915.846
924.351
919.682
944.819
921.402
945.897
939.328
954.618
948.152
970.284
979.9375
987.181
995.684
1008.68
1031.96
1024.95
1022.37
1024.36
1067.22
1049.16
1084.95
1063.76
1076.49
1112.5
1086.03
1096.04
1095.4
1116.55
1124.5
1144.58
1151.05
1154.84
1166.74
1189.76
1198.77
1194.44
1189.98
1227.17
1234.73
1250.89
1256.38
1284.68
1311.97
1294.76
1307.13
1340.21
1314.13
1362.26
1351.97
1356.04
1376.33
1393.41
1395.77
1414.1
1419.15
1414.81
1430.86
1426.23
1420.96
1456.62
1468.2
1469.87
1448.39
1473.32
1465.1
1470.23
1470.06
1504.58
1519.25
1484.97
1534.14
1499.37
1531.37
1523.73
1561.51
1563.56
1602.9
1568.7
1595.38
1597.55
1609.27
1631.03
1661.07
1654.68
1646.99
1685.37
1693.5
1699.67
1739.51
1743.23
1769.78
1752.87
1782.24
1777.4
1825.31
1850.62
1845.07
1862.24
1876.89
1882.27
1910.92
1923.59
1972.24
1988.52
1976.75
2012.2
2034.37
2076.57
2095.7
2126.7
2133.04
2178.13
2208.65
2241.33
2273.37
2294.49
2312.88
2335.9
2400.99
2444.99
2419.22
2510.47
2547.95
2560.45
2611.6
2604.32
2673.43
2735.31
2746.26
2814.38
2831.57
2866.86
2956.19
3004.45
3047.42
3104.24
3174.76
3219.9
3286.73
3362.49
3413.82
3483.6
3515.33
3616.42
3702.84
3767.07
3794.86
3918.92
3994.19
4112.05
4131.23
4241.68
4323.81
4416.49
4499.23
4540.8
4642.06
4704.42
4796.32
4887.48
4966.69
4972.87
5080.25
5086.16
5140.16
5161.66
5232.85
5223.41
5243.89
5274.11
5302.07
5248.36
5300.35
5262.05
5194.4
5139.23
5153.02
5132
5064.03
5004.28
4936.17
4907.95
4804.4
4753.38
4675.44
4629.58
4514.28
4410.02
4368.58
4337.66
4227.6
4148.65
4087.96
3981.83
3962.84
3868.67
3825.92
3696.06
3649.12
3643.65
3539.02
3485.88
3427.98
3407.97
3329.62
3290.54
3234.67
3199.75
3152.9
3104.55
3089.58
3027.21
3036.86
2955.27
2929.75
2907.72
2896.13
2851.55
2838.4
2801.51
2778.38
2733.35
2732.39
2711.17
2704.24
2666.98
2629.57
2639.3
2626.11
2607.85
2590.58
2601.69
2592.4
2588.17
2555.25
2513.44
2515.8
2553.37
2551.76
2451.24
2490.91
2473.74
2497.97
2503.19
2493.71
2484.64
2487.26
2478.91
2479.64
2487.74
2460
2480.19
2455.98
2451.61
2447.94
2453.3
2474.53
2456.44
2473.45
2431.24
2464.16
2476.04
2476.57
2438.47
2452.07
2472.83
2492.09
2472.19
2473.57
2459.31
2476.46
2471.63
2499.43
2529.11
2528.63
2503.06
2525.21
2521.39
2546.75
2548.33
2535.97
2544.34
2554.78
2606.88
2595.88
2626.13
2642.14
2645.07
2673.97
2700.3
2714.12
2742.61
2740.69
2801.03
2821.21
2867.77
2887.94
2914.66
2963.27
2989.15
3022.37
3096.21
3105.95
3182.88
3243.64
3306.17
3385.82
3464.76
3519.49
3535.13
3610.98
3667.48
3752.26
3804.85
3878.28
3983.94
4086.21
4117.68
4244.97
4309.45
4408.3
4489.12
4551.8
4625.68
4704.64
4749.62
4765.26
4867.19
4902.06
4947.83
4984.1
5003.62
5013.46
4982.23
5017.94
4967.19
4979.04
4938.09
4884.16
4806.05
4733.94
4631.61
4596.3
4488.54
4399.36
4277.16
4153.07
4031.51
3923.58
3767.65
3667.64
3516.04
3373.87
3240.88
3122.61
3021.88
2883.75
2758.87
2704.41
2581.86
2464.36
2365.77
2273.5
2188
2102.87
2039.91
1926.37
1869.22
1800.52
1725.35
1656.46
1604.28
1519.42
1474.93
1405.97
1379.01
1302.6
1260.28
1209.41
1165.17
1135.12
1067.46
1042.59
999.158
969.276
950.855
917.659
905.099
869.387
836.537
813.631
798.713
773.046
764.025
723.703
722.865
694.812
696.98
680.494
662.478
644.665
647.734
616.43
618.521
604.704
610.483
592.308
577.317
561.874
548.293
559.408
545.538
549.733
531.208
508.564
503.584
498.04
495.586
478.729
497.552
483.975
497.024
470.189
452.309
455.239
459.717
469.439
467.411
458.833
442.736
449.487
446.121
427.35
454.516
435.69
436.326
438.719
441.778
410.347
428.409
429.021
411.356
439.683
410.696
427.929
427.102
412.912
424.005
410.316
402.654
413.13
406.786
409.373
417.641
400.269
420.118
406.541
416.98
398.309
412.528
405.724
391.425
400.346
399.529
419.774
413.642
400.034
403.061
404.813
400.161
415.287
409
395.809
386.914
399.981
375.734
385.632
396.126
404.602
388.618
380.338
402.78
386.31
404.077
402.006
392.881
387.235
387.821
391.732
390.817
387.959
393.602
385.882
394.328
396.23
392.59
397.996
394.969
388.365
396.467
386.955
376.842
399.731
389.944
393.121
385.013
392.84
416.366
384.692
377.791
396.337
384.783
395.234
390.591
390.547
388.26
388.547
408.201
402.064
395.971
383.205
396.081
384.73
376.707
385.417
399.882
389.869
382.499
391.679
386.499
404.975
391.834
372.556
392.271
398.047
372.626
400.471
400.851
397.387
374.387
398.62
382.099
384.378
386.14
403.99
391.166
390.118
394.555
382.89
389.847
384.43
387.277
376.571
382.269
396.324
396.281
372.426
381.528
393.123
389.364
384.323
397.44
399.761
394.461
397.448
387.383
384.041
396.138
401.104
409.576
393.059
396.346
383.036
395.35
390.02
399.265
393.012
392.048
390.81
379.141
402.208
397.889
410.417
406.492
403.426
392.913
396.796
505.957
427.4
394.473
416.169
402.254
414.537
407.119
412.458
402.241
399.333