File: Example Data/Raman/CNT - TIM/Raytheon/Microwave/Test 1/CNT-MW - T1 - 120 sec - top.txt
300	348.764
301.499	364.559
302.997	373.651
304.496	377.664
305.995	378.135
307.493	377.4
308.992	369.878
310.491	356.196
311.99	365.78
313.488	365.291
314.987	375.394
316.486	365.303
317.984	364.198
319.483	364.347
320.982	353.797
322.48	359.13
323.979	372.871
325.478	361.647
326.976	366.673
328.475	349.778
329.974	369.785
331.472	355.109
332.971	366.133
334.47	358.075
335.969	351.999
337.467	351.779
338.966	353.871
340.465	352.547
341.963	350.74
343.462	363.422
344.961	356.457
346.459	351.227
347.958	366.311
349.457	344.208
350.955	348.242
352.454	345.357
353.953	364.25
355.451	349.601
356.95	343.402
358.449	342.726
359.948	348.113
361.446	345.613
362.945	348.75
364.444	339.796
365.942	359.682
367.441	347.615
368.94	337.387
370.438	322.442
371.937	353.879
373.436	338.211
374.934	338.369
376.433	338.905
377.932	332.816
379.431	346.134
380.929	340.225
382.428	333.131
383.927	337.215
385.425	345.417
386.924	334.845
388.423	337.087
389.921	343.297
391.42	335.888
392.919	338.885
394.417	322.333
395.916	326.495
397.415	324.255
398.913	335.78
400.412	322.052
401.911	320.159
403.41	340.371
404.908	341.096
406.407	328.894
407.906	321.109
409.404	324.519
410.903	320.727
412.402	325.569
413.9	325.483
415.399	314.581
416.898	327.969
418.396	333.662
419.895	313.964
421.394	338.27
422.892	313.35
424.391	335.708
425.89	322.678
427.389	330.249
428.887	324.375
430.386	327.573
431.885	319.132
433.383	317.476
434.882	310.634
436.381	324.89
437.879	316.523
439.378	324.838
440.877	322.364
442.375	332.381
443.874	310.456
445.373	320.739
446.871	317.102
448.37	313.284
449.869	304.604
451.368	318.606
452.866	318.443
454.365	305.915
455.864	306.341
457.362	335.129
458.861	314.056
460.36	310.103
461.858	287.704
463.357	323.2
464.856	294.321
466.354	307.962
467.853	309.265
469.352	311.587
470.85	300.5
472.349	302.264
473.848	295.756
475.347	299.787
476.845	308.8
478.344	293.971
479.843	296.514
481.341	302.756
482.84	303.316
484.339	292.477
485.837	285.877
487.336	283.53
488.835	299.583
490.333	279.798
491.832	287.611
493.331	286.859
494.83	263.74
496.328	280.592
497.827	277.725
499.326	285.442
500.824	276.153
502.323	282.512
503.822	278.202
505.32	275.453
506.819	264.271
508.318	262.87
509.816	273.725
511.315	270.771
512.814	274.5
514.3125	272.158
515.811	280.09
517.31	278.067
518.809	275.002
520.307	278.363
521.806	277.407
523.305	268.555
524.803	283.846
526.302	259.138
527.801	271.756
529.299	276.178
530.798	278.469
532.297	281.018
533.795	272.218
535.294	276.263
536.793	267.012
538.292	281.312
539.79	254.43
541.289	284.511
542.788	263.579
544.286	278.445
545.785	273.78
547.284	285.117
548.782	273.38
550.281	265.534
551.78	269.336
553.278	277.447
554.777	284.046
556.276	290.319
557.774	270.565
559.273	280.533
560.772	287.222
562.271	285.163
563.769	286.195
565.268	279.591
566.767	286.185
568.265	294.419
569.764	279.706
571.263	286.681
572.761	287.151
574.26	285.332
575.759	287.269
577.257	286.729
578.756	270.866
580.255	285.046
581.753	280.714
583.252	287.742
584.751	300.572
586.25	286.654
587.748	270.867
589.247	285.331
590.746	273.787
592.244	285.671
593.743	284.269
595.242	287.909
596.74	287.322
598.239	304.497
599.738	293.561
601.236	293.156
602.735	283.755
604.234	285.612
605.732	308.287
607.231	287.601
608.73	290.902
610.229	291.726
611.727	302.627
613.226	287.552
614.725	297.791
616.223	294.474
617.722	290.951
619.221	288.139
620.719	302.061
622.218	294.128
623.717	292.469
625.215	296.195
626.714	302.61
628.213	283.665
629.711	283.704
631.21	298.239
632.709	305.556
634.208	306.168
635.706	301.964
637.205	300.314
638.704	313.05
640.202	303.124
641.701	300.186
643.2	312.45
644.698	305.961
646.197	308.87
647.696	309.697
649.194	301.954
650.693	312.393
652.192	311.443
653.69	302.966
655.189	309.132
656.688	309.934
658.187	295.637
659.685	319.636
661.184	306.937
662.683	312.178
664.181	317.126
665.68	315.783
667.179	310.415
668.677	320.166
670.176	303.696
671.675	314.991
673.173	321.804
674.672	309.764
676.171	298.87
677.67	309.572
679.168	308.005
680.667	316.227
682.166	303.756
683.664	314.003
685.163	305.264
686.662	310.104
688.16	315.686
689.659	307.699
691.158	307.684
692.656	318.248
694.155	303.556
695.654	323.009
697.152	311.219
698.651	310.178
700.15	324.73
701.649	317.11
703.147	316.669
704.646	319.494
706.145	308
707.643	313.606
709.142	312.555
710.641	315.922
712.139	331.417
713.638	315.305
715.137	328.578
716.635	319.733
718.134	313.522
719.633	328.485
721.132	325.257
722.63	323.558
724.129	337.736
725.628	322.014
727.126	335.48
728.625	351.052
730.124	338.297
731.622	336.49
733.121	340.684
734.62	332.62
736.118	336.269
737.617	333.563
739.116	338.961
740.614	343.033
742.113	355.333
743.612	347.616
745.111	352.591
746.609	361.043
748.108	340.55
749.607	355.382
751.105	354.417
752.604	357.149
754.103	361.375
755.601	345.87
757.1	355.622
758.599	352.269
760.097	358.607
761.596	354.95
763.095	353.591
764.594	350.619
766.092	358.219
767.591	360.491
769.09	363.728
770.588	358.42
772.087	348.75
773.586	354.732
775.084	356.911
776.583	357.961
778.082	368.818
779.58	356.111
781.079	366.186
782.578	373.767
784.076	365.767
785.575	367.154
787.074	373.52
788.573	373.703
790.071	384.266
791.57	373.368
793.069	376.408
794.567	373.326
796.066	364.372
797.565	376.492
799.063	371.674
800.562	378.386
802.061	380.156
803.559	380.195
805.058	370.251
806.557	382.247
808.055	372.371
809.554	380.933
811.053	383.737
812.552	393.207
814.05	382.248
815.549	385.155
817.048	378.07
818.546	386.942
820.045	389.132
821.544	391.86
823.042	391.174
824.541	387.038
826.04	393.798
827.538	390.582
829.037	410.966
830.536	393.152
832.034	397.83
833.533	410.541
835.032	391.963
836.531	392.218
838.029	416.754
839.528	412.798
841.027	389.618
842.525	404.142
844.024	412.686
845.523	406.693
847.021	388.523
848.52	408.727
850.019	417.079
851.517	396.713
853.016	397.487
854.515	391.825
856.013	407.327
857.512	388.923
859.011	413.729
860.51	388.216
862.008	385.741
863.507	392.957
865.006	382.195
866.504	385.116
868.003	373.628
869.502	385.12
871	386.727
872.499	372.919
873.998	370.222
875.496	369.302
876.995	368.039
878.494	391.829
879.992	364.021
881.491	373.144
882.99	367.418
884.489	354.248
885.987	369.725
887.486	366.068
888.985	370.007
890.483	351.645
891.982	364.437
893.481	351.244
894.979	358.308
896.478	362.843
897.977	342.851
899.475	357.797
900.974	363.25
902.473	350.735
903.971	357.716
905.47	357.049
906.969	355.128
908.468	354.405
909.966	353.987
911.465	346.626
912.964	344.624
914.462	339.181
915.961	356.32
917.46	339.528
918.958	357.884
920.457	350.016
921.956	360.249
923.454	351.572
924.953	338.239
926.452	352.232
927.951	348.484
929.449	351.502
930.948	348.75
932.447	352.087
933.945	349.196
935.444	345.119
936.943	351.227
938.441	341.467
939.94	349.152
941.439	366.539
942.937	359.275
944.436	354.75
945.935	358.325
947.433	357.999
948.932	349.256
950.431	348.831
951.93	353.145
953.428	360.107
954.927	361.527
956.426	368.958
957.924	357.985
959.423	352.365
960.922	363.269
962.42	357.754
963.919	357.128
965.418	358.943
966.916	359.479
968.415	360.855
969.914	365.265
971.413	347.98
972.911	374.433
974.41	363.28
975.909	358.382
977.407	350.434
978.906	371.692
980.405	388.836
981.903	378.038
983.402	371.972
984.901	384.227
986.399	373.404
987.898	366.991
989.397	387.673
990.895	392.075
992.394	404.62
993.893	392.386
995.392	390.207
996.89	390.911
998.389	391.81
999.888	391.638
1001.39	401.801
1002.88	411.848
1004.38	410.325
1005.88	401.738
1007.38	425.626
1008.88	426.66
1010.38	430.401
1011.88	431.331
1013.38	427.036
1014.87	423.875
1016.37	435.884
1017.87	438.825
1019.37	450.134
1020.87	445.302
1022.37	454.503
1023.87	458.078
1025.37	451.723
1026.86	435.436
1028.36	468.812
1029.86	469.909
1031.36	467.402
1032.86	461.709
1034.36	476.084
1035.86	482.984
1037.35	487.462
1038.85	494.303
1040.35	482.376
1041.85	496.761
1043.35	487.739
1044.85	509.577
1046.35	499.953
1047.85	501.95
1049.34	519.111
1050.84	516.561
1052.34	526.389
1053.84	513.607
1055.34	502.867
1056.84	518.402
1058.34	514.508
1059.84	530.361
1061.33	525.956
1062.83	518.471
1064.33	537.331
1065.83	536.931
1067.33	531.418
1068.83	530.119
1070.33	537.096
1071.82	542.803
1073.32	546.56
1074.82	548.325
1076.32	543.478
1077.82	565.273
1079.32	554.814
1080.82	570.693
1082.32	564.389
1083.81	575.262
1085.31	563.631
1086.81	583.491
1088.31	578.422
1089.81	592.237
1091.31	591.648
1092.81	593.592
1094.3	592.013
1095.8	601.953
1097.3	594.699
1098.8	604.941
1100.3	614.638
1101.8	612.331
1103.3	619.766
1104.8	621.884
1106.29	619.886
1107.79	628.926
1109.29	635.156
1110.79	628.849
1112.29	642.827
1113.79	643.252
1115.29	645.038
1116.79	658.161
1118.28	644.014
1119.78	659.358
1121.28	674.462
1122.78	663.271
1124.28	676.072
1125.78	677.962
1127.28	680.563
1128.77	696.26
1130.27	684.721
1131.77	697.105
1133.27	702.122
1134.77	705.448
1136.27	689.633
1137.77	732.664
1139.27	744.363
1140.76	733.683
1142.26	729.97
1143.76	727.649
1145.26	746.37
1146.76	754.831
1148.26	750.105
1149.76	756.741
1151.26	759.757
1152.75	770.951
1154.25	776.273
1155.75	797.575
1157.25	782.063
1158.75	794.797
1160.25	779.732
1161.75	798.265
1163.24	786.778
1164.74	801.222
1166.24	800.964
1167.74	806.684
1169.24	819.272
1170.74	818.07
1172.24	804.982
1173.74	825.254
1175.23	834.824
1176.73	836.75
1178.23	838.177
1179.73	843.517
1181.23	840.237
1182.73	848.418
1184.23	849.682
1185.72	867.191
1187.22	858.815
1188.72	845.456
1190.22	858.082
1191.72	864.192
1193.22	863.512
1194.72	868.747
1196.22	888.214
1197.71	891.651
1199.21	896.22
1200.71	901.198
1202.21	898.849
1203.71	911.719
1205.21	894.618
1206.71	943.754
1208.21	908.556
1209.7	921.204
1211.2	925.315
1212.7	956.04
1214.2	969.717
1215.7	955.288
1217.2	973.59
1218.7	959.676
1220.19	988.873
1221.69	984.615
1223.19	989.211
1224.69	1014.12
1226.19	998.374
1227.69	1040.13
1229.19	1020.9
1230.69	1044.14
1232.18	1046.67
1233.68	1046.31
1235.18	1066.31
1236.68	1049.73
1238.18	1071.92
1239.68	1087.18
1241.18	1117.29
1242.68	1112.06
1244.17	1156.95
1245.67	1125.95
1247.17	1152.85
1248.67	1153.13
1250.17	1165.33
1251.67	1179.84
1253.17	1183.41
1254.66	1222.34
1256.16	1210.78
1257.66	1254.24
1259.16	1267.58
1260.66	1271.63
1262.16	1292.27
1263.66	1313.56
1265.16	1333.14
1266.65	1322.48
1268.15	1373.88
1269.65	1364.86
1271.15	1391.67
1272.65	1392.78
1274.15	1442.41
1275.65	1475.94
1277.15	1481.3
1278.64	1464.71
1280.14	1488.12
1281.64	1538.92
1283.14	1539.81
1284.64	1599.05
1286.14	1598.49
1287.64	1628.38
1289.13	1645.61
1290.63	1669.44
1292.13	1657.97
1293.63	1727.2
1295.13	1759.21
1296.63	1752.12
1298.13	1797.8
1299.63	1840.53
1301.12	1876.16
1302.62	1889.33
1304.12	1935.06
1305.62	1979.33
1307.12	1990.8
1308.62	2053.62
1310.12	2077.38
1311.61	2087.49
1313.11	2123.33
1314.61	2164.91
1316.11	2188.01
1317.61	2242.39
1319.11	2247.53
1320.61	2273.94
1322.11	2324.89
1323.6	2367.01
1325.1	2394.77
1326.6	2413.94
1328.1	2438.22
1329.6	2452.48
1331.1	2500.78
1332.6	2521.98
1334.1	2485.05
1335.59	2542.44
1337.09	2521.51
1338.59	2545.7
1340.09	2589.38
1341.59	2527.73
1343.09	2545.96
1344.59	2530.61
1346.08	2508.8
1347.58	2500.64
1349.08	2493.77
1350.58	2481.25
1352.08	2462.64
1353.58	2448.98
1355.08	2461.1
1356.58	2444.38
1358.07	2375.02
1359.57	2339.71
1361.07	2331.18
1362.57	2279.52
1364.07	2275.98
1365.57	2226.5
1367.07	2200.97
1368.57	2159.62
1370.06	2143.28
1371.56	2078.98
1373.06	2098.05
1374.56	2038.89
1376.06	2024.61
1377.56	2005.89
1379.06	1965.42
1380.55	1929.78
1382.05	1954.89
1383.55	1894.3
1385.05	1866.95
1386.55	1850.35
1388.05	1831.5
1389.55	1812.96
1391.05	1786.45
1392.54	1739.87
1394.04	1742.4
1395.54	1684.47
1397.04	1700.54
1398.54	1661.62
1400.04	1635.47
1401.54	1618.05
1403.03	1606.44
1404.53	1578.46
1406.03	1573.85
1407.53	1597.16
1409.03	1516.8
1410.53	1513.47
1412.03	1498.22
1413.53	1510.61
1415.02	1475.97
1416.52	1458.01
1418.02	1461.39
1419.52	1437.6
1421.02	1461.15
1422.52	1443.92
1424.02	1437.67
1425.52	1405.48
1427.01	1396.09
1428.51	1400
1430.01	1414.04
1431.51	1419.35
1433.01	1384.33
1434.51	1369.87
1436.01	1373.72
1437.5	1375.3
1439	1356.87
1440.5	1368.69
1442	1358.92
1443.5	1349.53
1445	1335.34
1446.5	1345.26
1448	1327.23
1449.49	1348.44
1450.99	1318.91
1452.49	1327.52
1453.99	1304.9
1455.49	1301.56
1456.99	1312.77
1458.49	1318.85
1459.98	1339.49
1461.48	1315.68
1462.98	1329.17
1464.48	1307.92
1465.98	1314.76
1467.48	1315.03
1468.98	1305.22
1470.48	1298.42
1471.97	1321.12
1473.47	1319.43
1474.97	1323.24
1476.47	1337.24
1477.97	1310.68
1479.47	1299.56
1480.97	1306.57
1482.47	1300.41
1483.96	1304.48
1485.46	1305.37
1486.96	1300.52
1488.46	1315.7
1489.96	1292.12
1491.46	1300.7
1492.96	1346.02
1494.45	1324.93
1495.95	1328.28
1497.45	1302.3
1498.95	1294.97
1500.45	1323.11
1501.95	1301.29
1503.45	1349.23
1504.95	1322.28
1506.44	1299.5
1507.94	1345.15
1509.44	1345.6
1510.94	1351.34
1512.44	1345.91
1513.94	1359.57
1515.44	1349.79
1516.94	1376.92
1518.43	1359.84
1519.93	1369.74
1521.43	1341.61
1522.93	1393.73
1524.43	1423.73
1525.93	1401.8
1527.43	1428.69
1528.92	1407.17
1530.42	1429.06
1531.92	1468.1
1533.42	1465.25
1534.92	1492.02
1536.42	1505.04
1537.92	1503.9
1539.42	1520.36
1540.91	1531.41
1542.41	1560.55
1543.91	1577.57
1545.41	1609.08
1546.91	1674.5
1548.41	1675.66
1549.91	1692.28
1551.41	1724.96
1552.9	1797.89
1554.4	1780.75
1555.9	1820.61
1557.4	1850.84
1558.9	1838.89
1560.4	1877.49
1561.9	1915.96
1563.39	1925.44
1564.89	1962.61
1566.39	2017.41
1567.89	2060.83
1569.39	2099.16
1570.89	2139.08
1572.39	2156.92
1573.89	2200.74
1575.38	2204.2
1576.88	2227.2
1578.38	2263.12
1579.88	2313.58
1581.38	2321.97
1582.88	2355.47
1584.38	2355.04
1585.87	2381.17
1587.37	2417.29
1588.87	2426.74
1590.37	2427.17
1591.87	2381.56
1593.37	2433.27
1594.87	2410
1596.37	2380.76
1597.86	2382.13
1599.36	2369.12
1600.86	2333.63
1602.36	2302.74
1603.86	2278.98
1605.36	2255.84
1606.86	2190.23
1608.36	2162.59
1609.85	2139.59
1611.35	2061.7
1612.85	2047.08
1614.35	1976.23
1615.85	1908.99
1617.35	1841.44
1618.85	1802.08
1620.34	1731.58
1621.84	1657.82
1623.34	1620.31
1624.84	1572.69
1626.34	1508.49
1627.84	1445.08
1629.34	1393.71
1630.84	1352.35
1632.33	1279.52
1633.83	1249.87
1635.33	1187
1636.83	1158.12
1638.33	1117.9
1639.83	1069.84
1641.33	1043.08
1642.83	1006.94
1644.32	958.312
1645.82	935.88
1647.32	903.883
1648.82	875.156
1650.32	852.132
1651.82	843.055
1653.32	778.139
1654.81	759.109
1656.31	740.928
1657.81	720.079
1659.31	688.462
1660.81	667.237
1662.31	655.256
1663.81	634.905
1665.31	624.862
1666.8	585.754
1668.3	571.422
1669.8	557.058
1671.3	550
1672.8	519.706
1674.3	509.481
1675.8	503.369
1677.29	501.225
1678.79	476.578
1680.29	467.611
1681.79	461.115
1683.29	446.893
1684.79	433.355
1686.29	427.807
1687.79	422.089
1689.28	414.887
1690.78	414.783
1692.28	414.528
1693.78	402.404
1695.28	395.953
1696.78	382.966
1698.28	375.235
1699.78	380.192
1701.27	365.054
1702.77	363.093
1704.27	361.437
1705.77	344.622
1707.27	354.082
1708.77	341.447
1710.27	349.979
1711.76	334.123
1713.26	341.735
1714.76	345.747
1716.26	328.219
1717.76	334.621
1719.26	321.921
1720.76	321.477
1722.26	319.045
1723.75	318.567
1725.25	321.034
1726.75	314.279
1728.25	308.253
1729.75	308.891
1731.25	310.046
1732.75	309.981
1734.24	300.483
1735.74	308.699
1737.24	298.082
1738.74	298.449
1740.24	304.197
1741.74	292.764
1743.24	294.186
1744.74	293.705
1746.23	292.596
1747.73	292.731
1749.23	288.845
1750.73	294.455
1752.23	289.377
1753.73	294.358
1755.23	289.247
1756.73	282.403
1758.22	284.714
1759.72	282.233
1761.22	287.919
1762.72	293.929
1764.22	289.852
1765.72	284.56
1767.22	274.456
1768.71	283.301
1770.21	269.914
1771.71	278.789
1773.21	286.817
1774.71	272.995
1776.21	275.402
1777.71	277.552
1779.21	276.015
1780.7	277.244
1782.2	271.257
1783.7	270.992
1785.2	286.489
1786.7	280.773
1788.2	274.458
1789.7	276.573
1791.2	274.531
1792.69	259.233
1794.19	271.926
1795.69	271.204
1797.19	273.062
1798.69	270.484
1800.19	277.228
1801.69	274.28
1803.18	275.661
1804.68	261.816
1806.18	270.578
1807.68	273.721
1809.18	263.726
1810.68	276.137
1812.18	273.765
1813.68	272.508
1815.17	265.058
1816.67	277.729
1818.17	277.143
1819.67	268.388
1821.17	261.793
1822.67	272.6
1824.17	277.357
1825.67	271.005
1827.16	269.469
1828.66	264.415
1830.16	266.648
1831.66	269.379
1833.16	269.303
1834.66	262.261
1836.16	262.798
1837.65	259.942
1839.15	275.001
1840.65	278.224
1842.15	264.834
1843.65	264.382
1845.15	258.872
1846.65	257.696
1848.15	263.5
1849.64	259.939
1851.14	266.073
1852.64	261.404
1854.14	253.419
1855.64	262.683
1857.14	276.252
1858.64	260.217
1860.13	258.324
1861.63	252
1863.13	260.884
1864.63	258.24
1866.13	266.199
1867.63	260.902
1869.13	256.88
1870.63	257.42
1872.12	266.459
1873.62	251.4
1875.12	258.355
1876.62	259.806
1878.12	257.186
1879.62	256.398
1881.12	259.519
1882.62	254.862
1884.11	245.041
1885.61	264.927
1887.11	265.842
1888.61	258.465
1890.11	264.735
1891.61	265.57
1893.11	252.76
1894.6	273.73
1896.1	256.302
1897.6	260.785
1899.1	256.348
1900.6	252.324
1902.1	252.719
1903.6	260.146
1905.1	256.872
1906.59	242.616
1908.09	257.905
1909.59	261.716
1911.09	251.561
1912.59	261.615
1914.09	262.932
1915.59	255.55
1917.09	255.249
1918.58	255.743
1920.08	246.532
1921.58	254.315
1923.08	259.151
1924.58	251.956
1926.08	258.466
1927.58	248.299
1929.07	255.625
1930.57	257.428
1932.07	259.853
1933.57	261.001
1935.07	255.962
1936.57	256.464
1938.07	258.935
1939.57	255.512
1941.06	251.369
1942.56	258.133
1944.06	252.957
1945.56	249.814
1947.06	256.119
1948.56	251.93
1950.06	260.395
1951.55	254.527
1953.05	254.652
1954.55	246.708
1956.05	261.38
1957.55	261.307
1959.05	252.916
1960.55	246.001
1962.05	260.919
1963.54	240.756
1965.04	249.245
1966.54	252.193
1968.04	254.231
1969.54	262.56
1971.04	269.268
1972.54	262.798
1974.04	251.331
1975.53	244.853
1977.03	257.214
1978.53	248.539
1980.03	264.85
1981.53	243.284
1983.03	256.713
1984.53	254.878
1986.02	259.208
1987.52	249.024
1989.02	254.942
1990.52	255.787
1992.02	257.303
1993.52	253.703
1995.02	249.694
1996.52	250.114
1998.01	250.917
1999.51	262.829
2001.01	253.263
2002.51	255.576
2004.01	257.628
2005.51	262.921
2007.01	256.931
2008.51	254.155
2010	252.421
2011.5	260.553
2013	253.202
2014.5	249.368
2016	260.348
2017.5	251.667
2019	258.053
2020.49	258.715
2021.99	249.986
2023.49	263.806
2024.99	257.016
2026.49	253.163
2027.99	258.727
2029.49	255.621
2030.99	269.73
2032.48	255.268
2033.98	248.055
2035.48	251.766
2036.98	259.797
2038.48	263.996
2039.98	256.497
2041.48	258.819
2042.97	253.267
2044.47	247.58
2045.97	260.267
2047.47	263.185
2048.97	262.226
2050.47	266.785
2051.97	258.817
2053.47	255.744
2054.96	254.266
2056.46	255.84
2057.96	245.881
2059.46	250.841
2060.96	252.597
2062.46	249.604
2063.96	250.025
2065.46	255.859
2066.95	259.809
2068.45	250.078
2069.95	253.821
2071.45	247.522
2072.95	253.575
2074.45	258.071
2075.95	252.86
2077.44	262.715
2078.94	248.47
2080.44	255.755
2081.94	255.609
2083.44	258.811
2084.94	249.402
2086.44	253.412
2087.94	249.466
2089.43	250
2090.93	256.41
2092.43	249.652
2093.93	244.258
2095.43	253.336
2096.93	258.942
2098.43	254.091
2099.93	255.339
2101.42	260.987
2102.92	259.549
2104.42	261.418
2105.92	270.44
2107.42	248.375
2108.92	256.977
2110.42	262.729
2111.91	260.854
2113.41	252.136
2114.91	248.578
2116.41	255.912
2117.91	248.88
2119.41	256.319
2120.91	248
2122.41	249.979
2123.9	255.423
2125.4	265.72
2126.9	258.619
2128.4	259.817
2129.9	259.557
2131.4	261.288
2132.9	263.948
2134.4	252.351
2135.89	263.686
2137.39	255.914
2138.89	260.147
2140.39	261.779
2141.89	258.256
2143.39	256.143
2144.89	254.091
2146.38	266.908
2147.88	260.794
2149.38	246.405
2150.88	258.681
2152.38	266.606
2153.88	260.285
2155.38	258.069
2156.88	245.512
2158.37	259.328
2159.87	260.035
2161.37	271.758
2162.87	255.836
2164.37	257.253
2165.87	272.652
2167.37	268.627
2168.86	269.331
2170.36	262.261
2171.86	257.693
2173.36	258.116
2174.86	262.903
2176.36	266.845
2177.86	264.222
2179.36	265.36
2180.85	259.956
2182.35	269.731
2183.85	260.244
2185.35	264.454
2186.85	260.753
2188.35	274.85
2189.85	257.044
2191.34	257.68
2192.84	260.429
2194.34	262.965
2195.84	263.833
2197.34	262.142
2198.84	260.835
2200.34	264.286
2201.84	250.43
2203.33	270.312
2204.83	264.867
2206.33	257.718
2207.83	259.837
2209.33	256.744
2210.83	263.061
2212.33	269.782
2213.83	258.783
2215.32	262.41
2216.82	263.752
2218.32	265.111
2219.82	270.591
2221.32	266.075
2222.82	260.77
2224.32	258.192
2225.81	266.349
2227.31	256.727
2228.81	262.256
2230.31	269.692
2231.81	265.345
2233.31	259.841
2234.81	264.028
2236.31	269.469
2237.8	262.624
2239.3	279.344
2240.8	267.933
2242.3	265.93
2243.8	275.73
2245.3	258.87
2246.8	270.946
2248.3	280.605
2249.79	266.332
2251.29	278.58
2252.79	270.756
2254.29	266.934
2255.79	270.847
2257.29	266.149
2258.79	282.978
2260.28	277.767
2261.78	268.393
2263.28	281.761
2264.78	281.355
2266.28	271.046
2267.78	277.332
2269.28	284.641
2270.78	279.889
2272.27	270.342
2273.77	268.151
2275.27	280.649
2276.77	279.683
2278.27	278.07
2279.77	274.625
2281.27	281.363
2282.77	269.222
2284.26	278.411
2285.76	275.736
2287.26	287.309
2288.76	292.827
2290.26	293.178
2291.76	277.763
2293.26	286.26
2294.75	274.36
2296.25	280.208
2297.75	291.347
2299.25	282.07
2300	288.174