File: Example Data/Raman/CNT - TIM/Raytheon/Microwave/Test 1/CNT-MW - T1 - 060 sec - bottom.txt
300	418.415
301.499	439.001
302.997	468.016
304.496	462.983
305.995	474.044
307.493	454.106
308.992	478.161
310.491	460.285
311.99	457.039
313.488	458.845
314.987	445.745
316.486	444.025
317.984	455.547
319.483	451.505
320.982	452.767
322.48	449.562
323.979	453.168
325.478	456.321
326.976	436.852
328.475	448.178
329.974	443.537
331.472	442.152
332.971	439.101
334.47	453.253
335.969	454.186
337.467	468.073
338.966	450.421
340.465	448.953
341.963	446.599
343.462	444.941
344.961	443.878
346.459	460.194
347.958	446.254
349.457	442.438
350.955	460.396
352.454	443.613
353.953	438.73
355.451	439.932
356.95	438.67
358.449	445.694
359.948	425.775
361.446	445.711
362.945	438.073
364.444	430.415
365.942	418.694
367.441	430.945
368.94	441.023
370.438	428.717
371.937	435.364
373.436	420.911
374.934	424.358
376.433	430
377.932	440.551
379.431	416.269
380.929	423.122
382.428	416.508
383.927	430.191
385.425	414.082
386.924	424.494
388.423	432.634
389.921	421.842
391.42	420.289
392.919	424.068
394.417	412.622
395.916	408.345
397.415	431.895
398.913	428.361
400.412	416.776
401.911	423.931
403.41	425.582
404.908	414.627
406.407	414.925
407.906	419.095
409.404	403.79
410.903	417.365
412.402	422.715
413.9	423.465
415.399	418.039
416.898	416.158
418.396	402.525
419.895	424.393
421.394	401.295
422.892	417.796
424.391	403.438
425.89	419.254
427.389	411.301
428.887	417.584
430.386	412.254
431.885	411.721
433.383	402.722
434.882	412.569
436.381	403.528
437.879	404.22
439.378	399.694
440.877	399.296
442.375	403.513
443.874	407.488
445.373	381.562
446.871	402.551
448.37	416.094
449.869	383.306
451.368	383.072
452.866	388.746
454.365	384.814
455.864	405.802
457.362	387.501
458.861	385.094
460.36	393.23
461.858	378.899
463.357	409.548
464.856	382.32
466.354	398.71
467.853	396.566
469.352	381.435
470.85	380.891
472.349	380.851
473.848	373.543
475.347	369.247
476.845	389.122
478.344	381.395
479.843	381.141
481.341	384.423
482.84	380.396
484.339	371.079
485.837	350.611
487.336	374.547
488.835	366.083
490.333	356.803
491.832	361.635
493.331	359.875
494.83	351.624
496.328	347.389
497.827	362.062
499.326	362.486
500.824	355.174
502.323	347.865
503.822	350.467
505.32	358.73
506.819	356.403
508.318	359.804
509.816	341.518
511.315	347.881
512.814	355.122
514.3125	341.072
515.811	351.448
517.31	352.21
518.809	346.529
520.307	354.782
521.806	349.943
523.305	346.696
524.803	361.092
526.302	353.555
527.801	354.611
529.299	358.606
530.798	353.538
532.297	342.054
533.795	359.604
535.294	346.402
536.793	350.915
538.292	348.152
539.79	344.269
541.289	336.988
542.788	335.777
544.286	353.299
545.785	350.991
547.284	352.187
548.782	348.932
550.281	341.075
551.78	352.991
553.278	352.53
554.777	362.109
556.276	350.246
557.774	354.799
559.273	357.44
560.772	347.883
562.271	356.811
563.769	345.121
565.268	358.359
566.767	364.169
568.265	369.027
569.764	375.956
571.263	358.772
572.761	356.122
574.26	372.124
575.759	358.723
577.257	350.872
578.756	352.913
580.255	357.374
581.753	369.736
583.252	348.107
584.751	359.371
586.25	369.366
587.748	364.15
589.247	358.073
590.746	364.29
592.244	362.843
593.743	354
595.242	360.502
596.74	362.271
598.239	376.476
599.738	361.59
601.236	370.176
602.735	367.262
604.234	368.779
605.732	377.091
607.231	365.683
608.73	363.222
610.229	369.964
611.727	369.203
613.226	373.733
614.725	357.529
616.223	372.528
617.722	373.535
619.221	366.899
620.719	366.255
622.218	374.174
623.717	359.688
625.215	370.93
626.714	363.53
628.213	383.016
629.711	365.894
631.21	371.576
632.709	375.4
634.208	359.411
635.706	376.113
637.205	380.56
638.704	376.612
640.202	372.487
641.701	369.634
643.2	378.405
644.698	379.109
646.197	382.145
647.696	383.901
649.194	388.475
650.693	376.576
652.192	374.477
653.69	378.602
655.189	380.797
656.688	383.695
658.187	385.985
659.685	376.938
661.184	375.023
662.683	382.681
664.181	375.745
665.68	377.702
667.179	372.365
668.677	397.221
670.176	387.5
671.675	383.274
673.173	389.683
674.672	379.702
676.171	370.052
677.67	381.601
679.168	373.622
680.667	378.136
682.166	396.119
683.664	392.281
685.163	378.629
686.662	382.948
688.16	388.5
689.659	392.461
691.158	390.2
692.656	371.95
694.155	376.959
695.654	383.036
697.152	381.398
698.651	386.96
700.15	388.949
701.649	377.692
703.147	397.108
704.646	394.835
706.145	390.756
707.643	374.52
709.142	382.055
710.641	398.642
712.139	395.437
713.638	384.41
715.137	397.855
716.635	395.983
718.134	407.264
719.633	398.366
721.132	395.51
722.63	395.012
724.129	402.174
725.628	401.781
727.126	416.927
728.625	416.697
730.124	408.374
731.622	395.7
733.121	401.817
734.62	408.029
736.118	421.375
737.617	405.489
739.116	413.845
740.614	419.586
742.113	417.419
743.612	417.363
745.111	409.459
746.609	419.526
748.108	426.006
749.607	422.557
751.105	416.246
752.604	413.524
754.103	420.024
755.601	411.912
757.1	408.537
758.599	420.466
760.097	431.447
761.596	427.233
763.095	420.176
764.594	421.901
766.092	424.946
767.591	435.589
769.09	436.297
770.588	432.955
772.087	442.446
773.586	424.854
775.084	430.711
776.583	430.788
778.082	434.657
779.58	439.295
781.079	430.496
782.578	444.822
784.076	435.895
785.575	432.544
787.074	435.272
788.573	441.502
790.071	450.992
791.57	449.595
793.069	432.324
794.567	445.259
796.066	433.892
797.565	443.265
799.063	444.433
800.562	454.502
802.061	455.594
803.559	446.597
805.058	477.198
806.557	445.118
808.055	458.108
809.554	452.296
811.053	466.808
812.552	448.867
814.05	473.406
815.549	453.605
817.048	467.125
818.546	459.822
820.045	453.01
821.544	458.43
823.042	465.894
824.541	450.635
826.04	472.952
827.538	463.565
829.037	472.601
830.536	473.479
832.034	468.107
833.533	462.172
835.032	471.915
836.531	473.416
838.029	466.525
839.528	467.129
841.027	476.463
842.525	470.864
844.024	463.564
845.523	470.642
847.021	473.77
848.52	473.606
850.019	465.177
851.517	467.966
853.016	477.18
854.515	477.261
856.013	466.159
857.512	460.785
859.011	454.239
860.51	455.569
862.008	453.618
863.507	461.764
865.006	461.633
866.504	448.489
868.003	454.122
869.502	443.563
871	452.545
872.499	449.156
873.998	444.555
875.496	449.93
876.995	444.229
878.494	443.292
879.992	441.708
881.491	430.192
882.99	445.019
884.489	440.086
885.987	435.177
887.486	442.137
888.985	436.246
890.483	436.382
891.982	418.127
893.481	434.883
894.979	437.506
896.478	450.157
897.977	430.537
899.475	423.573
900.974	411.35
902.473	417.306
903.971	415.479
905.47	411.921
906.969	424.854
908.468	399.335
909.966	414.77
911.465	407.474
912.964	403.317
914.462	409.949
915.961	418.453
917.46	423.801
918.958	427.05
920.457	404.558
921.956	424.841
923.454	423.033
924.953	408.17
926.452	430.169
927.951	415.855
929.449	426.451
930.948	407.292
932.447	413.216
933.945	416.551
935.444	420.783
936.943	417.148
938.441	416.6
939.94	421
941.439	413.67
942.937	429.142
944.436	420.406
945.935	409.848
947.433	420.499
948.932	417.039
950.431	424.167
951.93	422.36
953.428	421.815
954.927	432.864
956.426	409.94
957.924	434.911
959.423	418.251
960.922	432.424
962.42	431.164
963.919	431.969
965.418	430.365
966.916	420.252
968.415	422.485
969.914	436
971.413	442.182
972.911	421.397
974.41	450.68
975.909	439.415
977.407	431.877
978.906	444.611
980.405	428.981
981.903	444.058
983.402	443.804
984.901	446.912
986.399	454.84
987.898	440.01
989.397	447.33
990.895	445.431
992.394	467.731
993.893	461.115
995.392	460.285
996.89	466.727
998.389	476.733
999.888	485.135
1001.39	479.307
1002.88	476.664
1004.38	485.671
1005.88	483.055
1007.38	483.211
1008.88	496.597
1010.38	487.303
1011.88	504.822
1013.38	489.769
1014.87	503.558
1016.37	511.719
1017.87	506.508
1019.37	518.286
1020.87	508.035
1022.37	527.265
1023.87	516.368
1025.37	523.116
1026.86	530.287
1028.36	539.321
1029.86	539.988
1031.36	541.954
1032.86	562.875
1034.36	544.672
1035.86	539.38
1037.35	568.399
1038.85	571.1
1040.35	567.253
1041.85	551.52
1043.35	573.921
1044.85	572.477
1046.35	561.829
1047.85	583.135
1049.34	595.06
1050.84	576.733
1052.34	590.935
1053.84	569.268
1055.34	587.86
1056.84	581.488
1058.34	592.733
1059.84	607.728
1061.33	583.662
1062.83	591.473
1064.33	592.837
1065.83	619.314
1067.33	606.676
1068.83	624.514
1070.33	610.439
1071.82	618.143
1073.32	617.67
1074.82	620.552
1076.32	628.327
1077.82	647.013
1079.32	617.214
1080.82	628.171
1082.32	648.319
1083.81	636.157
1085.31	654.602
1086.81	647.828
1088.31	667.9
1089.81	650.441
1091.31	667.792
1092.81	659.54
1094.3	679.265
1095.8	674.815
1097.3	676.183
1098.8	675.016
1100.3	683.275
1101.8	686.841
1103.3	691.336
1104.8	705.686
1106.29	690.748
1107.79	719.004
1109.29	706.684
1110.79	718.62
1112.29	719.632
1113.79	722.243
1115.29	741.107
1116.79	713.779
1118.28	743.671
1119.78	747.341
1121.28	752.709
1122.78	745.354
1124.28	761.689
1125.78	765.241
1127.28	779.741
1128.77	790.641
1130.27	790.769
1131.77	805.929
1133.27	806.087
1134.77	822.607
1136.27	820.353
1137.77	840.136
1139.27	828.163
1140.76	842.908
1142.26	863.915
1143.76	863.226
1145.26	879.375
1146.76	861.73
1148.26	888.563
1149.76	877.464
1151.26	893.533
1152.75	902.505
1154.25	903.084
1155.75	926.675
1157.25	934.934
1158.75	942.191
1160.25	927.984
1161.75	963.172
1163.24	940.536
1164.74	961.888
1166.24	965.651
1167.74	934.06
1169.24	955.148
1170.74	970.363
1172.24	982.687
1173.74	975.398
1175.23	993.027
1176.73	982.976
1178.23	999.84
1179.73	1004.82
1181.23	1001.41
1182.73	1007.29
1184.23	1025.76
1185.72	1013.56
1187.22	1016.02
1188.72	1001.17
1190.22	1040.44
1191.72	1026.4
1193.22	1037.49
1194.72	1059.7
1196.22	1061.94
1197.71	1059.27
1199.21	1072.83
1200.71	1058.49
1202.21	1087.87
1203.71	1096
1205.21	1075.16
1206.71	1085.95
1208.21	1093.16
1209.7	1128.91
1211.2	1114.46
1212.7	1140.55
1214.2	1117.55
1215.7	1116.5
1217.2	1151.12
1218.7	1165.44
1220.19	1164.09
1221.69	1194.33
1223.19	1185.55
1224.69	1174.11
1226.19	1195.49
1227.69	1208.8
1229.19	1218.83
1230.69	1241.38
1232.18	1258.74
1233.68	1281.44
1235.18	1255.68
1236.68	1302.42
1238.18	1300.41
1239.68	1283.95
1241.18	1314.65
1242.68	1314.93
1244.17	1333.89
1245.67	1334.87
1247.17	1371.34
1248.67	1395.94
1250.17	1382.62
1251.67	1444.31
1253.17	1414.65
1254.66	1429.75
1256.16	1442.42
1257.66	1445.87
1259.16	1484.38
1260.66	1485.05
1262.16	1519.88
1263.66	1539.37
1265.16	1528.81
1266.65	1555.78
1268.15	1559.49
1269.65	1607.53
1271.15	1626.94
1272.65	1613.23
1274.15	1695.8
1275.65	1652.4
1277.15	1728.25
1278.64	1701.64
1280.14	1739.74
1281.64	1761.46
1283.14	1812.07
1284.64	1820.03
1286.14	1846.51
1287.64	1849.99
1289.13	1917.6
1290.63	1913.43
1292.13	1953.57
1293.63	1956.06
1295.13	2013.08
1296.63	2008.23
1298.13	2062.43
1299.63	2107.15
1301.12	2139.06
1302.62	2134.46
1304.12	2166.62
1305.62	2213.88
1307.12	2247.15
1308.62	2278.44
1310.12	2304.44
1311.61	2348.94
1313.11	2356.15
1314.61	2410.85
1316.11	2434.2
1317.61	2444.96
1319.11	2462.03
1320.61	2506
1322.11	2529.44
1323.6	2544.47
1325.1	2596.51
1326.6	2599.75
1328.1	2606.78
1329.6	2616.23
1331.1	2647.64
1332.6	2657.94
1334.1	2651.93
1335.59	2680.67
1337.09	2611.05
1338.59	2701.77
1340.09	2692.25
1341.59	2667.25
1343.09	2661.88
1344.59	2662.29
1346.08	2671.55
1347.58	2597.7
1349.08	2641.8
1350.58	2574.2
1352.08	2601.97
1353.58	2599.68
1355.08	2535.91
1356.58	2539.87
1358.07	2488.06
1359.57	2451.58
1361.07	2418.23
1362.57	2461.22
1364.07	2416.87
1365.57	2361.1
1367.07	2353.57
1368.57	2363.59
1370.06	2311.54
1371.56	2273.57
1373.06	2282.82
1374.56	2235.9
1376.06	2203.04
1377.56	2173.22
1379.06	2156.55
1380.55	2123.51
1382.05	2099.87
1383.55	2073.59
1385.05	2069.7
1386.55	2034.74
1388.05	2047.03
1389.55	1973.11
1391.05	1952.54
1392.54	1939.2
1394.04	1914.96
1395.54	1901.52
1397.04	1858.03
1398.54	1817.44
1400.04	1818.53
1401.54	1807.99
1403.03	1778.9
1404.53	1791.65
1406.03	1774.03
1407.53	1770.9
1409.03	1733.86
1410.53	1705.06
1412.03	1723.99
1413.53	1670.57
1415.02	1696.25
1416.52	1650.39
1418.02	1632.83
1419.52	1643.96
1421.02	1605.15
1422.52	1636.74
1424.02	1627.58
1425.52	1603.39
1427.01	1586.27
1428.51	1572
1430.01	1574.2
1431.51	1552.66
1433.01	1537.19
1434.51	1539.93
1436.01	1557.25
1437.5	1523.83
1439	1550.51
1440.5	1550.91
1442	1497.29
1443.5	1515.45
1445	1500.12
1446.5	1535.03
1448	1485.31
1449.49	1490.85
1450.99	1490.06
1452.49	1512.1
1453.99	1486.06
1455.49	1470.25
1456.99	1458.24
1458.49	1483.85
1459.98	1470.11
1461.48	1479.34
1462.98	1492.52
1464.48	1474.91
1465.98	1473.03
1467.48	1485.79
1468.98	1477.98
1470.48	1480.23
1471.97	1468.7
1473.47	1472.43
1474.97	1456.04
1476.47	1474.96
1477.97	1447.34
1479.47	1461.84
1480.97	1450.98
1482.47	1478.38
1483.96	1472.81
1485.46	1451.81
1486.96	1455.84
1488.46	1472.9
1489.96	1461.9
1491.46	1464.58
1492.96	1436.12
1494.45	1471.13
1495.95	1451.21
1497.45	1474.03
1498.95	1474.48
1500.45	1469.43
1501.95	1460.92
1503.45	1479.15
1504.95	1460.23
1506.44	1488.39
1507.94	1482.15
1509.44	1479.29
1510.94	1476.4
1512.44	1484.85
1513.94	1504.76
1515.44	1476.78
1516.94	1503.3
1518.43	1506.32
1519.93	1491.79
1521.43	1479.47
1522.93	1524.88
1524.43	1543.72
1525.93	1561.3
1527.43	1562.12
1528.92	1552.85
1530.42	1558.75
1531.92	1591.19
1533.42	1588.12
1534.92	1588.45
1536.42	1592.37
1537.92	1629.67
1539.42	1660.88
1540.91	1654.66
1542.41	1694.11
1543.91	1719.67
1545.41	1759.18
1546.91	1761.65
1548.41	1798.79
1549.91	1809.57
1551.41	1832.08
1552.9	1846.59
1554.4	1922.02
1555.9	1949.22
1557.4	1941.41
1558.9	1951.22
1560.4	1999.48
1561.9	2053.47
1563.39	2055.92
1564.89	2153.54
1566.39	2204.81
1567.89	2212.27
1569.39	2229.4
1570.89	2284.83
1572.39	2305.41
1573.89	2369.5
1575.38	2373.41
1576.88	2431.46
1578.38	2475.14
1579.88	2531.05
1581.38	2540.32
1582.88	2586.31
1584.38	2602.87
1585.87	2633.34
1587.37	2701.95
1588.87	2670.44
1590.37	2683.62
1591.87	2707.22
1593.37	2718.55
1594.87	2744.38
1596.37	2690.32
1597.86	2712.51
1599.36	2683
1600.86	2691.16
1602.36	2629.5
1603.86	2600.78
1605.36	2564.01
1606.86	2509.25
1608.36	2438.29
1609.85	2419.16
1611.35	2349.96
1612.85	2305.36
1614.35	2217.36
1615.85	2119.21
1617.35	2070.85
1618.85	1993.95
1620.34	1898.84
1621.84	1835.17
1623.34	1766.41
1624.84	1675.04
1626.34	1625.81
1627.84	1579.77
1629.34	1514.79
1630.84	1450.06
1632.33	1411.97
1633.83	1342.12
1635.33	1303.64
1636.83	1254.7
1638.33	1224.99
1639.83	1193.06
1641.33	1142.38
1642.83	1105.51
1644.32	1085.4
1645.82	1031.6
1647.32	1001.7
1648.82	973.925
1650.32	941.469
1651.82	926.17
1653.32	901.175
1654.81	850.135
1656.31	832.509
1657.81	808.546
1659.31	778.929
1660.81	766.392
1662.31	744.848
1663.81	729.888
1665.31	706.976
1666.8	678.853
1668.3	649.344
1669.8	651.395
1671.3	643.946
1672.8	608.282
1674.3	599.238
1675.8	584.209
1677.29	582.233
1678.79	545.691
1680.29	526.056
1681.79	540.112
1683.29	524.522
1684.79	510.952
1686.29	509.988
1687.79	510.717
1689.28	490.589
1690.78	477.779
1692.28	480.819
1693.78	469.173
1695.28	467.11
1696.78	471.399
1698.28	465.69
1699.78	446.223
1701.27	442.644
1702.77	450.913
1704.27	435.007
1705.77	433.145
1707.27	432.256
1708.77	424.315
1710.27	431.845
1711.76	410.786
1713.26	421.729
1714.76	412.445
1716.26	409.855
1717.76	403.36
1719.26	399.374
1720.76	403.156
1722.26	401.613
1723.75	390.357
1725.25	395.034
1726.75	389.096
1728.25	388.347
1729.75	376.26
1731.25	379.173
1732.75	384.359
1734.24	379.186
1735.74	374.692
1737.24	368.789
1738.74	369.023
1740.24	362.635
1741.74	374.883
1743.24	369.517
1744.74	371.479
1746.23	361.184
1747.73	359.494
1749.23	359.523
1750.73	364.929
1752.23	354.099
1753.73	358.614
1755.23	360.212
1756.73	361.127
1758.22	358.846
1759.72	350.684
1761.22	345.529
1762.72	351.835
1764.22	349.551
1765.72	347.108
1767.22	344.269
1768.71	347.137
1770.21	343.027
1771.71	339.952
1773.21	339.429
1774.71	342.721
1776.21	337.503
1777.71	342.207
1779.21	340.233
1780.7	337.199
1782.2	335.924
1783.7	339.029
1785.2	338.242
1786.7	342.628
1788.2	337.187
1789.7	337.09
1791.2	337.318
1792.69	339.417
1794.19	346.184
1795.69	339.844
1797.19	324.789
1798.69	333.334
1800.19	339.348
1801.69	335.229
1803.18	334.993
1804.68	333.097
1806.18	334.888
1807.68	335.056
1809.18	334.28
1810.68	323.691
1812.18	338.116
1813.68	334.933
1815.17	333.032
1816.67	326.937
1818.17	335.116
1819.67	318.69
1821.17	338.912
1822.67	333.305
1824.17	324.613
1825.67	329.913
1827.16	322.078
1828.66	321.88
1830.16	324.458
1831.66	318.906
1833.16	331.216
1834.66	323.665
1836.16	321.96
1837.65	319.195
1839.15	324.92
1840.65	318.156
1842.15	321.593
1843.65	312.085
1845.15	314.792
1846.65	315.088
1848.15	324.768
1849.64	322.003
1851.14	318.937
1852.64	319.51
1854.14	325.265
1855.64	313.463
1857.14	321.432
1858.64	327.023
1860.13	316.867
1861.63	319.249
1863.13	317.956
1864.63	313.971
1866.13	316.809
1867.63	310.116
1869.13	315.26
1870.63	305.96
1872.12	330.266
1873.62	317.859
1875.12	311.806
1876.62	311.1
1878.12	314.187
1879.62	311.155
1881.12	312.918
1882.62	326.98
1884.11	325.342
1885.61	308.615
1887.11	322.692
1888.61	311.896
1890.11	306.729
1891.61	309.721
1893.11	306.145
1894.6	316.51
1896.1	314.203
1897.6	308.457
1899.1	309.572
1900.6	316.872
1902.1	306.371
1903.6	291.745
1905.1	309.634
1906.59	310.174
1908.09	319.633
1909.59	311.728
1911.09	296.172
1912.59	307.76
1914.09	313.929
1915.59	300.874
1917.09	299.727
1918.58	302.879
1920.08	297.313
1921.58	299.87
1923.08	309.268
1924.58	314.613
1926.08	310.469
1927.58	303.747
1929.07	316.566
1930.57	316.282
1932.07	308.504
1933.57	305.535
1935.07	301.397
1936.57	301.088
1938.07	293.424
1939.57	303.212
1941.06	302.906
1942.56	308.791
1944.06	310.625
1945.56	305.101
1947.06	312.482
1948.56	302.378
1950.06	308.014
1951.55	303.204
1953.05	303.396
1954.55	296.305
1956.05	291.726
1957.55	303.093
1959.05	297.447
1960.55	303.036
1962.05	309.696
1963.54	291.299
1965.04	312.372
1966.54	300.785
1968.04	303.122
1969.54	310.335
1971.04	298.22
1972.54	294.952
1974.04	288.338
1975.53	305.652
1977.03	297.492
1978.53	312.532
1980.03	305.388
1981.53	306.404
1983.03	297.768
1984.53	299.983
1986.02	314.938
1987.52	305.511
1989.02	298.796
1990.52	296.685
1992.02	305.241
1993.52	307.45
1995.02	311.112
1996.52	304.538
1998.01	321.342
1999.51	301.814
2001.01	302.458
2002.51	296.048
2004.01	307.738
2005.51	298.667
2007.01	310.484
2008.51	296.562
2010	301.598
2011.5	304.87
2013	298.783
2014.5	300.707
2016	301.475
2017.5	302.284
2019	307.519
2020.49	308.678
2021.99	297.999
2023.49	310.88
2024.99	305.922
2026.49	322.525
2027.99	301.54
2029.49	318.957
2030.99	304.319
2032.48	308.491
2033.98	307.019
2035.48	305.717
2036.98	304.942
2038.48	296.448
2039.98	294.977
2041.48	302.498
2042.97	304.026
2044.47	301.468
2045.97	302.551
2047.47	311.546
2048.97	297.009
2050.47	304.988
2051.97	306.582
2053.47	311.233
2054.96	298.258
2056.46	297.243
2057.96	316.769
2059.46	292.357
2060.96	313.158
2062.46	306.385
2063.96	303.811
2065.46	317.915
2066.95	305.934
2068.45	302.872
2069.95	293.792
2071.45	302.837
2072.95	300.205
2074.45	299
2075.95	295.609
2077.44	291.567
2078.94	290.224
2080.44	305.082
2081.94	299.205
2083.44	302.27
2084.94	308.092
2086.44	300.724
2087.94	311.452
2089.43	300.126
2090.93	302.678
2092.43	309.233
2093.93	290.384
2095.43	301.586
2096.93	291.297
2098.43	298.966
2099.93	311.232
2101.42	290.597
2102.92	307.014
2104.42	306.113
2105.92	295.482
2107.42	297.635
2108.92	296.551
2110.42	308.946
2111.91	299.662
2113.41	305.378
2114.91	295.802
2116.41	301.54
2117.91	299.199
2119.41	303.666
2120.91	294.986
2122.41	304.069
2123.9	292.514
2125.4	311.535
2126.9	290.67
2128.4	297.222
2129.9	300.422
2131.4	300.337
2132.9	300.275
2134.4	305.616
2135.89	309.809
2137.39	306.005
2138.89	307.193
2140.39	308.056
2141.89	304.053
2143.39	314.086
2144.89	295.546
2146.38	293.159
2147.88	305.997
2149.38	300.164
2150.88	307.569
2152.38	308.098
2153.88	314.984
2155.38	308.647
2156.88	310.74
2158.37	303.871
2159.87	294.494
2161.37	302.333
2162.87	305.106
2164.37	305.886
2165.87	312.345
2167.37	315.582
2168.86	307.339
2170.36	307.62
2171.86	309.167
2173.36	310.003
2174.86	309.888
2176.36	311.243
2177.86	311.995
2179.36	317.539
2180.85	300.717
2182.35	302.731
2183.85	295.799
2185.35	312.603
2186.85	294.518
2188.35	310.554
2189.85	315.549
2191.34	309.163
2192.84	318.828
2194.34	311.677
2195.84	298.892
2197.34	303.806
2198.84	312.094
2200.34	305.268
2201.84	302.188
2203.33	312.626
2204.83	306.229
2206.33	303.22
2207.83	305.961
2209.33	307.91
2210.83	309.709
2212.33	306.455
2213.83	318.364
2215.32	305.115
2216.82	309.7
2218.32	302.813
2219.82	314.017
2221.32	321.54
2222.82	307.077
2224.32	315.093
2225.81	315.426
2227.31	307.663
2228.81	310.595
2230.31	315.83
2231.81	306.257
2233.31	310.318
2234.81	320.557
2236.31	312.505
2237.8	312.113
2239.3	315.337
2240.8	314.483
2242.3	302.957
2243.8	320.571
2245.3	322.466
2246.8	309.571
2248.3	315.13
2249.79	317.856
2251.29	315.636
2252.79	306.123
2254.29	315.839
2255.79	317.975
2257.29	324.348
2258.79	321.455
2260.28	322.655
2261.78	314.248
2263.28	315.469
2264.78	332.584
2266.28	320.526
2267.78	314.566
2269.28	325.657
2270.78	319.868
2272.27	326.911
2273.77	324.156
2275.27	329.248
2276.77	319.285
2278.27	324.391
2279.77	327.287
2281.27	321.494
2282.77	316.61
2284.26	313.027
2285.76	338.794
2287.26	323.092
2288.76	333.924
2290.26	322.599
2291.76	327.037
2293.26	328.867
2294.75	328.857
2296.25	326.169
2297.75	336.167
2299.25	331.169
2300	329.474