File: Example Data/Raman/CNT - TIM/Raytheon/Microwave/Test 1/CNT-MW - T1 - 120 sec - bottom.txt
300	390.122
301.499	402.927
302.997	425.58
304.496	418.864
305.995	415.009
307.493	410.9
308.992	426.285
310.491	412.85
311.99	396.338
313.488	404.105
314.987	415.519
316.486	401.546
317.984	405.664
319.483	395.085
320.982	404.674
322.48	393.87
323.979	411.995
325.478	402.16
326.976	399.929
328.475	401.069
329.974	410.177
331.472	410.228
332.971	406.36
334.47	396.075
335.969	393.063
337.467	400.163
338.966	401.775
340.465	397.007
341.963	387.031
343.462	396.626
344.961	399.543
346.459	386.093
347.958	398.404
349.457	399.94
350.955	404.453
352.454	393.695
353.953	393.5
355.451	388.549
356.95	387.965
358.449	391.758
359.948	398.767
361.446	391.64
362.945	381.004
364.444	384.372
365.942	378.323
367.441	372.573
368.94	386.217
370.438	380.985
371.937	372.115
373.436	377.872
374.934	374.007
376.433	365.448
377.932	369.293
379.431	374.907
380.929	368.95
382.428	366.627
383.927	369.932
385.425	374.136
386.924	360.89
388.423	371.47
389.921	370.169
391.42	364.411
392.919	376.957
394.417	366.878
395.916	362.591
397.415	370.195
398.913	360.93
400.412	359.141
401.911	370.231
403.41	370.671
404.908	360.804
406.407	362.769
407.906	363.048
409.404	354.614
410.903	352.537
412.402	364.681
413.9	357.491
415.399	345.993
416.898	378.313
418.396	355.2
419.895	344.372
421.394	364.78
422.892	361.221
424.391	358.107
425.89	366.436
427.389	363.368
428.887	372.66
430.386	354.482
431.885	354.287
433.383	363.895
434.882	364.363
436.381	354.444
437.879	358.545
439.378	345.049
440.877	347.114
442.375	353.838
443.874	337.145
445.373	350.239
446.871	349.601
448.37	350.624
449.869	352.298
451.368	348.605
452.866	350.453
454.365	352.614
455.864	349.221
457.362	357.771
458.861	364.327
460.36	341.179
461.858	343.172
463.357	347.41
464.856	358.532
466.354	327.234
467.853	341.099
469.352	343.359
470.85	342.306
472.349	329.508
473.848	330.155
475.347	325.262
476.845	328.393
478.344	324.2
479.843	324.776
481.341	329.987
482.84	328.984
484.339	318.905
485.837	322.743
487.336	318.157
488.835	317.192
490.333	320.697
491.832	315.508
493.331	318.773
494.83	314.941
496.328	308.148
497.827	313.051
499.326	304.212
500.824	315.151
502.323	301.77
503.822	307.535
505.32	297.26
506.819	296.837
508.318	298.756
509.816	308.383
511.315	297.041
512.814	299.494
514.3125	315.686
515.811	301.272
517.31	309.823
518.809	303.473
520.307	300.798
521.806	301.264
523.305	300.915
524.803	298.826
526.302	312.8
527.801	302.838
529.299	302.485
530.798	300.605
532.297	309.143
533.795	303.345
535.294	325.816
536.793	308.842
538.292	305.509
539.79	298.847
541.289	320.202
542.788	304.548
544.286	300.58
545.785	309.327
547.284	307.08
548.782	323.133
550.281	308.759
551.78	305.095
553.278	298.796
554.777	292.827
556.276	308.504
557.774	312.998
559.273	302.768
560.772	297.135
562.271	307.163
563.769	320.566
565.268	316.728
566.767	311.438
568.265	312.449
569.764	320.038
571.263	307.518
572.761	310.547
574.26	310.663
575.759	294.663
577.257	309.527
578.756	304.98
580.255	316.43
581.753	304.291
583.252	325.223
584.751	318.247
586.25	331.75
587.748	307.092
589.247	318.234
590.746	329.51
592.244	306.118
593.743	313.924
595.242	315.831
596.74	316.048
598.239	298.904
599.738	328.829
601.236	318.242
602.735	319.277
604.234	320.784
605.732	312.533
607.231	311.246
608.73	307.895
610.229	312.012
611.727	315.429
613.226	327.577
614.725	320.849
616.223	313.722
617.722	320.299
619.221	323.663
620.719	327.694
622.218	322.525
623.717	336.131
625.215	322.93
626.714	319.294
628.213	332.818
629.711	330.027
631.21	328.285
632.709	319.157
634.208	327.063
635.706	315.473
637.205	326.13
638.704	325.462
640.202	331.859
641.701	329.279
643.2	336.5
644.698	340.395
646.197	340.274
647.696	337.546
649.194	330.938
650.693	344.145
652.192	338.542
653.69	341.198
655.189	332.311
656.688	334.254
658.187	337.583
659.685	335.544
661.184	336.052
662.683	336.548
664.181	335.246
665.68	337.296
667.179	353.438
668.677	349.11
670.176	353.263
671.675	345.913
673.173	347.062
674.672	328.688
676.171	348.036
677.67	342.023
679.168	341.502
680.667	342.755
682.166	355.291
683.664	329.773
685.163	330.871
686.662	335.945
688.16	340.778
689.659	328.092
691.158	335.85
692.656	352.855
694.155	345.1
695.654	343.518
697.152	355.098
698.651	340.16
700.15	340.5
701.649	343.842
703.147	358.358
704.646	341.89
706.145	354.442
707.643	356.289
709.142	358.45
710.641	357.55
712.139	353.856
713.638	350.207
715.137	354.292
716.635	364.748
718.134	361.905
719.633	344.892
721.132	370.216
722.63	355.072
724.129	372.785
725.628	348.537
727.126	357.595
728.625	365.881
730.124	363.214
731.622	373.399
733.121	364.99
734.62	361.085
736.118	345.051
737.617	376.58
739.116	367.799
740.614	372.776
742.113	362.723
743.612	380.038
745.111	364.862
746.609	363.884
748.108	365.146
749.607	370.719
751.105	376.1
752.604	371.913
754.103	389.747
755.601	374.957
757.1	388.129
758.599	379.418
760.097	377.2
761.596	378.943
763.095	385.468
764.594	376.544
766.092	381.681
767.591	390.348
769.09	386.673
770.588	388.946
772.087	387.649
773.586	385.947
775.084	396.579
776.583	385.539
778.082	402.319
779.58	391.22
781.079	397.638
782.578	399.75
784.076	391.043
785.575	393.663
787.074	404.32
788.573	407.137
790.071	402.702
791.57	403.338
793.069	391.772
794.567	382.524
796.066	397.434
797.565	412.756
799.063	403.086
800.562	398.875
802.061	407.25
803.559	401.467
805.058	413.464
806.557	409.213
808.055	401.91
809.554	410.081
811.053	417.698
812.552	416.589
814.05	407.054
815.549	412.05
817.048	425.574
818.546	423.695
820.045	419.251
821.544	412.92
823.042	421.55
824.541	415.439
826.04	418.798
827.538	414.456
829.037	414.203
830.536	415.825
832.034	427.18
833.533	427.08
835.032	437.575
836.531	414.781
838.029	423.704
839.528	438.545
841.027	427.323
842.525	424.84
844.024	425.279
845.523	415.208
847.021	423.452
848.52	408.965
850.019	444.911
851.517	418.216
853.016	427.846
854.515	433.603
856.013	436.553
857.512	416.575
859.011	431.908
860.51	425.904
862.008	415.457
863.507	406.074
865.006	414.181
866.504	427.908
868.003	398.16
869.502	403.96
871	396.523
872.499	407.627
873.998	398.555
875.496	394.96
876.995	402.249
878.494	408.827
879.992	394.3
881.491	399.9
882.99	381.592
884.489	389.88
885.987	383.85
887.486	388.356
888.985	389.816
890.483	381.54
891.982	396.528
893.481	385.339
894.979	392.336
896.478	394.45
897.977	384.944
899.475	380.893
900.974	385.976
902.473	376.476
903.971	382.981
905.47	387.242
906.969	368.539
908.468	372.962
909.966	381.407
911.465	369.581
912.964	366.779
914.462	373.279
915.961	363.224
917.46	382.192
918.958	382.423
920.457	380.248
921.956	380.712
923.454	378.197
924.953	372.699
926.452	371.584
927.951	363.687
929.449	376.88
930.948	366.054
932.447	378.555
933.945	374.611
935.444	364.152
936.943	375.734
938.441	372.179
939.94	380.559
941.439	383.39
942.937	377.669
944.436	373.078
945.935	380.246
947.433	371.262
948.932	385.174
950.431	379.837
951.93	373.759
953.428	381.68
954.927	386.467
956.426	380.073
957.924	382.871
959.423	380.251
960.922	395.201
962.42	372.536
963.919	378.52
965.418	384.257
966.916	381.222
968.415	382.091
969.914	398.385
971.413	386.783
972.911	388.182
974.41	387.878
975.909	399.066
977.407	408.43
978.906	390.361
980.405	409.73
981.903	396.94
983.402	410.315
984.901	398.489
986.399	408.271
987.898	402.418
989.397	394.932
990.895	415.063
992.394	414.658
993.893	414.198
995.392	415.578
996.89	422.247
998.389	425.838
999.888	424.606
1001.39	432.477
1002.88	424.116
1004.38	438.66
1005.88	440.241
1007.38	440.797
1008.88	432.765
1010.38	432.691
1011.88	443.701
1013.38	443.76
1014.87	454.878
1016.37	456.935
1017.87	459.11
1019.37	459.357
1020.87	466.302
1022.37	473.009
1023.87	461.808
1025.37	481.95
1026.86	475.546
1028.36	476.043
1029.86	487.229
1031.36	506.83
1032.86	486.584
1034.36	506.871
1035.86	511.116
1037.35	504.055
1038.85	508.791
1040.35	514.868
1041.85	506.108
1043.35	509.427
1044.85	524.63
1046.35	499.144
1047.85	520.542
1049.34	528.961
1050.84	524.951
1052.34	516.74
1053.84	522.199
1055.34	543.149
1056.84	526.983
1058.34	541.582
1059.84	540.974
1061.33	536.546
1062.83	550.404
1064.33	538.093
1065.83	556.934
1067.33	549.975
1068.83	560.304
1070.33	557.925
1071.82	556.428
1073.32	560.521
1074.82	566.108
1076.32	557.378
1077.82	575.221
1079.32	567.124
1080.82	577.541
1082.32	573.089
1083.81	578.33
1085.31	589.297
1086.81	592.358
1088.31	602.095
1089.81	597.487
1091.31	594.297
1092.81	600.823
1094.3	611.943
1095.8	604.1
1097.3	611.673
1098.8	630.918
1100.3	617.053
1101.8	619.457
1103.3	620.76
1104.8	616.141
1106.29	640.84
1107.79	634.162
1109.29	645.199
1110.79	646.223
1112.29	648.11
1113.79	649.246
1115.29	661.52
1116.79	672.123
1118.28	670.148
1119.78	680.481
1121.28	685.303
1122.78	676.045
1124.28	690.972
1125.78	696.532
1127.28	681.71
1128.77	693.069
1130.27	696.351
1131.77	716.707
1133.27	704.138
1134.77	722.846
1136.27	710.036
1137.77	730.963
1139.27	735.463
1140.76	737.815
1142.26	726.338
1143.76	712.658
1145.26	747.977
1146.76	769.418
1148.26	755.505
1149.76	773.38
1151.26	789.784
1152.75	790.917
1154.25	787.872
1155.75	807.207
1157.25	815.473
1158.75	804.631
1160.25	803.14
1161.75	821.942
1163.24	805.093
1164.74	821.728
1166.24	833.495
1167.74	829.698
1169.24	826.712
1170.74	836.624
1172.24	825.609
1173.74	836.159
1175.23	832.088
1176.73	870.251
1178.23	870.548
1179.73	855.067
1181.23	850.856
1182.73	841.592
1184.23	846.821
1185.72	854.899
1187.22	880.812
1188.72	875.054
1190.22	872.945
1191.72	867.742
1193.22	882.465
1194.72	909.06
1196.22	917.008
1197.71	910.982
1199.21	926.562
1200.71	892.451
1202.21	936.459
1203.71	930.604
1205.21	925.069
1206.71	929.956
1208.21	951.47
1209.7	942.843
1211.2	972.501
1212.7	958.312
1214.2	976.893
1215.7	971.82
1217.2	989.028
1218.7	1007.34
1220.19	978.078
1221.69	1020.97
1223.19	1019.27
1224.69	1021.45
1226.19	1033.27
1227.69	1031.35
1229.19	1053.99
1230.69	1060.41
1232.18	1075.33
1233.68	1057.28
1235.18	1107.33
1236.68	1085.28
1238.18	1096.13
1239.68	1131.69
1241.18	1151.07
1242.68	1194.53
1244.17	1089.86
1245.67	1148.85
1247.17	1173.82
1248.67	1190.94
1250.17	1190.12
1251.67	1220.13
1253.17	1213.53
1254.66	1236.77
1256.16	1252.87
1257.66	1256.98
1259.16	1314.39
1260.66	1271.32
1262.16	1304.75
1263.66	1319.24
1265.16	1353.75
1266.65	1355.96
1268.15	1382.8
1269.65	1403.81
1271.15	1406.63
1272.65	1447.01
1274.15	1450.61
1275.65	1451.58
1277.15	1483.83
1278.64	1475.01
1280.14	1496.23
1281.64	1553.56
1283.14	1555.79
1284.64	1603.6
1286.14	1605.88
1287.64	1641.06
1289.13	1678.26
1290.63	1683.61
1292.13	1698.93
1293.63	1719.92
1295.13	1778.44
1296.63	1765.85
1298.13	1794.43
1299.63	1827.25
1301.12	1863.07
1302.62	1890.66
1304.12	1904.31
1305.62	1946.36
1307.12	1974.04
1308.62	2023
1310.12	2058.58
1311.61	2049.2
1313.11	2086.99
1314.61	2130.35
1316.11	2162.83
1317.61	2160.46
1319.11	2207.99
1320.61	2252.53
1322.11	2250.08
1323.6	2278.41
1325.1	2305.88
1326.6	2318.88
1328.1	2355.35
1329.6	2335.81
1331.1	2382.95
1332.6	2408.95
1334.1	2411.77
1335.59	2399.24
1337.09	2415.34
1338.59	2423.5
1340.09	2407
1341.59	2397.02
1343.09	2396.92
1344.59	2373.4
1346.08	2374.57
1347.58	2361.96
1349.08	2345.42
1350.58	2272.11
1352.08	2274.84
1353.58	2327.24
1355.08	2275.84
1356.58	2230.58
1358.07	2241.29
1359.57	2210.25
1361.07	2197.3
1362.57	2132.01
1364.07	2151.31
1365.57	2107.81
1367.07	2072.21
1368.57	2031.11
1370.06	2039.5
1371.56	2006
1373.06	1976.38
1374.56	1967.13
1376.06	1905.76
1377.56	1908.22
1379.06	1872.25
1380.55	1828.1
1382.05	1856.26
1383.55	1824.18
1385.05	1772.09
1386.55	1765.2
1388.05	1735.39
1389.55	1755.59
1391.05	1697.02
1392.54	1705.59
1394.04	1702.67
1395.54	1615.54
1397.04	1601.94
1398.54	1603.15
1400.04	1618.22
1401.54	1601.19
1403.03	1558.24
1404.53	1515.45
1406.03	1533.5
1407.53	1521.67
1409.03	1498.27
1410.53	1502.23
1412.03	1478.8
1413.53	1461.62
1415.02	1458.36
1416.52	1441.09
1418.02	1417.9
1419.52	1432.9
1421.02	1418.96
1422.52	1396.35
1424.02	1379.54
1425.52	1380.72
1427.01	1381.71
1428.51	1362.26
1430.01	1383.86
1431.51	1360.6
1433.01	1353.54
1434.51	1362.84
1436.01	1348.57
1437.5	1331.94
1439	1345.49
1440.5	1332.61
1442	1333.27
1443.5	1358.64
1445	1314.33
1446.5	1312.37
1448	1310.64
1449.49	1318.94
1450.99	1293.63
1452.49	1305.25
1453.99	1307.59
1455.49	1303.83
1456.99	1259.17
1458.49	1284.46
1459.98	1274
1461.48	1302.73
1462.98	1300.85
1464.48	1296.4
1465.98	1291.04
1467.48	1310.5
1468.98	1312.97
1470.48	1276.3
1471.97	1290.79
1473.47	1312.66
1474.97	1308.24
1476.47	1286.46
1477.97	1300.19
1479.47	1283.56
1480.97	1280.39
1482.47	1291.82
1483.96	1308.27
1485.46	1294.15
1486.96	1276.55
1488.46	1306.97
1489.96	1304.95
1491.46	1306.91
1492.96	1309.42
1494.45	1300.22
1495.95	1304.55
1497.45	1286.32
1498.95	1310.6
1500.45	1325.46
1501.95	1313.01
1503.45	1288.07
1504.95	1298.91
1506.44	1325.01
1507.94	1317.72
1509.44	1315.59
1510.94	1325.52
1512.44	1324.48
1513.94	1359.48
1515.44	1355.81
1516.94	1352.83
1518.43	1343.24
1519.93	1369.7
1521.43	1344.49
1522.93	1359.91
1524.43	1390.95
1525.93	1402.55
1527.43	1408.23
1528.92	1410.59
1530.42	1416.4
1531.92	1448.83
1533.42	1438.7
1534.92	1449.36
1536.42	1465.2
1537.92	1488.94
1539.42	1502.42
1540.91	1516.7
1542.41	1517.8
1543.91	1565.07
1545.41	1574.62
1546.91	1606.34
1548.41	1658.21
1549.91	1654.27
1551.41	1715.3
1552.9	1715.35
1554.4	1751.96
1555.9	1786.6
1557.4	1789.73
1558.9	1805.58
1560.4	1852.08
1561.9	1868.03
1563.39	1916.12
1564.89	1946.95
1566.39	1979.36
1567.89	1975.77
1569.39	2037.22
1570.89	2081.2
1572.39	2090.72
1573.89	2128.15
1575.38	2125.26
1576.88	2242.65
1578.38	2213.92
1579.88	2232.96
1581.38	2244.29
1582.88	2299.59
1584.38	2281.43
1585.87	2309.53
1587.37	2313.96
1588.87	2336.65
1590.37	2301.93
1591.87	2320.36
1593.37	2317.91
1594.87	2324.32
1596.37	2325.9
1597.86	2304.48
1599.36	2264.84
1600.86	2290.09
1602.36	2228.27
1603.86	2197.14
1605.36	2168.67
1606.86	2118.96
1608.36	2081.74
1609.85	2020.76
1611.35	1997.85
1612.85	1900.91
1614.35	1870.29
1615.85	1812.09
1617.35	1736.66
1618.85	1689.2
1620.34	1600.58
1621.84	1619.36
1623.34	1523.09
1624.84	1467.98
1626.34	1429.47
1627.84	1345.74
1629.34	1284.76
1630.84	1248.88
1632.33	1192.36
1633.83	1160.63
1635.33	1128.46
1636.83	1090.62
1638.33	1046.15
1639.83	1006.48
1641.33	991.091
1642.83	936.648
1644.32	929.077
1645.82	909.63
1647.32	863.008
1648.82	807.307
1650.32	816.922
1651.82	775.887
1653.32	771.994
1654.81	732.815
1656.31	705.349
1657.81	692.509
1659.31	667.776
1660.81	654.706
1662.31	622.423
1663.81	605.34
1665.31	606.524
1666.8	576.155
1668.3	564.374
1669.8	550.901
1671.3	530.357
1672.8	526.571
1674.3	497.064
1675.8	493.092
1677.29	492.023
1678.79	479.911
1680.29	466.653
1681.79	450.957
1683.29	444.341
1684.79	443.712
1686.29	434.826
1687.79	428.145
1689.28	420.098
1690.78	414.942
1692.28	417.187
1693.78	403.959
1695.28	403.844
1696.78	393.98
1698.28	390.155
1699.78	382.2
1701.27	383.064
1702.77	374.277
1704.27	377.36
1705.77	370.162
1707.27	355.799
1708.77	358.635
1710.27	361.668
1711.76	348.291
1713.26	351.252
1714.76	346.744
1716.26	339.904
1717.76	344.884
1719.26	327.142
1720.76	343.157
1722.26	342.097
1723.75	332.897
1725.25	325.683
1726.75	334.47
1728.25	325.239
1729.75	328.689
1731.25	319.491
1732.75	328.631
1734.24	327.167
1735.74	327.414
1737.24	319.147
1738.74	320.53
1740.24	317.03
1741.74	316.735
1743.24	312.794
1744.74	315.728
1746.23	311.73
1747.73	311.764
1749.23	307.696
1750.73	308.006
1752.23	315.976
1753.73	314.311
1755.23	304.187
1756.73	311.092
1758.22	291.468
1759.72	303.457
1761.22	294.296
1762.72	296.094
1764.22	308.122
1765.72	302.742
1767.22	309.921
1768.71	299.613
1770.21	297.346
1771.71	297.417
1773.21	294.081
1774.71	292.545
1776.21	298.482
1777.71	294.268
1779.21	291.69
1780.7	295.655
1782.2	288.001
1783.7	291.407
1785.2	295.342
1786.7	282.921
1788.2	289.204
1789.7	288.764
1791.2	290.703
1792.69	301.247
1794.19	285.445
1795.69	294.797
1797.19	293.106
1798.69	293.748
1800.19	278.709
1801.69	296.355
1803.18	284.768
1804.68	281.374
1806.18	280.079
1807.68	284.926
1809.18	271.65
1810.68	280.925
1812.18	285.105
1813.68	281.54
1815.17	291.319
1816.67	282.493
1818.17	289.938
1819.67	280.197
1821.17	283.753
1822.67	284.719
1824.17	295.721
1825.67	283.424
1827.16	289.468
1828.66	268.476
1830.16	275.968
1831.66	286.26
1833.16	286.001
1834.66	271.689
1836.16	276.092
1837.65	278.55
1839.15	278.503
1840.65	272.771
1842.15	269.687
1843.65	271.803
1845.15	274.103
1846.65	285.857
1848.15	277.423
1849.64	276.844
1851.14	267.841
1852.64	269.255
1854.14	274.905
1855.64	274.372
1857.14	270.955
1858.64	281.266
1860.13	274.799
1861.63	273.914
1863.13	274.835
1864.63	274.351
1866.13	270.659
1867.63	274.897
1869.13	273.371
1870.63	276.774
1872.12	271.245
1873.62	262.858
1875.12	269.733
1876.62	275.746
1878.12	280.286
1879.62	269.761
1881.12	268.585
1882.62	270.546
1884.11	263.542
1885.61	279.605
1887.11	277.399
1888.61	270.406
1890.11	267.341
1891.61	270.252
1893.11	274.204
1894.6	259.844
1896.1	274.487
1897.6	273.337
1899.1	265.238
1900.6	273.236
1902.1	267.443
1903.6	271.289
1905.1	256.286
1906.59	272.869
1908.09	258.469
1909.59	271.229
1911.09	262.517
1912.59	264.834
1914.09	260.894
1915.59	272.197
1917.09	269.13
1918.58	268.964
1920.08	264.104
1921.58	259.949
1923.08	269.036
1924.58	282.402
1926.08	268.646
1927.58	265.505
1929.07	258.097
1930.57	258.43
1932.07	257.794
1933.57	262.455
1935.07	267.208
1936.57	264.162
1938.07	261.729
1939.57	259.058
1941.06	260.156
1942.56	263.128
1944.06	263.738
1945.56	262.722
1947.06	261.206
1948.56	272.405
1950.06	264.494
1951.55	262.129
1953.05	255.951
1954.55	262.744
1956.05	250.294
1957.55	264.904
1959.05	257.527
1960.55	257.098
1962.05	266.149
1963.54	263.435
1965.04	258.813
1966.54	258.209
1968.04	259.028
1969.54	266.491
1971.04	269.294
1972.54	259.779
1974.04	264.244
1975.53	264.544
1977.03	272.127
1978.53	257.591
1980.03	272.969
1981.53	260.326
1983.03	267.686
1984.53	264.958
1986.02	251.357
1987.52	263.564
1989.02	266.092
1990.52	254.532
1992.02	269.207
1993.52	262.554
1995.02	265.333
1996.52	253.002
1998.01	260.026
1999.51	265.735
2001.01	272.577
2002.51	284.429
2004.01	254.964
2005.51	269.159
2007.01	270.853
2008.51	256.695
2010	267.349
2011.5	263.76
2013	270.208
2014.5	261.404
2016	262.598
2017.5	268.347
2019	265.609
2020.49	259.803
2021.99	267.297
2023.49	272.839
2024.99	251.421
2026.49	271.132
2027.99	263.665
2029.49	267.813
2030.99	262.914
2032.48	264.148
2033.98	260.738
2035.48	266.099
2036.98	271.967
2038.48	253.366
2039.98	259.866
2041.48	262.291
2042.97	263.885
2044.47	262.368
2045.97	265.546
2047.47	261.473
2048.97	264.585
2050.47	267.882
2051.97	262.343
2053.47	258.984
2054.96	265.991
2056.46	278.895
2057.96	262.215
2059.46	279.405
2060.96	270.008
2062.46	273.265
2063.96	265.017
2065.46	268.525
2066.95	262.931
2068.45	250.352
2069.95	263.733
2071.45	271.771
2072.95	270.263
2074.45	258.561
2075.95	254.333
2077.44	258.752
2078.94	271.574
2080.44	260.023
2081.94	265.101
2083.44	255.644
2084.94	264.847
2086.44	264.501
2087.94	251.046
2089.43	256.425
2090.93	250.088
2092.43	261.291
2093.93	258.314
2095.43	254.603
2096.93	271.964
2098.43	265.322
2099.93	266.184
2101.42	261.103
2102.92	261.297
2104.42	263.272
2105.92	269.89
2107.42	262.738
2108.92	271.892
2110.42	252.276
2111.91	259.559
2113.41	261.981
2114.91	262.705
2116.41	265.918
2117.91	259.818
2119.41	260.971
2120.91	252.985
2122.41	254.051
2123.9	267.786
2125.4	260.535
2126.9	257.603
2128.4	260.257
2129.9	267.066
2131.4	263.868
2132.9	256.513
2134.4	258.275
2135.89	254.334
2137.39	255.201
2138.89	262.803
2140.39	260.752
2141.89	275.224
2143.39	260.565
2144.89	264.587
2146.38	274.574
2147.88	270.32
2149.38	266.413
2150.88	260.174
2152.38	258.855
2153.88	261.791
2155.38	262.524
2156.88	262.572
2158.37	272.637
2159.87	268.406
2161.37	267.761
2162.87	265.603
2164.37	276.492
2165.87	271.24
2167.37	264.616
2168.86	271.494
2170.36	273.69
2171.86	265.847
2173.36	266.512
2174.86	267.237
2176.36	273.577
2177.86	265.782
2179.36	268.138
2180.85	261.32
2182.35	275.975
2183.85	263.899
2185.35	263.588
2186.85	268.825
2188.35	272.968
2189.85	267.759
2191.34	272.547
2192.84	278.262
2194.34	259.902
2195.84	274.183
2197.34	264.365
2198.84	269.353
2200.34	280.969
2201.84	270.801
2203.33	268.401
2204.83	266.698
2206.33	271.545
2207.83	277.637
2209.33	274.697
2210.83	269.97
2212.33	265.374
2213.83	271.124
2215.32	271.161
2216.82	277.162
2218.32	275.272
2219.82	281.19
2221.32	271.886
2222.82	272.798
2224.32	274.57
2225.81	279.163
2227.31	273.47
2228.81	265.434
2230.31	278.34
2231.81	270.732
2233.31	268.232
2234.81	277.574
2236.31	275.816
2237.8	267.923
2239.3	269.388
2240.8	285.889
2242.3	272.52
2243.8	269.624
2245.3	279.788
2246.8	282.001
2248.3	279.17
2249.79	270.443
2251.29	276.354
2252.79	279.974
2254.29	278.16
2255.79	276.207
2257.29	287.008
2258.79	278.167
2260.28	272.028
2261.78	277.387
2263.28	273.198
2264.78	282.548
2266.28	281.785
2267.78	289.591
2269.28	285.515
2270.78	276.947
2272.27	280.501
2273.77	281.787
2275.27	281.503
2276.77	286.84
2278.27	277.948
2279.77	280.219
2281.27	287.991
2282.77	277.838
2284.26	294.557
2285.76	301.103
2287.26	292.354
2288.76	276.285
2290.26	286.766
2291.76	293.176
2293.26	287.803
2294.75	288.509
2296.25	287.416
2297.75	293.563
2299.25	299.585
2300	294.1