File: Example Data/Raman/CNT - TIM/Raytheon/Microwave/Test 1/CNT-MW - T1 - 030 sec - bottom.txt
300	385.333
301.499	375.661
302.997	394.436
304.496	394.666
305.995	391.545
307.493	404.395
308.992	400.257
310.491	402.896
311.99	392.495
313.488	376.979
314.987	385.861
316.486	386.208
317.984	400.284
319.483	399.271
320.982	382.953
322.48	385.099
323.979	398.715
325.478	394.269
326.976	389.607
328.475	372.646
329.974	397.148
331.472	378.565
332.971	378.439
334.47	394.019
335.969	387.061
337.467	374.216
338.966	377.053
340.465	380.044
341.963	391.276
343.462	395.922
344.961	384.148
346.459	367.563
347.958	375.664
349.457	384.354
350.955	376.914
352.454	368.824
353.953	392.325
355.451	392.087
356.95	369.965
358.449	370.241
359.948	374.158
361.446	374.701
362.945	370.609
364.444	372.219
365.942	378.904
367.441	364.547
368.94	363.184
370.438	377.788
371.937	366.267
373.436	372.48
374.934	372.735
376.433	356.577
377.932	372.19
379.431	366.456
380.929	362.962
382.428	358.952
383.927	378.878
385.425	355.625
386.924	371.133
388.423	351.376
389.921	353.295
391.42	352.058
392.919	370.013
394.417	361.216
395.916	364.203
397.415	364.8
398.913	368.287
400.412	354.181
401.911	372.357
403.41	344.575
404.908	352.952
406.407	349.112
407.906	349.548
409.404	353.827
410.903	360.872
412.402	352.651
413.9	350.482
415.399	348.744
416.898	358.792
418.396	351.288
419.895	346.133
421.394	362.5
422.892	370.673
424.391	350.203
425.89	352.041
427.389	352.575
428.887	342.087
430.386	345.743
431.885	346.52
433.383	340.079
434.882	348.516
436.381	346.569
437.879	339.797
439.378	333.652
440.877	340.272
442.375	333.879
443.874	343.921
445.373	336.072
446.871	343.099
448.37	350.907
449.869	339.52
451.368	337.599
452.866	330.166
454.365	326.198
455.864	336.218
457.362	338.075
458.861	335.703
460.36	337.515
461.858	336.016
463.357	337.721
464.856	322.749
466.354	330.189
467.853	325.319
469.352	327.924
470.85	333.753
472.349	328.829
473.848	326.8
475.347	323.937
476.845	325.909
478.344	327.983
479.843	319.004
481.341	320.806
482.84	317.8
484.339	302.115
485.837	313.748
487.336	310.107
488.835	312.878
490.333	315.346
491.832	311.719
493.331	323.843
494.83	313.452
496.328	306.963
497.827	315.666
499.326	297.688
500.824	304.192
502.323	298.939
503.822	305.918
505.32	295.262
506.819	299.847
508.318	300.173
509.816	307.286
511.315	309.456
512.814	297.779
514.3125	300.546
515.811	295.913
517.31	303.156
518.809	299.707
520.307	307.831
521.806	300.816
523.305	304.962
524.803	297.533
526.302	303.065
527.801	309.44
529.299	298.448
530.798	297.205
532.297	298.429
533.795	313.965
535.294	297.421
536.793	305.035
538.292	295.393
539.79	305.6
541.289	288.939
542.788	308.789
544.286	284.179
545.785	310.429
547.284	294.324
548.782	306.76
550.281	301.772
551.78	288.31
553.278	296.489
554.777	306.185
556.276	291.654
557.774	295.219
559.273	294.57
560.772	299.684
562.271	302.836
563.769	306.134
565.268	307.158
566.767	304.642
568.265	300.922
569.764	307.394
571.263	312.717
572.761	308.81
574.26	310.592
575.759	302.622
577.257	303.164
578.756	314.872
580.255	315.9
581.753	307.964
583.252	316.978
584.751	300.728
586.25	304.942
587.748	301.55
589.247	321.169
590.746	310.58
592.244	306.833
593.743	301.576
595.242	314.005
596.74	299.139
598.239	321.072
599.738	307.693
601.236	301.356
602.735	313.135
604.234	302.449
605.732	294.502
607.231	302.612
608.73	320.848
610.229	315.417
611.727	310.218
613.226	313.819
614.725	312.636
616.223	311.865
617.722	310.891
619.221	305.803
620.719	329.944
622.218	313.851
623.717	310.484
625.215	303.757
626.714	314.501
628.213	319.681
629.711	320.496
631.21	323.236
632.709	320.644
634.208	327.45
635.706	316.437
637.205	324.852
638.704	325.525
640.202	318.962
641.701	325.161
643.2	329.437
644.698	333.308
646.197	320.632
647.696	326.35
649.194	316.765
650.693	328.274
652.192	330.746
653.69	328.645
655.189	340.849
656.688	324.991
658.187	329.27
659.685	330.899
661.184	324.072
662.683	332.597
664.181	321.401
665.68	325.359
667.179	336.563
668.677	326.445
670.176	321.547
671.675	328.693
673.173	335.139
674.672	339.578
676.171	319.62
677.67	331.281
679.168	332.502
680.667	333.541
682.166	333.698
683.664	340.024
685.163	334.844
686.662	332.505
688.16	328.037
689.659	327.98
691.158	337.368
692.656	350.058
694.155	337.25
695.654	329.348
697.152	334.559
698.651	333.776
700.15	323.703
701.649	340.908
703.147	342.23
704.646	334.329
706.145	331.596
707.643	329.467
709.142	351.239
710.641	332.754
712.139	337.033
713.638	345.779
715.137	343.93
716.635	338.766
718.134	353.632
719.633	358.582
721.132	361.383
722.63	352.089
724.129	355.388
725.628	352.554
727.126	343.355
728.625	360.999
730.124	351.773
731.622	356.851
733.121	353.762
734.62	365.13
736.118	352.723
737.617	364.639
739.116	359.678
740.614	368.165
742.113	365.845
743.612	359.387
745.111	367.048
746.609	371.459
748.108	361.686
749.607	373.592
751.105	363.995
752.604	365.702
754.103	373.455
755.601	362.765
757.1	368.205
758.599	356.43
760.097	378.217
761.596	370.907
763.095	372.919
764.594	385.928
766.092	379.888
767.591	376.839
769.09	364.481
770.588	373.404
772.087	366.531
773.586	387.206
775.084	380.979
776.583	376.35
778.082	396.75
779.58	375.512
781.079	384.037
782.578	387.142
784.076	402.325
785.575	379.078
787.074	373.828
788.573	381.504
790.071	383.905
791.57	382.111
793.069	374.663
794.567	381.654
796.066	388.599
797.565	406.248
799.063	386.933
800.562	386.085
802.061	398.844
803.559	379.858
805.058	402.042
806.557	409.608
808.055	388.312
809.554	391.191
811.053	402.34
812.552	386.469
814.05	413.209
815.549	417.408
817.048	393.779
818.546	400.34
820.045	414.864
821.544	405.218
823.042	410.067
824.541	421.599
826.04	420.238
827.538	399.442
829.037	418.157
830.536	412.128
832.034	406.817
833.533	422.769
835.032	426.016
836.531	400.066
838.029	411.674
839.528	418.115
841.027	420.25
842.525	404.482
844.024	407.805
845.523	405.155
847.021	419.601
848.52	417.614
850.019	419.46
851.517	402.566
853.016	408.528
854.515	404.556
856.013	407.477
857.512	413.227
859.011	406.011
860.51	413.268
862.008	415.694
863.507	396.637
865.006	406.721
866.504	399.867
868.003	396.849
869.502	377.988
871	383.091
872.499	389.168
873.998	395.959
875.496	383.052
876.995	386.228
878.494	378.868
879.992	396.264
881.491	380.17
882.99	375.397
884.489	381.922
885.987	382.371
887.486	370.053
888.985	383.757
890.483	371.79
891.982	375.747
893.481	372.265
894.979	384.526
896.478	390.784
897.977	372.4
899.475	366.417
900.974	366.342
902.473	375.286
903.971	368.708
905.47	364.366
906.969	357.052
908.468	370.958
909.966	359.31
911.465	353.552
912.964	353.522
914.462	366.086
915.961	352.231
917.46	359.643
918.958	364.125
920.457	349.655
921.956	360.147
923.454	370.692
924.953	370.478
926.452	367.211
927.951	355.486
929.449	369.023
930.948	357.194
932.447	365.643
933.945	352.724
935.444	363.179
936.943	353.186
938.441	365.056
939.94	362.289
941.439	363.376
942.937	357.363
944.436	366.922
945.935	357.274
947.433	362.401
948.932	351.777
950.431	357.75
951.93	368.839
953.428	365.562
954.927	360.634
956.426	373.257
957.924	353.989
959.423	363.309
960.922	371.612
962.42	365.896
963.919	373.114
965.418	365.867
966.916	367.755
968.415	358.385
969.914	387.073
971.413	374.382
972.911	360.567
974.41	379.187
975.909	380.379
977.407	372.786
978.906	382.476
980.405	386.529
981.903	377.566
983.402	373.025
984.901	377.957
986.399	380.456
987.898	387.296
989.397	393.199
990.895	402.846
992.394	395.889
993.893	399.11
995.392	382.611
996.89	402.962
998.389	396.034
999.888	396.818
1001.39	415.265
1002.88	413.926
1004.38	414.148
1005.88	406.821
1007.38	411.198
1008.88	420.291
1010.38	416.408
1011.88	432.541
1013.38	427.336
1014.87	432.818
1016.37	439.485
1017.87	431.973
1019.37	440.535
1020.87	439.198
1022.37	452.139
1023.87	458.124
1025.37	456.292
1026.86	446.495
1028.36	454.212
1029.86	455.822
1031.36	471.602
1032.86	472.083
1034.36	482.136
1035.86	481.396
1037.35	481.42
1038.85	480.47
1040.35	477.88
1041.85	488.694
1043.35	488.246
1044.85	484.58
1046.35	490.219
1047.85	489.246
1049.34	509.43
1050.84	507.584
1052.34	508.367
1053.84	502.037
1055.34	501.98
1056.84	504.144
1058.34	508.219
1059.84	510.619
1061.33	511.514
1062.83	512.363
1064.33	514.796
1065.83	518.369
1067.33	529.058
1068.83	515.264
1070.33	513.458
1071.82	527.588
1073.32	523.653
1074.82	537.721
1076.32	532.006
1077.82	543.586
1079.32	547.857
1080.82	554.232
1082.32	546.782
1083.81	559.89
1085.31	534.379
1086.81	554.767
1088.31	566.303
1089.81	561.746
1091.31	565.186
1092.81	574.955
1094.3	583.248
1095.8	572.029
1097.3	570.29
1098.8	584.805
1100.3	574.382
1101.8	594.483
1103.3	590.47
1104.8	605.706
1106.29	601.593
1107.79	606.777
1109.29	600.695
1110.79	612.822
1112.29	616.486
1113.79	625.702
1115.29	614.203
1116.79	636.256
1118.28	628.173
1119.78	634.075
1121.28	637.423
1122.78	638.75
1124.28	629.92
1125.78	648.124
1127.28	658.416
1128.77	671.401
1130.27	655.023
1131.77	669.357
1133.27	674.389
1134.77	678.661
1136.27	705.495
1137.77	707.881
1139.27	697.934
1140.76	712.437
1142.26	702.341
1143.76	713.093
1145.26	728.599
1146.76	717.731
1148.26	735.373
1149.76	742.993
1151.26	742.804
1152.75	751.795
1154.25	757.833
1155.75	748.516
1157.25	779.258
1158.75	759.246
1160.25	774.638
1161.75	782.305
1163.24	774.198
1164.74	794.439
1166.24	790.344
1167.74	774.628
1169.24	791.222
1170.74	789.761
1172.24	814.495
1173.74	807.38
1175.23	801.804
1176.73	810.673
1178.23	796.582
1179.73	818.621
1181.23	830.672
1182.73	819.578
1184.23	819.341
1185.72	850.509
1187.22	842.826
1188.72	840.326
1190.22	822.555
1191.72	870.628
1193.22	852.761
1194.72	851.416
1196.22	851.551
1197.71	880.599
1199.21	882.03
1200.71	916.762
1202.21	896.774
1203.71	884.506
1205.21	906.282
1206.71	867.951
1208.21	919.198
1209.7	914.189
1211.2	929.01
1212.7	930.756
1214.2	938.142
1215.7	938.899
1217.2	943.399
1218.7	975.767
1220.19	958.365
1221.69	964.973
1223.19	980.63
1224.69	985.203
1226.19	997.182
1227.69	1003.82
1229.19	1003.97
1230.69	1022.24
1232.18	1032.11
1233.68	1068.71
1235.18	1021.21
1236.68	1050.09
1238.18	1054.68
1239.68	1088.89
1241.18	1077.82
1242.68	1080.03
1244.17	1111.65
1245.67	1106.3
1247.17	1127.44
1248.67	1119.66
1250.17	1136.44
1251.67	1172.81
1253.17	1147.49
1254.66	1182.93
1256.16	1186.22
1257.66	1207.54
1259.16	1219.96
1260.66	1228.92
1262.16	1248.2
1263.66	1269.06
1265.16	1274.56
1266.65	1297.81
1268.15	1292.24
1269.65	1335.67
1271.15	1349.39
1272.65	1318.68
1274.15	1364.57
1275.65	1409.97
1277.15	1407.75
1278.64	1439.42
1280.14	1429.75
1281.64	1459.95
1283.14	1461.09
1284.64	1494.07
1286.14	1500.09
1287.64	1533.18
1289.13	1558.83
1290.63	1551.13
1292.13	1577.97
1293.63	1601.23
1295.13	1643.21
1296.63	1675.05
1298.13	1689.78
1299.63	1743.45
1301.12	1734.86
1302.62	1768.12
1304.12	1780.77
1305.62	1803.66
1307.12	1818.55
1308.62	1876.93
1310.12	1865.19
1311.61	1908.15
1313.11	1881.12
1314.61	1944.39
1316.11	1959.91
1317.61	2003.67
1319.11	2035.4
1320.61	2057.33
1322.11	2055.4
1323.6	2060.5
1325.1	2099.96
1326.6	2133.01
1328.1	2163.5
1329.6	2139.68
1331.1	2162.31
1332.6	2189.94
1334.1	2167.39
1335.59	2196.76
1337.09	2173.34
1338.59	2138.15
1340.09	2197.07
1341.59	2181.03
1343.09	2179.86
1344.59	2205.83
1346.08	2208.91
1347.58	2163.7
1349.08	2122.32
1350.58	2145.91
1352.08	2145.58
1353.58	2094.45
1355.08	2078.61
1356.58	2063.16
1358.07	2073.31
1359.57	2037.51
1361.07	1995.64
1362.57	1977.08
1364.07	1997.19
1365.57	1953.65
1367.07	1909.25
1368.57	1929.92
1370.06	1896.97
1371.56	1852.42
1373.06	1822.08
1374.56	1825.36
1376.06	1812.44
1377.56	1815.07
1379.06	1747.34
1380.55	1736.62
1382.05	1675.64
1383.55	1711.54
1385.05	1687.97
1386.55	1680.35
1388.05	1635.02
1389.55	1613.38
1391.05	1620.04
1392.54	1595.89
1394.04	1578.58
1395.54	1536.26
1397.04	1533.61
1398.54	1539.27
1400.04	1490.67
1401.54	1503.23
1403.03	1483.74
1404.53	1468.93
1406.03	1461.96
1407.53	1443.62
1409.03	1445.32
1410.53	1422.99
1412.03	1406.51
1413.53	1397.34
1415.02	1384.13
1416.52	1384.29
1418.02	1353.12
1419.52	1356.42
1421.02	1352.02
1422.52	1324.24
1424.02	1327.86
1425.52	1307.24
1427.01	1306.14
1428.51	1299.77
1430.01	1305.57
1431.51	1274.64
1433.01	1297.37
1434.51	1291.7
1436.01	1277.98
1437.5	1288.11
1439	1263.23
1440.5	1289.97
1442	1265.48
1443.5	1253.62
1445	1250
1446.5	1234.47
1448	1253.5
1449.49	1246.87
1450.99	1236.72
1452.49	1267.76
1453.99	1248.14
1455.49	1226.36
1456.99	1270.72
1458.49	1249.91
1459.98	1268.19
1461.48	1220.27
1462.98	1234.9
1464.48	1214.01
1465.98	1217.6
1467.48	1222.96
1468.98	1226.8
1470.48	1225.48
1471.97	1225.72
1473.47	1244.09
1474.97	1224.36
1476.47	1216.09
1477.97	1202.74
1479.47	1243.3
1480.97	1231
1482.47	1201.35
1483.96	1224.06
1485.46	1195.81
1486.96	1223.29
1488.46	1224.17
1489.96	1213.46
1491.46	1218.39
1492.96	1225.25
1494.45	1204.97
1495.95	1248.48
1497.45	1211.04
1498.95	1226.49
1500.45	1232.51
1501.95	1233.43
1503.45	1216.39
1504.95	1246.73
1506.44	1252.41
1507.94	1220.75
1509.44	1256.68
1510.94	1241.41
1512.44	1249.05
1513.94	1240.93
1515.44	1233.83
1516.94	1251.15
1518.43	1267.69
1519.93	1275.66
1521.43	1266.18
1522.93	1261.98
1524.43	1294.83
1525.93	1305.03
1527.43	1306.4
1528.92	1301.44
1530.42	1317.82
1531.92	1350.11
1533.42	1343.39
1534.92	1357.88
1536.42	1374.06
1537.92	1390.58
1539.42	1419.27
1540.91	1409.13
1542.41	1420.92
1543.91	1466.78
1545.41	1463.2
1546.91	1462.14
1548.41	1536.53
1549.91	1549.36
1551.41	1562.02
1552.9	1603.75
1554.4	1614.58
1555.9	1652.48
1557.4	1623.41
1558.9	1665.19
1560.4	1692.92
1561.9	1714.35
1563.39	1755.24
1564.89	1787.31
1566.39	1790.2
1567.89	1848.23
1569.39	1905.42
1570.89	1895.29
1572.39	1939.98
1573.89	1964.8
1575.38	1981.52
1576.88	2030.45
1578.38	2046.86
1579.88	2108.62
1581.38	2088.3
1582.88	2129.6
1584.38	2142.05
1585.87	2179.3
1587.37	2130.01
1588.87	2213.95
1590.37	2193.56
1591.87	2258.83
1593.37	2207.46
1594.87	2202.51
1596.37	2172.97
1597.86	2173.82
1599.36	2169.83
1600.86	2147.05
1602.36	2152.65
1603.86	2098.76
1605.36	2076.52
1606.86	2024.48
1608.36	1962.56
1609.85	1936.97
1611.35	1876.67
1612.85	1836.54
1614.35	1747.34
1615.85	1724.43
1617.35	1685.79
1618.85	1623.35
1620.34	1536.34
1621.84	1471.76
1623.34	1458.19
1624.84	1372.96
1626.34	1296.35
1627.84	1267.57
1629.34	1227.82
1630.84	1194.45
1632.33	1146.1
1633.83	1096.48
1635.33	1051.12
1636.83	1043.5
1638.33	973.121
1639.83	973.906
1641.33	944.677
1642.83	908.053
1644.32	871.805
1645.82	849.751
1647.32	827.482
1648.82	805.021
1650.32	776.951
1651.82	748.839
1653.32	723.297
1654.81	708.181
1656.31	676.12
1657.81	662.28
1659.31	643.457
1660.81	613.404
1662.31	598.093
1663.81	595.955
1665.31	580.911
1666.8	551.207
1668.3	537.755
1669.8	517.601
1671.3	522.287
1672.8	513.287
1674.3	498.168
1675.8	472.542
1677.29	469.301
1678.79	488.522
1680.29	461.452
1681.79	443.638
1683.29	437.513
1684.79	432.639
1686.29	425.031
1687.79	411.573
1689.28	396.33
1690.78	411.581
1692.28	399.265
1693.78	395.641
1695.28	385.702
1696.78	390.418
1698.28	384.387
1699.78	370.633
1701.27	368.642
1702.77	376.796
1704.27	368.859
1705.77	365.913
1707.27	358.447
1708.77	359.635
1710.27	350.923
1711.76	347.323
1713.26	347.244
1714.76	347.67
1716.26	347.671
1717.76	333.478
1719.26	336.754
1720.76	333.296
1722.26	333.159
1723.75	331.501
1725.25	324.734
1726.75	324.626
1728.25	331.883
1729.75	311.415
1731.25	319.052
1732.75	320.292
1734.24	312.632
1735.74	312.156
1737.24	309.068
1738.74	313.941
1740.24	309.098
1741.74	318.041
1743.24	304.809
1744.74	308.632
1746.23	304.517
1747.73	313.859
1749.23	308.99
1750.73	301.972
1752.23	303.771
1753.73	298.093
1755.23	304.671
1756.73	299.446
1758.22	304.06
1759.72	296.329
1761.22	293.434
1762.72	291.637
1764.22	294.076
1765.72	293.345
1767.22	289.387
1768.71	288.823
1770.21	299.522
1771.71	295.003
1773.21	287.491
1774.71	292.646
1776.21	294.483
1777.71	298.537
1779.21	281.491
1780.7	281.379
1782.2	290.797
1783.7	281.03
1785.2	292.002
1786.7	292.028
1788.2	286.474
1789.7	289.019
1791.2	282.674
1792.69	285.934
1794.19	279.109
1795.69	287.748
1797.19	279.429
1798.69	285.773
1800.19	289.844
1801.69	278.242
1803.18	283.065
1804.68	278.096
1806.18	276.496
1807.68	280.441
1809.18	284.219
1810.68	280.918
1812.18	267.56
1813.68	277.677
1815.17	283.873
1816.67	286.626
1818.17	293.537
1819.67	283.8
1821.17	283.925
1822.67	283.792
1824.17	284.202
1825.67	265.292
1827.16	273.67
1828.66	263.747
1830.16	281.175
1831.66	264.525
1833.16	273.567
1834.66	269.509
1836.16	264.96
1837.65	271.696
1839.15	278.542
1840.65	275.739
1842.15	268.698
1843.65	270.05
1845.15	271.878
1846.65	272.316
1848.15	272.07
1849.64	266.833
1851.14	286.094
1852.64	275.126
1854.14	274.915
1855.64	267.86
1857.14	273.838
1858.64	271.066
1860.13	277.916
1861.63	263.328
1863.13	263.692
1864.63	260.862
1866.13	271.859
1867.63	261.834
1869.13	275.978
1870.63	269.351
1872.12	275.879
1873.62	262.365
1875.12	275.223
1876.62	266.193
1878.12	261.143
1879.62	261.865
1881.12	267.563
1882.62	253.015
1884.11	259.207
1885.61	275.551
1887.11	255.015
1888.61	259.416
1890.11	268.04
1891.61	269.139
1893.11	278.7
1894.6	267.694
1896.1	258.886
1897.6	257.546
1899.1	271.418
1900.6	262.122
1902.1	257.443
1903.6	277.644
1905.1	268.171
1906.59	267.588
1908.09	267.629
1909.59	257.154
1911.09	267.867
1912.59	267.252
1914.09	264.516
1915.59	260.29
1917.09	262.439
1918.58	279.271
1920.08	274.945
1921.58	250.33
1923.08	269.632
1924.58	263.81
1926.08	270.67
1927.58	261.009
1929.07	245.161
1930.57	262.377
1932.07	251.607
1933.57	250.554
1935.07	256.893
1936.57	259.184
1938.07	252.063
1939.57	263.348
1941.06	260.3
1942.56	272.893
1944.06	272.04
1945.56	267.288
1947.06	251.529
1948.56	261.526
1950.06	262.913
1951.55	258.199
1953.05	263.864
1954.55	264.126
1956.05	248.813
1957.55	248.909
1959.05	270.684
1960.55	250.938
1962.05	255.893
1963.54	265.634
1965.04	257.943
1966.54	265.176
1968.04	263.582
1969.54	262.786
1971.04	259.818
1972.54	258.759
1974.04	255.769
1975.53	257.166
1977.03	260.097
1978.53	271.385
1980.03	266.714
1981.53	254.578
1983.03	261.319
1984.53	269.712
1986.02	252.765
1987.52	255.975
1989.02	264.176
1990.52	274.075
1992.02	259.502
1993.52	256.066
1995.02	266.262
1996.52	260.856
1998.01	262.482
1999.51	269.242
2001.01	258.43
2002.51	253.772
2004.01	258.001
2005.51	273.876
2007.01	257.046
2008.51	254.492
2010	259.292
2011.5	262.369
2013	263.053
2014.5	258.931
2016	262.053
2017.5	266.585
2019	268.074
2020.49	265.39
2021.99	254.365
2023.49	269.44
2024.99	257.938
2026.49	261.693
2027.99	259.481
2029.49	261.045
2030.99	275.25
2032.48	258.544
2033.98	267.562
2035.48	258.867
2036.98	268.821
2038.48	263.498
2039.98	256.707
2041.48	265.534
2042.97	260.968
2044.47	262.602
2045.97	262.578
2047.47	255.402
2048.97	265.433
2050.47	257.942
2051.97	270.43
2053.47	264.489
2054.96	259.061
2056.46	271.036
2057.96	256.126
2059.46	275.507
2060.96	256.256
2062.46	260.36
2063.96	263.786
2065.46	263.634
2066.95	253.542
2068.45	256.148
2069.95	254.892
2071.45	263.721
2072.95	258.031
2074.45	253.084
2075.95	263.276
2077.44	258.732
2078.94	269.241
2080.44	267.215
2081.94	257.041
2083.44	253.892
2084.94	254.577
2086.44	252.296
2087.94	253.455
2089.43	260.715
2090.93	266.704
2092.43	259.223
2093.93	259.834
2095.43	263.915
2096.93	252.168
2098.43	257.369
2099.93	259.27
2101.42	260.004
2102.92	249.737
2104.42	263.971
2105.92	254.11
2107.42	253.16
2108.92	262.659
2110.42	251.997
2111.91	253.325
2113.41	250.185
2114.91	262.506
2116.41	258.992
2117.91	249.952
2119.41	260.373
2120.91	262.504
2122.41	263.573
2123.9	258.919
2125.4	260.352
2126.9	267.226
2128.4	257.812
2129.9	255.213
2131.4	265.088
2132.9	261.451
2134.4	260.729
2135.89	264.188
2137.39	266.154
2138.89	267.495
2140.39	257.933
2141.89	258.604
2143.39	265.131
2144.89	270.634
2146.38	252.116
2147.88	260.225
2149.38	260.058
2150.88	271.72
2152.38	256.252
2153.88	266.624
2155.38	257.787
2156.88	272.202
2158.37	264.375
2159.87	252.741
2161.37	251.082
2162.87	264.491
2164.37	259.706
2165.87	258.79
2167.37	267.56
2168.86	259.966
2170.36	265.735
2171.86	270.744
2173.36	252.462
2174.86	262.386
2176.36	266.529
2177.86	263.205
2179.36	268.376
2180.85	270.12
2182.35	265.506
2183.85	268.071
2185.35	263.448
2186.85	269.019
2188.35	273.318
2189.85	267.588
2191.34	267.038
2192.84	259.019
2194.34	276.614
2195.84	263.518
2197.34	259.977
2198.84	272.655
2200.34	269.088
2201.84	266.911
2203.33	267.875
2204.83	244.508
2206.33	268.641
2207.83	255.958
2209.33	262.545
2210.83	255.976
2212.33	268.967
2213.83	263.838
2215.32	271.708
2216.82	265.904
2218.32	268.85
2219.82	274.734
2221.32	258.354
2222.82	262.447
2224.32	265.861
2225.81	260.327
2227.31	266.648
2228.81	265.531
2230.31	268.722
2231.81	279.062
2233.31	261.046
2234.81	277.789
2236.31	269.436
2237.8	270.601
2239.3	262.268
2240.8	258.777
2242.3	269.567
2243.8	261.313
2245.3	279.451
2246.8	276.232
2248.3	273.367
2249.79	273.394
2251.29	266.051
2252.79	279.908
2254.29	277.774
2255.79	271.074
2257.29	265.587
2258.79	270.199
2260.28	268.973
2261.78	272.921
2263.28	269.841
2264.78	276.848
2266.28	272.767
2267.78	277.342
2269.28	267.698
2270.78	272.206
2272.27	274.266
2273.77	274.703
2275.27	267.362
2276.77	289.714
2278.27	263.982
2279.77	275.685
2281.27	269.328
2282.77	273.512
2284.26	277.78
2285.76	285.415
2287.26	286.446
2288.76	281.419
2290.26	287.315
2291.76	283.236
2293.26	285.085
2294.75	277.325
2296.25	291.271
2297.75	277.919
2299.25	289.241
2300	279.96