File: Example Data/Raman/CNT - TIM/Raytheon/Microwave/Test 1/CNT-MW - T1 - 0 sec.txt
300	385.313
301.499	403.057
302.997	421.711
304.496	426.904
305.995	417.115
307.493	412.703
308.992	413.053
310.491	410.2
311.99	405.034
313.488	412.416
314.987	406.769
316.486	389.89
317.984	410.791
319.483	393.415
320.982	401.641
322.48	408.513
323.979	396.897
325.478	402.09
326.976	395.061
328.475	398.757
329.974	412.077
331.472	399.38
332.971	411.859
334.47	399.864
335.969	403.502
337.467	399.949
338.966	412.545
340.465	403.54
341.963	401.88
343.462	393.316
344.961	400.352
346.459	392.577
347.958	402.589
349.457	388.437
350.955	388.034
352.454	388.923
353.953	390.784
355.451	400.202
356.95	379.408
358.449	377.522
359.948	400.737
361.446	393.782
362.945	382.154
364.444	406.486
365.942	399.356
367.441	408.934
368.94	400.367
370.438	407.066
371.937	393.801
373.436	380.223
374.934	392.728
376.433	380.646
377.932	379.995
379.431	386.952
380.929	381.011
382.428	374.975
383.927	374.03
385.425	382.336
386.924	368.017
388.423	379.78
389.921	388.813
391.42	376.605
392.919	380.793
394.417	382.203
395.916	377.249
397.415	388.398
398.913	385.583
400.412	366.543
401.911	366.755
403.41	384.018
404.908	374.573
406.407	370.646
407.906	377.624
409.404	365.982
410.903	378.878
412.402	366.375
413.9	374.554
415.399	375.905
416.898	363.942
418.396	369.497
419.895	391.826
421.394	370.383
422.892	377.849
424.391	392.065
425.89	378.068
427.389	374.316
428.887	369.295
430.386	378.228
431.885	377.296
433.383	381.436
434.882	370.276
436.381	366.177
437.879	371.069
439.378	354.323
440.877	362.841
442.375	370.218
443.874	369.33
445.373	361.927
446.871	361.696
448.37	373.12
449.869	360.243
451.368	354.81
452.866	351.479
454.365	374.088
455.864	364.099
457.362	363.877
458.861	355.818
460.36	350.101
461.858	363.327
463.357	364.421
464.856	351.785
466.354	342.232
467.853	344.905
469.352	346.337
470.85	345.804
472.349	334.655
473.848	347.54
475.347	329.626
476.845	351.446
478.344	342.669
479.843	332.167
481.341	337.013
482.84	333.386
484.339	328.692
485.837	321.007
487.336	321.928
488.835	330.801
490.333	321.669
491.832	315.971
493.331	320.253
494.83	311.374
496.328	324.602
497.827	323.208
499.326	314.117
500.824	313.844
502.323	320.914
503.822	303.044
505.32	312.201
506.819	301.227
508.318	321.648
509.816	310.717
511.315	290.399
512.814	311.186
514.3125	304.435
515.811	321.76
517.31	312.818
518.809	300.136
520.307	318.427
521.806	317.725
523.305	303.805
524.803	313.592
526.302	309.746
527.801	305.278
529.299	309.422
530.798	307.814
532.297	314.786
533.795	313.141
535.294	307.185
536.793	317.133
538.292	318.375
539.79	314.353
541.289	315.185
542.788	308.207
544.286	315.5
545.785	318.94
547.284	306.493
548.782	307.248
550.281	317.323
551.78	313.741
553.278	314.087
554.777	323.144
556.276	318.223
557.774	308.729
559.273	312.94
560.772	309.545
562.271	335.335
563.769	321.312
565.268	310.447
566.767	320.063
568.265	320.952
569.764	325.847
571.263	331.689
572.761	329.268
574.26	318.029
575.759	327.511
577.257	327.333
578.756	316.3
580.255	330.006
581.753	327.262
583.252	320.58
584.751	326.952
586.25	327.538
587.748	327.175
589.247	322.321
590.746	326.999
592.244	329.736
593.743	324.635
595.242	325.416
596.74	310.95
598.239	328.074
599.738	342.258
601.236	326.096
602.735	336.077
604.234	330.876
605.732	331.224
607.231	329.153
608.73	329.734
610.229	328.584
611.727	336.28
613.226	332.181
614.725	335.686
616.223	339.062
617.722	333.937
619.221	335.822
620.719	328.915
622.218	322.721
623.717	329.973
625.215	340.57
626.714	336.324
628.213	344.711
629.711	349.29
631.21	337.245
632.709	338.899
634.208	344.62
635.706	337.212
637.205	332.579
638.704	346.275
640.202	335.375
641.701	349.54
643.2	346.926
644.698	343.981
646.197	349.016
647.696	347.248
649.194	342.179
650.693	352.493
652.192	342.573
653.69	348.503
655.189	348.773
656.688	334.682
658.187	348.328
659.685	351.033
661.184	344.039
662.683	340.419
664.181	350.265
665.68	357.454
667.179	349.493
668.677	349.611
670.176	344.101
671.675	359.328
673.173	354.963
674.672	350.484
676.171	352.603
677.67	343.744
679.168	346.874
680.667	350.207
682.166	355.094
683.664	358.615
685.163	350.05
686.662	353.209
688.16	353.917
689.659	362.439
691.158	362.132
692.656	360.219
694.155	355.643
695.654	350.857
697.152	356.738
698.651	347.804
700.15	358.821
701.649	367.697
703.147	361.819
704.646	362.64
706.145	359.232
707.643	361.995
709.142	366.695
710.641	368.224
712.139	352.942
713.638	356.566
715.137	369.897
716.635	363.077
718.134	347.517
719.633	355.735
721.132	364.083
722.63	377.927
724.129	362.344
725.628	372.786
727.126	380.232
728.625	366.43
730.124	369.159
731.622	380.12
733.121	372.458
734.62	378.19
736.118	376.011
737.617	363.915
739.116	387.208
740.614	383.519
742.113	394.467
743.612	402.669
745.111	390.467
746.609	381.731
748.108	389.195
749.607	383.908
751.105	378.658
752.604	389.755
754.103	377.216
755.601	389.72
757.1	386.874
758.599	395.419
760.097	393.96
761.596	376.674
763.095	406.141
764.594	386.847
766.092	407
767.591	394.586
769.09	396.691
770.588	403.601
772.087	403.219
773.586	404.977
775.084	408.194
776.583	411.732
778.082	404.002
779.58	403.778
781.079	412.684
782.578	412.698
784.076	407.837
785.575	409.763
787.074	416.667
788.573	408.008
790.071	434.834
791.57	409.966
793.069	399.783
794.567	413.741
796.066	424.479
797.565	420.027
799.063	407.564
800.562	417.937
802.061	427.234
803.559	425.391
805.058	423.133
806.557	426.266
808.055	427.822
809.554	444.339
811.053	417.286
812.552	438.355
814.05	422.399
815.549	434.244
817.048	444.207
818.546	434.004
820.045	431.377
821.544	424.021
823.042	434.451
824.541	441.183
826.04	443.119
827.538	432.872
829.037	440.655
830.536	428.361
832.034	450.573
833.533	428.629
835.032	452.646
836.531	434.619
838.029	446.525
839.528	439.626
841.027	444.257
842.525	430.472
844.024	449.529
845.523	458.026
847.021	446.707
848.52	450.139
850.019	457.16
851.517	436.529
853.016	443.925
854.515	439.889
856.013	450.596
857.512	437.369
859.011	446.217
860.51	431.124
862.008	429.246
863.507	416.017
865.006	423.178
866.504	418.417
868.003	411.347
869.502	423.922
871	429.727
872.499	412.225
873.998	421.065
875.496	407.528
876.995	419.356
878.494	425.102
879.992	404.907
881.491	421.808
882.99	420.355
884.489	424.22
885.987	403.849
887.486	403.976
888.985	406.574
890.483	400.891
891.982	406.717
893.481	401.724
894.979	398.984
896.478	400.225
897.977	402.029
899.475	389.334
900.974	413.976
902.473	399.871
903.971	394.008
905.47	406.634
906.969	386.851
908.468	397.413
909.966	391.69
911.465	393.994
912.964	392.031
914.462	390.23
915.961	387.366
917.46	375.69
918.958	394.765
920.457	391.143
921.956	391.299
923.454	382.42
924.953	395.542
926.452	375.341
927.951	387.484
929.449	377.177
930.948	396.548
932.447	394.216
933.945	397.066
935.444	383.894
936.943	391.858
938.441	375.969
939.94	399.716
941.439	395.953
942.937	384.944
944.436	397.462
945.935	397.553
947.433	395.159
948.932	395.807
950.431	399.582
951.93	394.112
953.428	399.959
954.927	397.589
956.426	380.402
957.924	402.408
959.423	422.246
960.922	402.907
962.42	404.534
963.919	412.449
965.418	404.487
966.916	422.89
968.415	424.347
969.914	415.837
971.413	409.499
972.911	429.103
974.41	422.454
975.909	408.151
977.407	415.277
978.906	422.578
980.405	418.199
981.903	411.232
983.402	431.845
984.901	428.484
986.399	430.523
987.898	448.393
989.397	432.992
990.895	461.656
992.394	443.991
993.893	455.905
995.392	443.724
996.89	449.036
998.389	447.538
999.888	465.949
1001.39	469.256
1002.88	460.823
1004.38	461.949
1005.88	479.965
1007.38	466.584
1008.88	478.53
1010.38	462.409
1011.88	490.03
1013.38	494.052
1014.87	474.629
1016.37	494.881
1017.87	498.555
1019.37	497.232
1020.87	517.376
1022.37	512.675
1023.87	505.254
1025.37	526.884
1026.86	532.005
1028.36	532.929
1029.86	530.136
1031.36	544.658
1032.86	554.041
1034.36	551.812
1035.86	541.793
1037.35	556.268
1038.85	570.586
1040.35	563.128
1041.85	566.042
1043.35	575.182
1044.85	578.397
1046.35	568.484
1047.85	568.117
1049.34	590.507
1050.84	574.628
1052.34	596.706
1053.84	582.16
1055.34	585.166
1056.84	597.477
1058.34	590.44
1059.84	612.283
1061.33	610.871
1062.83	612.869
1064.33	614.676
1065.83	618.683
1067.33	632.571
1068.83	623.272
1070.33	633.04
1071.82	635.536
1073.32	642.05
1074.82	634.889
1076.32	648.348
1077.82	634.441
1079.32	670.648
1080.82	669.117
1082.32	654.6
1083.81	669.867
1085.31	679.909
1086.81	679.733
1088.31	670.177
1089.81	695.198
1091.31	702.701
1092.81	692.33
1094.3	700.319
1095.8	716.878
1097.3	716.891
1098.8	714.657
1100.3	750.457
1101.8	731.166
1103.3	717.958
1104.8	749.766
1106.29	748.198
1107.79	749.963
1109.29	754.191
1110.79	764.245
1112.29	773.208
1113.79	774.629
1115.29	780.021
1116.79	788.521
1118.28	789.666
1119.78	816.841
1121.28	799.89
1122.78	799.436
1124.28	817.625
1125.78	816.141
1127.28	824.336
1128.77	839.687
1130.27	875.495
1131.77	859.247
1133.27	882.432
1134.77	894.256
1136.27	894.699
1137.77	909.727
1139.27	917.874
1140.76	930.893
1142.26	928.897
1143.76	960.334
1145.26	953.738
1146.76	981.281
1148.26	986.268
1149.76	984.09
1151.26	1007.89
1152.75	1007.88
1154.25	1002.86
1155.75	1026.67
1157.25	1018.25
1158.75	1012.23
1160.25	1079.13
1161.75	1042.19
1163.24	1071.16
1164.74	1067.63
1166.24	1081.83
1167.74	1055.2
1169.24	1048.16
1170.74	1083.28
1172.24	1085.9
1173.74	1093.96
1175.23	1090.1
1176.73	1098.74
1178.23	1101.62
1179.73	1105.88
1181.23	1108.4
1182.73	1160.51
1184.23	1115.51
1185.72	1116.95
1187.22	1143.45
1188.72	1144.97
1190.22	1154.16
1191.72	1163.37
1193.22	1165.68
1194.72	1163.95
1196.22	1185.14
1197.71	1176.59
1199.21	1189.57
1200.71	1182.62
1202.21	1200.25
1203.71	1207.7
1205.21	1227.97
1206.71	1239.14
1208.21	1219.75
1209.7	1249.81
1211.2	1263.06
1212.7	1279.13
1214.2	1282.07
1215.7	1284.47
1217.2	1291.78
1218.7	1297.4
1220.19	1312.43
1221.69	1316.78
1223.19	1339.88
1224.69	1345.1
1226.19	1351.12
1227.69	1368.71
1229.19	1409.37
1230.69	1420.98
1232.18	1394.52
1233.68	1403.45
1235.18	1439.1
1236.68	1445.87
1238.18	1489.4
1239.68	1503.44
1241.18	1504.92
1242.68	1508.16
1244.17	1566.04
1245.67	1552.26
1247.17	1568.45
1248.67	1596.77
1250.17	1586.56
1251.67	1651.73
1253.17	1624.4
1254.66	1669.36
1256.16	1676.58
1257.66	1723.32
1259.16	1716.14
1260.66	1748.23
1262.16	1776.15
1263.66	1799.26
1265.16	1812.48
1266.65	1881.81
1268.15	1902.86
1269.65	1895.11
1271.15	1930.37
1272.65	1960.9
1274.15	2009.06
1275.65	2029.36
1277.15	2032.65
1278.64	2056.07
1280.14	2087.35
1281.64	2138.04
1283.14	2161.53
1284.64	2206.1
1286.14	2230.25
1287.64	2242.87
1289.13	2286.48
1290.63	2327.38
1292.13	2370.69
1293.63	2418.09
1295.13	2429.96
1296.63	2491.08
1298.13	2533.72
1299.63	2610.91
1301.12	2602.71
1302.62	2671.46
1304.12	2694.41
1305.62	2755.41
1307.12	2800.26
1308.62	2816.43
1310.12	2884.84
1311.61	2911.85
1313.11	2981.01
1314.61	3017.84
1316.11	3030.13
1317.61	3078.77
1319.11	3138.04
1320.61	3164.55
1322.11	3186.68
1323.6	3292.22
1325.1	3251.67
1326.6	3265.12
1328.1	3367.62
1329.6	3375.31
1331.1	3372.92
1332.6	3413.94
1334.1	3409.35
1335.59	3402.23
1337.09	3399.06
1338.59	3433.4
1340.09	3486.67
1341.59	3429.06
1343.09	3417.73
1344.59	3421.81
1346.08	3434.89
1347.58	3433.98
1349.08	3434.59
1350.58	3331.08
1352.08	3348.44
1353.58	3346.73
1355.08	3299.97
1356.58	3274.79
1358.07	3237.47
1359.57	3149.85
1361.07	3213.72
1362.57	3142.7
1364.07	3103.06
1365.57	3034.94
1367.07	3042.05
1368.57	3010.54
1370.06	2984.11
1371.56	2870.34
1373.06	2841.23
1374.56	2849.78
1376.06	2776.15
1377.56	2781.14
1379.06	2713.1
1380.55	2685.7
1382.05	2594.09
1383.55	2614.43
1385.05	2528.06
1386.55	2497.01
1388.05	2515.37
1389.55	2443.09
1391.05	2447.26
1392.54	2343.39
1394.04	2352.62
1395.54	2308.48
1397.04	2295.64
1398.54	2252.52
1400.04	2239.1
1401.54	2222.16
1403.03	2166.74
1404.53	2159.96
1406.03	2121.05
1407.53	2099.07
1409.03	2097.55
1410.53	2066.62
1412.03	2052.04
1413.53	2041.9
1415.02	2016.7
1416.52	2011.84
1418.02	1963.43
1419.52	1972.33
1421.02	1945.46
1422.52	1943.34
1424.02	1913.7
1425.52	1908.83
1427.01	1914.85
1428.51	1878.3
1430.01	1879.47
1431.51	1903.89
1433.01	1816.86
1434.51	1841.37
1436.01	1805.28
1437.5	1813.19
1439	1798.72
1440.5	1798.3
1442	1795.51
1443.5	1781.99
1445	1785.04
1446.5	1765.18
1448	1795.63
1449.49	1800.15
1450.99	1751.3
1452.49	1751
1453.99	1734.47
1455.49	1757.8
1456.99	1747.63
1458.49	1723.21
1459.98	1746.4
1461.48	1752.42
1462.98	1726.79
1464.48	1751.59
1465.98	1743.66
1467.48	1708.42
1468.98	1764.32
1470.48	1738.36
1471.97	1737.68
1473.47	1735.75
1474.97	1729.02
1476.47	1713.14
1477.97	1720.02
1479.47	1711.01
1480.97	1733.26
1482.47	1727.46
1483.96	1712.34
1485.46	1706.64
1486.96	1708.39
1488.46	1727.41
1489.96	1742.14
1491.46	1736.87
1492.96	1759.58
1494.45	1707.57
1495.95	1704.54
1497.45	1757.01
1498.95	1735.79
1500.45	1735.07
1501.95	1736.77
1503.45	1735.13
1504.95	1744.46
1506.44	1744.03
1507.94	1754.31
1509.44	1713.22
1510.94	1750.09
1512.44	1741.94
1513.94	1746.5
1515.44	1757.37
1516.94	1766.09
1518.43	1790.34
1519.93	1811.3
1521.43	1789.3
1522.93	1819.06
1524.43	1780.76
1525.93	1786.18
1527.43	1802.74
1528.92	1814.22
1530.42	1843.24
1531.92	1867.08
1533.42	1847.83
1534.92	1887.99
1536.42	1901.14
1537.92	1909.05
1539.42	1930.36
1540.91	1949.4
1542.41	1985.61
1543.91	1998.17
1545.41	2018.95
1546.91	2033.08
1548.41	2069.74
1549.91	2111.86
1551.41	2112.14
1552.9	2184.85
1554.4	2194.96
1555.9	2238.49
1557.4	2240.12
1558.9	2304.3
1560.4	2326.5
1561.9	2375.21
1563.39	2412.3
1564.89	2429.55
1566.39	2509.58
1567.89	2542.95
1569.39	2613.67
1570.89	2643.32
1572.39	2715.67
1573.89	2749.12
1575.38	2808.11
1576.88	2884.11
1578.38	2943.66
1579.88	3017.96
1581.38	3061.63
1582.88	3096.68
1584.38	3184.12
1585.87	3181.63
1587.37	3225.48
1588.87	3335.41
1590.37	3340.71
1591.87	3376.63
1593.37	3419.67
1594.87	3412.17
1596.37	3411.55
1597.86	3408.54
1599.36	3409.14
1600.86	3410.8
1602.36	3386.62
1603.86	3321.09
1605.36	3284.13
1606.86	3282.14
1608.36	3191.94
1609.85	3146.69
1611.35	3071.93
1612.85	3019.01
1614.35	2909.59
1615.85	2823.98
1617.35	2736.68
1618.85	2659.83
1620.34	2546.6
1621.84	2482.75
1623.34	2337.63
1624.84	2255.64
1626.34	2176.58
1627.84	2049.8
1629.34	1989.39
1630.84	1894.16
1632.33	1817.84
1633.83	1743.35
1635.33	1677.92
1636.83	1631.68
1638.33	1545.83
1639.83	1486.6
1641.33	1413.22
1642.83	1376.1
1644.32	1336.68
1645.82	1289.67
1647.32	1241.22
1648.82	1178.78
1650.32	1162.05
1651.82	1097.73
1653.32	1085.47
1654.81	1046.71
1656.31	1011.59
1657.81	950.451
1659.31	925.711
1660.81	905.143
1662.31	877.544
1663.81	810.621
1665.31	813.884
1666.8	791.382
1668.3	766.863
1669.8	729.899
1671.3	711.962
1672.8	687.557
1674.3	655.278
1675.8	636.029
1677.29	606.452
1678.79	611.8
1680.29	573.637
1681.79	559.136
1683.29	552.859
1684.79	545.583
1686.29	520.334
1687.79	510.322
1689.28	500.476
1690.78	504.72
1692.28	484.44
1693.78	482.69
1695.28	480.814
1696.78	455.818
1698.28	455.824
1699.78	441.794
1701.27	444.593
1702.77	432.604
1704.27	419.646
1705.77	428.368
1707.27	412.725
1708.77	411.363
1710.27	416.235
1711.76	404.818
1713.26	401.383
1714.76	401.802
1716.26	392.29
1717.76	381.647
1719.26	395.203
1720.76	381.717
1722.26	388.376
1723.75	376.381
1725.25	363.301
1726.75	364.82
1728.25	360.208
1729.75	362.597
1731.25	348.196
1732.75	347.746
1734.24	355.654
1735.74	345.896
1737.24	344.066
1738.74	342.973
1740.24	331.821
1741.74	342.577
1743.24	336.229
1744.74	333.05
1746.23	335.395
1747.73	330.846
1749.23	331.826
1750.73	324.659
1752.23	324.968
1753.73	331.954
1755.23	332.699
1756.73	325.11
1758.22	328.69
1759.72	323.313
1761.22	317.733
1762.72	311.034
1764.22	318.774
1765.72	320.594
1767.22	319.903
1768.71	308.737
1770.21	317.019
1771.71	308.279
1773.21	304.147
1774.71	304.063
1776.21	313.138
1777.71	305.088
1779.21	305.815
1780.7	302.787
1782.2	309.463
1783.7	307.922
1785.2	304.48
1786.7	299.314
1788.2	297.32
1789.7	291.928
1791.2	286.64
1792.69	299.78
1794.19	297.991
1795.69	296.5
1797.19	282.389
1798.69	293.142
1800.19	305.462
1801.69	293.883
1803.18	291.972
1804.68	289.071
1806.18	292.709
1807.68	300.736
1809.18	288.314
1810.68	301.382
1812.18	297.245
1813.68	295.018
1815.17	300.521
1816.67	301.103
1818.17	288.495
1819.67	279.781
1821.17	282.074
1822.67	282.292
1824.17	291.166
1825.67	289.879
1827.16	282.871
1828.66	291.817
1830.16	299.112
1831.66	294.694
1833.16	288.21
1834.66	297.612
1836.16	292.595
1837.65	292.198
1839.15	292.108
1840.65	302.917
1842.15	286.431
1843.65	298.387
1845.15	288.662
1846.65	294.942
1848.15	275.609
1849.64	277.6
1851.14	293.008
1852.64	286.15
1854.14	300.002
1855.64	292.335
1857.14	291.486
1858.64	293.429
1860.13	271.392
1861.63	286.419
1863.13	282.158
1864.63	295.765
1866.13	294.103
1867.63	300.25
1869.13	288.382
1870.63	285.337
1872.12	286.733
1873.62	286.491
1875.12	275.393
1876.62	294.868
1878.12	291.899
1879.62	285.225
1881.12	280.782
1882.62	292.607
1884.11	292.648
1885.61	286.655
1887.11	292.661
1888.61	287.898
1890.11	273.819
1891.61	282.648
1893.11	282.646
1894.6	276.801
1896.1	273.058
1897.6	276.233
1899.1	277.419
1900.6	272.016
1902.1	287.132
1903.6	281.876
1905.1	280.944
1906.59	285.948
1908.09	280.446
1909.59	285.771
1911.09	282.551
1912.59	280.859
1914.09	281.812
1915.59	289.944
1917.09	277.503
1918.58	273.735
1920.08	264.256
1921.58	283.282
1923.08	283.612
1924.58	283.351
1926.08	286.407
1927.58	279.114
1929.07	282.579
1930.57	275.562
1932.07	275.736
1933.57	292.738
1935.07	270.83
1936.57	279.226
1938.07	280.883
1939.57	279.863
1941.06	270.925
1942.56	278.255
1944.06	270.953
1945.56	273.173
1947.06	282.505
1948.56	269.831
1950.06	277.046
1951.55	272.001
1953.05	273.897
1954.55	285.967
1956.05	265.348
1957.55	274.484
1959.05	271.688
1960.55	274.712
1962.05	266.163
1963.54	280.935
1965.04	292.404
1966.54	274.605
1968.04	275.751
1969.54	282.549
1971.04	282.177
1972.54	282.16
1974.04	286.761
1975.53	284.031
1977.03	278.966
1978.53	274.535
1980.03	270.642
1981.53	276.219
1983.03	269.704
1984.53	269.315
1986.02	275.666
1987.52	274.042
1989.02	278.387
1990.52	273.63
1992.02	289.568
1993.52	281.281
1995.02	278.667
1996.52	279.736
1998.01	280.64
1999.51	278.432
2001.01	280.905
2002.51	288.713
2004.01	280.752
2005.51	287.904
2007.01	287.06
2008.51	293.333
2010	278.734
2011.5	287.288
2013	289.3
2014.5	275.338
2016	275.052
2017.5	278.467
2019	283.293
2020.49	284.744
2021.99	284.097
2023.49	282.126
2024.99	274.465
2026.49	284.748
2027.99	280.845
2029.49	289.549
2030.99	278.593
2032.48	287.081
2033.98	276.949
2035.48	282.14
2036.98	279.529
2038.48	279.776
2039.98	289.454
2041.48	280.935
2042.97	284.854
2044.47	285.181
2045.97	280.905
2047.47	281.338
2048.97	287.606
2050.47	284.641
2051.97	274.241
2053.47	272.955
2054.96	284.177
2056.46	279.516
2057.96	277.951
2059.46	283.814
2060.96	277.815
2062.46	284.044
2063.96	284.023
2065.46	280.434
2066.95	280.895
2068.45	275.366
2069.95	279.718
2071.45	278.042
2072.95	276.988
2074.45	274.524
2075.95	271.713
2077.44	283.851
2078.94	277.973
2080.44	276.893
2081.94	270.166
2083.44	285.182
2084.94	267.49
2086.44	267.949
2087.94	278.517
2089.43	264.906
2090.93	274.371
2092.43	267.298
2093.93	270.057
2095.43	282.362
2096.93	286.419
2098.43	258.605
2099.93	286.917
2101.42	283.661
2102.92	285.897
2104.42	277.747
2105.92	277.838
2107.42	278.03
2108.92	261.393
2110.42	269.043
2111.91	276.853
2113.41	281.619
2114.91	270.745
2116.41	280.698
2117.91	285.023
2119.41	277.579
2120.91	285.22
2122.41	280.985
2123.9	277.353
2125.4	277.404
2126.9	279.905
2128.4	277.163
2129.9	284.014
2131.4	273.719
2132.9	279.123
2134.4	280.486
2135.89	284.085
2137.39	279.861
2138.89	277.32
2140.39	277.771
2141.89	276.224
2143.39	282.491
2144.89	288.068
2146.38	283.291
2147.88	282.784
2149.38	283.644
2150.88	285.807
2152.38	269.067
2153.88	284.919
2155.38	281.781
2156.88	277.396
2158.37	282.202
2159.87	275.899
2161.37	288.846
2162.87	363.093
2164.37	304.186
2165.87	281.058
2167.37	278.243
2168.86	293.263
2170.36	279.257
2171.86	280.179
2173.36	294.339
2174.86	292.551
2176.36	285.809
2177.86	279.669
2179.36	297.029
2180.85	284.432
2182.35	269.994
2183.85	284.719
2185.35	287.285
2186.85	293.124
2188.35	284.581
2189.85	290.59
2191.34	279.023
2192.84	284.223
2194.34	292.291
2195.84	290.041
2197.34	287.98
2198.84	298.578
2200.34	286.183
2201.84	284.11
2203.33	292.437
2204.83	291.459
2206.33	283.303
2207.83	276.395
2209.33	296.997
2210.83	286.068
2212.33	283.491
2213.83	294.049
2215.32	286.089
2216.82	285.96
2218.32	289.994
2219.82	288.768
2221.32	297.557
2222.82	279.147
2224.32	287.444
2225.81	294.595
2227.31	288.104
2228.81	305.037
2230.31	291.047
2231.81	295.401
2233.31	292.664
2234.81	287.217
2236.31	298.569
2237.8	301.474
2239.3	279.159
2240.8	297.531
2242.3	294.172
2243.8	290.855
2245.3	289.239
2246.8	300.414
2248.3	285.859
2249.79	294.756
2251.29	294.404
2252.79	293.953
2254.29	292.561
2255.79	294.553
2257.29	303.972
2258.79	303.922
2260.28	303.311
2261.78	305.501
2263.28	299.085
2264.78	296.729
2266.28	310.106
2267.78	292.433
2269.28	307.114
2270.78	304.228
2272.27	299.294
2273.77	299.359
2275.27	302.443
2276.77	299.82
2278.27	297.405
2279.77	310.995
2281.27	307.684
2282.77	302.26
2284.26	309.665
2285.76	313.249
2287.26	307.751
2288.76	315.231
2290.26	325.49
2291.76	309.377
2293.26	296.391
2294.75	309.475
2296.25	306.753
2297.75	323.105
2299.25	304.382
2300	318.443