File: Example Data/Raman/CNT - TIM/Raytheon/Microwave/Test 1/CNT-MW - T1 - 0 sec - bottom.txt
300	328.898
301.499	343.602
302.997	361.631
304.496	367.197
305.995	344.785
307.493	344.306
308.992	366.075
310.491	345.096
311.99	332.986
313.488	350.976
314.987	343.356
316.486	349.423
317.984	341.554
319.483	349.748
320.982	347.415
322.48	332.709
323.979	338.143
325.478	347.295
326.976	324.315
328.475	333.74
329.974	348.772
331.472	328.587
332.971	331.724
334.47	335.591
335.969	333.062
337.467	331.082
338.966	334.05
340.465	339.025
341.963	333.793
343.462	351.527
344.961	339.238
346.459	331.9
347.958	324.354
349.457	334.363
350.955	334.256
352.454	329.14
353.953	348.852
355.451	333.313
356.95	330.352
358.449	328.209
359.948	325.372
361.446	341.655
362.945	322.524
364.444	338.879
365.942	323.088
367.441	329.923
368.94	327.673
370.438	341.597
371.937	321.593
373.436	319.913
374.934	334.892
376.433	332.509
377.932	324.514
379.431	330.319
380.929	314.464
382.428	329.039
383.927	326.686
385.425	318.798
386.924	320.662
388.423	324.125
389.921	312.297
391.42	306.944
392.919	324.459
394.417	326.856
395.916	315.923
397.415	308.303
398.913	317.5
400.412	321.9
401.911	311.654
403.41	319.137
404.908	319.367
406.407	315.961
407.906	303.418
409.404	312.207
410.903	307.086
412.402	317.198
413.9	311.622
415.399	306.689
416.898	320.867
418.396	314.865
419.895	309.98
421.394	320.732
422.892	310.488
424.391	301.545
425.89	304.742
427.389	302.397
428.887	314.822
430.386	306.323
431.885	302.862
433.383	300.931
434.882	297.935
436.381	313.103
437.879	306.235
439.378	292.701
440.877	305.95
442.375	317.23
443.874	296.83
445.373	299.286
446.871	299.4
448.37	305.604
449.869	307.875
451.368	298.603
452.866	279.552
454.365	295.348
455.864	293.249
457.362	299.113
458.861	303.441
460.36	292.84
461.858	280.43
463.357	293.982
464.856	296.676
466.354	295.018
467.853	285.624
469.352	293.619
470.85	283.417
472.349	286.697
473.848	283.5
475.347	283.837
476.845	282.018
478.344	279.022
479.843	274.744
481.341	281.947
482.84	290.278
484.339	270.876
485.837	274.245
487.336	270.805
488.835	253.167
490.333	268.786
491.832	271.006
493.331	268.939
494.83	269.406
496.328	267.028
497.827	262.921
499.326	262.769
500.824	264.755
502.323	260.737
503.822	253.572
505.32	259.339
506.819	261.857
508.318	261.234
509.816	260.979
511.315	259.997
512.814	258.43
514.3125	247.24
515.811	259.882
517.31	254.901
518.809	263.298
520.307	255.145
521.806	254.062
523.305	249.879
524.803	262.528
526.302	254.075
527.801	256.214
529.299	254.644
530.798	254.124
532.297	258.804
533.795	267.49
535.294	279.158
536.793	260.326
538.292	268.134
539.79	253.436
541.289	247.455
542.788	261.193
544.286	256.942
545.785	266.751
547.284	263.365
548.782	268.361
550.281	260.67
551.78	266.819
553.278	260.369
554.777	263.314
556.276	261.576
557.774	274.912
559.273	264.719
560.772	260.195
562.271	262.405
563.769	267.94
565.268	259.746
566.767	262.459
568.265	266.72
569.764	264.05
571.263	270.471
572.761	263.311
574.26	260.527
575.759	261.693
577.257	275.422
578.756	275.5
580.255	275.126
581.753	261.637
583.252	274.269
584.751	270.032
586.25	272.076
587.748	266.3
589.247	281.493
590.746	259.206
592.244	281.686
593.743	268.462
595.242	266.583
596.74	269.604
598.239	266.924
599.738	275.151
601.236	275.837
602.735	286.01
604.234	258.769
605.732	279.441
607.231	282.877
608.73	277.484
610.229	278.661
611.727	280.621
613.226	292.956
614.725	272.826
616.223	278.539
617.722	267.356
619.221	273.851
620.719	278.601
622.218	287.046
623.717	282.616
625.215	283.381
626.714	293.857
628.213	281.868
629.711	275.301
631.21	277.792
632.709	279.977
634.208	283.021
635.706	273.536
637.205	291.604
638.704	297.363
640.202	298.053
641.701	289.079
643.2	289.535
644.698	291.292
646.197	288.936
647.696	285.548
649.194	282.911
650.693	295.617
652.192	306.195
653.69	283.093
655.189	292.49
656.688	297.027
658.187	278.049
659.685	284.116
661.184	301.926
662.683	287.946
664.181	291.487
665.68	280.662
667.179	293.594
668.677	295.222
670.176	295.264
671.675	294.5
673.173	293.389
674.672	290.764
676.171	299.698
677.67	295.606
679.168	299.626
680.667	291.193
682.166	301.816
683.664	281.652
685.163	300.028
686.662	296.15
688.16	297.2
689.659	304.772
691.158	293.501
692.656	300.001
694.155	285.777
695.654	297.625
697.152	302.43
698.651	305.326
700.15	293.331
701.649	301.082
703.147	292.25
704.646	287.872
706.145	298.808
707.643	294.755
709.142	316.45
710.641	304.739
712.139	312.803
713.638	301.798
715.137	301.105
716.635	310.426
718.134	308.736
719.633	309.61
721.132	316.321
722.63	304.384
724.129	307.246
725.628	307.228
727.126	308.323
728.625	325.985
730.124	319.25
731.622	311.309
733.121	312.418
734.62	327.63
736.118	321.614
737.617	325.364
739.116	323.799
740.614	323.743
742.113	321.414
743.612	326.045
745.111	321.743
746.609	332.087
748.108	326.032
749.607	328.201
751.105	335.16
752.604	326.856
754.103	335
755.601	338.422
757.1	340.898
758.599	338.096
760.097	332.469
761.596	338.89
763.095	339.782
764.594	338.377
766.092	346.801
767.591	339.652
769.09	334.616
770.588	344.368
772.087	332.924
773.586	342.449
775.084	343.127
776.583	335.154
778.082	341.163
779.58	336.733
781.079	336.103
782.578	342.672
784.076	344.323
785.575	346.293
787.074	361.609
788.573	352.6
790.071	347.5
791.57	351.837
793.069	355.944
794.567	350.677
796.066	356.037
797.565	352.685
799.063	357.103
800.562	357.589
802.061	357.219
803.559	368.772
805.058	367.944
806.557	356.348
808.055	366.977
809.554	364.672
811.053	363.84
812.552	370.27
814.05	369.307
815.549	359.332
817.048	358.807
818.546	367.326
820.045	367.884
821.544	364.356
823.042	371.944
824.541	364.799
826.04	374.548
827.538	359.257
829.037	359.614
830.536	374.169
832.034	380.21
833.533	371.691
835.032	363.611
836.531	369.542
838.029	383.076
839.528	370.386
841.027	378.618
842.525	387.152
844.024	370.538
845.523	376.207
847.021	381.49
848.52	381.33
850.019	380.018
851.517	372.371
853.016	386.64
854.515	375.154
856.013	364.318
857.512	380.348
859.011	381.491
860.51	372.537
862.008	374.973
863.507	355.36
865.006	359.767
866.504	365.116
868.003	362.836
869.502	355.999
871	350.728
872.499	356.677
873.998	361.997
875.496	350.169
876.995	342.352
878.494	353.888
879.992	346.342
881.491	352.419
882.99	350.847
884.489	344.552
885.987	350.676
887.486	344.647
888.985	334.74
890.483	335.277
891.982	349.001
893.481	347.104
894.979	357.444
896.478	315.711
897.977	312.173
899.475	336.769
900.974	336.432
902.473	325.774
903.971	321.085
905.47	338.747
906.969	328.335
908.468	318.859
909.966	323.524
911.465	322.269
912.964	322.602
914.462	320.67
915.961	324.941
917.46	313.829
918.958	327.523
920.457	322.854
921.956	314.418
923.454	332.167
924.953	316.939
926.452	316.628
927.951	331.165
929.449	323.03
930.948	330.02
932.447	309.124
933.945	319.963
935.444	325.512
936.943	325.307
938.441	311.005
939.94	321.575
941.439	331.575
942.937	320.57
944.436	336.663
945.935	320.18
947.433	331.888
948.932	323.664
950.431	327.42
951.93	334.648
953.428	334.851
954.927	314.696
956.426	328.507
957.924	327.076
959.423	327.04
960.922	324.176
962.42	331.854
963.919	333.493
965.418	327.441
966.916	333.371
968.415	322.554
969.914	335.699
971.413	335.65
972.911	334.671
974.41	340.085
975.909	348.069
977.407	346.136
978.906	340.708
980.405	328.169
981.903	345.009
983.402	342.719
984.901	350.782
986.399	343.43
987.898	363.231
989.397	350.733
990.895	351.383
992.394	357.601
993.893	360.046
995.392	365.534
996.89	364
998.389	360.352
999.888	378.928
1001.39	377.806
1002.88	370.494
1004.38	371.435
1005.88	387.638
1007.38	394.321
1008.88	378.332
1010.38	395.538
1011.88	385.95
1013.38	398.793
1014.87	384.866
1016.37	393.773
1017.87	384.362
1019.37	400.937
1020.87	403.467
1022.37	408.693
1023.87	419.065
1025.37	409.138
1026.86	408.002
1028.36	420.533
1029.86	440.202
1031.36	426.352
1032.86	421.125
1034.36	437.323
1035.86	443.192
1037.35	449.317
1038.85	437.088
1040.35	447.623
1041.85	438.131
1043.35	448.64
1044.85	465.206
1046.35	458.561
1047.85	451.882
1049.34	464.688
1050.84	460.319
1052.34	459.513
1053.84	463.031
1055.34	456.135
1056.84	465.162
1058.34	465.254
1059.84	484.259
1061.33	483.726
1062.83	484.533
1064.33	486.456
1065.83	475.153
1067.33	483.337
1068.83	486.01
1070.33	493.26
1071.82	507.511
1073.32	495.603
1074.82	503.139
1076.32	521.476
1077.82	500.168
1079.32	507.022
1080.82	508.355
1082.32	525.275
1083.81	520.458
1085.31	527.082
1086.81	516.227
1088.31	531.82
1089.81	538.221
1091.31	546.734
1092.81	540.286
1094.3	540.032
1095.8	544.97
1097.3	543.161
1098.8	553.063
1100.3	552.871
1101.8	553.478
1103.3	556.208
1104.8	574.424
1106.29	580.803
1107.79	576.315
1109.29	579.876
1110.79	593.433
1112.29	590.193
1113.79	601.416
1115.29	593.399
1116.79	613.633
1118.28	598.512
1119.78	610.54
1121.28	617.525
1122.78	615.985
1124.28	619.984
1125.78	641.436
1127.28	635.002
1128.77	661.416
1130.27	663.318
1131.77	664.379
1133.27	661.526
1134.77	665.499
1136.27	693.294
1137.77	691.138
1139.27	702.192
1140.76	696.724
1142.26	730.453
1143.76	736.772
1145.26	745.45
1146.76	738.617
1148.26	747.001
1149.76	765.425
1151.26	774.144
1152.75	760.419
1154.25	773.808
1155.75	768.843
1157.25	788.996
1158.75	794.192
1160.25	793.881
1161.75	788.464
1163.24	788.887
1164.74	815.348
1166.24	817.026
1167.74	804.899
1169.24	823.239
1170.74	835.849
1172.24	826.198
1173.74	817.254
1175.23	846.973
1176.73	835.611
1178.23	837.908
1179.73	835.824
1181.23	844.823
1182.73	859.932
1184.23	861.383
1185.72	863.013
1187.22	856.505
1188.72	862.215
1190.22	862.723
1191.72	883.516
1193.22	868.293
1194.72	873.266
1196.22	889.305
1197.71	888.227
1199.21	918.395
1200.71	902.082
1202.21	919.643
1203.71	908.531
1205.21	935.763
1206.71	931.239
1208.21	930.099
1209.7	939.142
1211.2	950.368
1212.7	958.463
1214.2	969.075
1215.7	979.799
1217.2	962.548
1218.7	998.982
1220.19	979.697
1221.69	988.309
1223.19	983.185
1224.69	1011.15
1226.19	1019.64
1227.69	1017.51
1229.19	1047.98
1230.69	1038.28
1232.18	1064.58
1233.68	1052.89
1235.18	1062.28
1236.68	1096.04
1238.18	1100.77
1239.68	1099.81
1241.18	1130.14
1242.68	1102.5
1244.17	1126.6
1245.67	1137.42
1247.17	1152.7
1248.67	1163.27
1250.17	1190.15
1251.67	1202.46
1253.17	1225.71
1254.66	1231.91
1256.16	1219.13
1257.66	1240.37
1259.16	1253.37
1260.66	1277.75
1262.16	1301.5
1263.66	1301.9
1265.16	1338.77
1266.65	1361.86
1268.15	1351.2
1269.65	1364.03
1271.15	1442.26
1272.65	1429.36
1274.15	1466.84
1275.65	1452.6
1277.15	1507.77
1278.64	1522.57
1280.14	1517.33
1281.64	1539.6
1283.14	1559.43
1284.64	1600.43
1286.14	1615.1
1287.64	1652.3
1289.13	1675.61
1290.63	1701.28
1292.13	1705.36
1293.63	1731.52
1295.13	1755.77
1296.63	1821.68
1298.13	1837.63
1299.63	1845.6
1301.12	1876.64
1302.62	1925.28
1304.12	1912.44
1305.62	1949.09
1307.12	1985.34
1308.62	2004.27
1310.12	2062.31
1311.61	2075.92
1313.11	2113.58
1314.61	2146.7
1316.11	2162.53
1317.61	2202.98
1319.11	2234.86
1320.61	2245.73
1322.11	2313.92
1323.6	2302.11
1325.1	2291.42
1326.6	2335.29
1328.1	2375.93
1329.6	2382.54
1331.1	2362.23
1332.6	2379.83
1334.1	2402.02
1335.59	2404.07
1337.09	2404.63
1338.59	2443.61
1340.09	2420.27
1341.59	2405.72
1343.09	2411.91
1344.59	2403.6
1346.08	2398.17
1347.58	2387.96
1349.08	2402.03
1350.58	2318.36
1352.08	2335.09
1353.58	2292.74
1355.08	2314.12
1356.58	2296.68
1358.07	2272.7
1359.57	2250.76
1361.07	2223.62
1362.57	2204.18
1364.07	2169.13
1365.57	2161.91
1367.07	2124.8
1368.57	2084.2
1370.06	2114.13
1371.56	2040.25
1373.06	1999.06
1374.56	2011.27
1376.06	2007.48
1377.56	1941.26
1379.06	1956.93
1380.55	1914.12
1382.05	1873.01
1383.55	1826.28
1385.05	1823.63
1386.55	1826.11
1388.05	1797.96
1389.55	1733.9
1391.05	1747.32
1392.54	1716.24
1394.04	1718.47
1395.54	1673.09
1397.04	1645.21
1398.54	1655.52
1400.04	1599.91
1401.54	1602.57
1403.03	1564.01
1404.53	1550.06
1406.03	1541.71
1407.53	1491.07
1409.03	1525.05
1410.53	1486.85
1412.03	1501.77
1413.53	1459.77
1415.02	1462.28
1416.52	1449.58
1418.02	1425.78
1419.52	1434.62
1421.02	1388.88
1422.52	1413.01
1424.02	1403.96
1425.52	1390.46
1427.01	1359.69
1428.51	1338.88
1430.01	1352.44
1431.51	1349.31
1433.01	1327.41
1434.51	1345.5
1436.01	1335.18
1437.5	1326.54
1439	1344.19
1440.5	1314.92
1442	1285.91
1443.5	1291.8
1445	1275.74
1446.5	1303.24
1448	1292.14
1449.49	1323.53
1450.99	1267.36
1452.49	1277.94
1453.99	1285.76
1455.49	1280.08
1456.99	1266.71
1458.49	1240.37
1459.98	1242.54
1461.48	1253.16
1462.98	1257.75
1464.48	1269.6
1465.98	1261.97
1467.48	1269.95
1468.98	1265.58
1470.48	1257.19
1471.97	1248.08
1473.47	1241.47
1474.97	1265.09
1476.47	1246.81
1477.97	1256
1479.47	1265.58
1480.97	1248.31
1482.47	1233.09
1483.96	1235.21
1485.46	1256.58
1486.96	1269.93
1488.46	1253.8
1489.96	1252.56
1491.46	1229.11
1492.96	1245.5
1494.45	1277.17
1495.95	1253
1497.45	1240.35
1498.95	1251.13
1500.45	1258.11
1501.95	1279
1503.45	1256.55
1504.95	1287.59
1506.44	1274.88
1507.94	1259.6
1509.44	1269.58
1510.94	1295.05
1512.44	1284.49
1513.94	1260.6
1515.44	1287.07
1516.94	1268.37
1518.43	1287.01
1519.93	1290.04
1521.43	1300.75
1522.93	1306.29
1524.43	1314.64
1525.93	1276.51
1527.43	1319.74
1528.92	1334.73
1530.42	1357.26
1531.92	1346.63
1533.42	1347.57
1534.92	1371.77
1536.42	1391.23
1537.92	1398.81
1539.42	1404.98
1540.91	1415
1542.41	1411.79
1543.91	1458.25
1545.41	1470.36
1546.91	1490.92
1548.41	1514.11
1549.91	1516.39
1551.41	1553.97
1552.9	1587.54
1554.4	1601.3
1555.9	1637.28
1557.4	1621.48
1558.9	1676.16
1560.4	1690.12
1561.9	1712.42
1563.39	1756.55
1564.89	1793.06
1566.39	1829.23
1567.89	1857.83
1569.39	1917.83
1570.89	1917.52
1572.39	1977.87
1573.89	1994.16
1575.38	2013.41
1576.88	2095.7
1578.38	2106.98
1579.88	2155.5
1581.38	2220.94
1582.88	2267.8
1584.38	2285.04
1585.87	2314.2
1587.37	2324.63
1588.87	2357.46
1590.37	2387.43
1591.87	2409.68
1593.37	2421.18
1594.87	2425.26
1596.37	2425.73
1597.86	2419.93
1599.36	2442.57
1600.86	2401.93
1602.36	2408.41
1603.86	2383.62
1605.36	2342.69
1606.86	2302.76
1608.36	2270.3
1609.85	2171.11
1611.35	2149.47
1612.85	2075.55
1614.35	2040.65
1615.85	1981.55
1617.35	1917.94
1618.85	1826.02
1620.34	1748.38
1621.84	1670.07
1623.34	1617
1624.84	1562.69
1626.34	1508.77
1627.84	1411.52
1629.34	1373.26
1630.84	1308.74
1632.33	1270.4
1633.83	1215.13
1635.33	1180.82
1636.83	1147.3
1638.33	1085.37
1639.83	1058.94
1641.33	1022.56
1642.83	993.274
1644.32	936.582
1645.82	925.546
1647.32	899.332
1648.82	885.18
1650.32	830.47
1651.82	792.725
1653.32	784.161
1654.81	741.292
1656.31	724.461
1657.81	697.272
1659.31	678.339
1660.81	655.131
1662.31	613.556
1663.81	609.799
1665.31	577.598
1666.8	556.021
1668.3	550.424
1669.8	533.956
1671.3	508.432
1672.8	507.524
1674.3	481.967
1675.8	477.381
1677.29	466.281
1678.79	438.963
1680.29	432.697
1681.79	417.53
1683.29	415.672
1684.79	402.754
1686.29	394.363
1687.79	379.291
1689.28	380.696
1690.78	380.823
1692.28	363.722
1693.78	363.172
1695.28	346.483
1696.78	350.777
1698.28	353.623
1699.78	326.305
1701.27	342.881
1702.77	324.869
1704.27	333.785
1705.77	329.282
1707.27	322.087
1708.77	322.222
1710.27	307.767
1711.76	304.042
1713.26	303.9
1714.76	294.391
1716.26	294.762
1717.76	293.212
1719.26	294.363
1720.76	282.537
1722.26	281.884
1723.75	283.491
1725.25	279.839
1726.75	274.745
1728.25	280.507
1729.75	271.528
1731.25	277.678
1732.75	266.337
1734.24	271.331
1735.74	267.401
1737.24	256.218
1738.74	258.727
1740.24	257.595
1741.74	256.78
1743.24	264.261
1744.74	253.13
1746.23	258.723
1747.73	255.959
1749.23	262.593
1750.73	252.607
1752.23	248.633
1753.73	251.001
1755.23	252.706
1756.73	247.751
1758.22	245.509
1759.72	244.812
1761.22	247.311
1762.72	246.84
1764.22	241.532
1765.72	248.115
1767.22	248.255
1768.71	245.05
1770.21	247.14
1771.71	242.51
1773.21	250.642
1774.71	236.361
1776.21	233.896
1777.71	236.963
1779.21	237.68
1780.7	235.993
1782.2	244.003
1783.7	239.458
1785.2	238.565
1786.7	228.187
1788.2	239.064
1789.7	231.916
1791.2	231.653
1792.69	245.859
1794.19	227.149
1795.69	234.641
1797.19	227.65
1798.69	232.493
1800.19	236.586
1801.69	233.358
1803.18	235.849
1804.68	231.855
1806.18	236.56
1807.68	234.724
1809.18	232.485
1810.68	227.921
1812.18	240.589
1813.68	225.8
1815.17	227.539
1816.67	229.055
1818.17	218.227
1819.67	225.555
1821.17	232.035
1822.67	238.65
1824.17	221.039
1825.67	217.868
1827.16	223.465
1828.66	230.798
1830.16	236.191
1831.66	237.632
1833.16	222.164
1834.66	214.72
1836.16	218.999
1837.65	222.829
1839.15	213.708
1840.65	223.297
1842.15	218.764
1843.65	230.05
1845.15	219.922
1846.65	228.769
1848.15	224.326
1849.64	219.157
1851.14	231.51
1852.64	212.458
1854.14	221.353
1855.64	229.083
1857.14	219.408
1858.64	226.781
1860.13	230.612
1861.63	232.853
1863.13	225.815
1864.63	218.643
1866.13	224.575
1867.63	228.961
1869.13	218.147
1870.63	225.876
1872.12	221.554
1873.62	215.815
1875.12	220.652
1876.62	217.777
1878.12	220.587
1879.62	228.347
1881.12	223.488
1882.62	231.438
1884.11	227.188
1885.61	220.27
1887.11	223.854
1888.61	222.621
1890.11	222.47
1891.61	213.316
1893.11	210.84
1894.6	210.843
1896.1	216.788
1897.6	232.13
1899.1	221.921
1900.6	215.635
1902.1	215.024
1903.6	222.309
1905.1	214.287
1906.59	218.37
1908.09	216.839
1909.59	218.114
1911.09	212.448
1912.59	208.218
1914.09	224.476
1915.59	223.831
1917.09	212.672
1918.58	213.254
1920.08	213.431
1921.58	223.465
1923.08	204.739
1924.58	215.394
1926.08	207.355
1927.58	225.372
1929.07	211.348
1930.57	220.174
1932.07	218.841
1933.57	224.576
1935.07	209.059
1936.57	216.571
1938.07	209.435
1939.57	209.639
1941.06	208.402
1942.56	209.135
1944.06	221.838
1945.56	213.536
1947.06	219.159
1948.56	215.992
1950.06	213.606
1951.55	216.253
1953.05	207.052
1954.55	212.693
1956.05	223.732
1957.55	216.127
1959.05	218.154
1960.55	217.013
1962.05	211.825
1963.54	212.586
1965.04	220.752
1966.54	212.305
1968.04	223.067
1969.54	215.689
1971.04	210.199
1972.54	222.274
1974.04	220.389
1975.53	213.532
1977.03	222.481
1978.53	210.435
1980.03	222.213
1981.53	217.012
1983.03	216.936
1984.53	213.797
1986.02	222.57
1987.52	214.829
1989.02	208.8
1990.52	219.514
1992.02	215.134
1993.52	222.316
1995.02	216.82
1996.52	218.101
1998.01	213.701
1999.51	222.655
2001.01	212.567
2002.51	210.995
2004.01	215.181
2005.51	223.947
2007.01	217.053
2008.51	227.077
2010	224.288
2011.5	223.107
2013	223.504
2014.5	219.797
2016	207.001
2017.5	225.323
2019	216.051
2020.49	215.476
2021.99	214.417
2023.49	224.248
2024.99	217.238
2026.49	225.394
2027.99	214.954
2029.49	228.966
2030.99	213.673
2032.48	218.358
2033.98	217.932
2035.48	216.083
2036.98	211.532
2038.48	213.383
2039.98	212.02
2041.48	214.707
2042.97	217.536
2044.47	216.694
2045.97	227.525
2047.47	213.519
2048.97	217.58
2050.47	221.102
2051.97	207.511
2053.47	210.424
2054.96	218.019
2056.46	223.504
2057.96	213.193
2059.46	209.834
2060.96	220.696
2062.46	220.018
2063.96	223.231
2065.46	212.694
2066.95	218.958
2068.45	221.017
2069.95	222.223
2071.45	219.299
2072.95	222.232
2074.45	217.258
2075.95	213.524
2077.44	225.73
2078.94	213.708
2080.44	220.664
2081.94	220.561
2083.44	213.924
2084.94	217.55
2086.44	209.87
2087.94	217.728
2089.43	210.169
2090.93	215.52
2092.43	212.415
2093.93	216.833
2095.43	217.621
2096.93	212.219
2098.43	211.346
2099.93	211.791
2101.42	208.127
2102.92	216.128
2104.42	209.989
2105.92	214.834
2107.42	218.807
2108.92	211.203
2110.42	221.879
2111.91	215.54
2113.41	216.128
2114.91	209.231
2116.41	213.164
2117.91	216.53
2119.41	213.773
2120.91	215.9
2122.41	215.835
2123.9	215.6
2125.4	207.461
2126.9	215.712
2128.4	222.926
2129.9	226.566
2131.4	217.154
2132.9	220.543
2134.4	209.108
2135.89	207.231
2137.39	217.531
2138.89	203.779
2140.39	218.673
2141.89	211.984
2143.39	214.577
2144.89	213.996
2146.38	225.412
2147.88	215.4
2149.38	211.909
2150.88	217.58
2152.38	221.938
2153.88	222.327
2155.38	208.907
2156.88	217.509
2158.37	219.711
2159.87	223.76
2161.37	216.81
2162.87	214.037
2164.37	217.056
2165.87	223.095
2167.37	231.29
2168.86	231.097
2170.36	217.843
2171.86	222.906
2173.36	211.909
2174.86	216.047
2176.36	225.996
2177.86	211.002
2179.36	226.528
2180.85	225.88
2182.35	220.956
2183.85	226.865
2185.35	222.301
2186.85	219.279
2188.35	220.02
2189.85	216.377
2191.34	225.472
2192.84	227.831
2194.34	218.626
2195.84	216.184
2197.34	219.184
2198.84	234.58
2200.34	214.169
2201.84	226.408
2203.33	232.547
2204.83	207.079
2206.33	213.991
2207.83	218.134
2209.33	217.081
2210.83	220.333
2212.33	208.033
2213.83	225.682
2215.32	228.239
2216.82	221.82
2218.32	225.069
2219.82	217.741
2221.32	225.138
2222.82	227.619
2224.32	228.047
2225.81	224.962
2227.31	224.656
2228.81	223.341
2230.31	222.36
2231.81	220.819
2233.31	225.177
2234.81	229.902
2236.31	220.164
2237.8	222.82
2239.3	225.454
2240.8	238.34
2242.3	233.692
2243.8	226.142
2245.3	235.822
2246.8	232.545
2248.3	231.068
2249.79	225.427
2251.29	241.167
2252.79	236.274
2254.29	221.56
2255.79	231.087
2257.29	230.425
2258.79	233.224
2260.28	241.642
2261.78	224.709
2263.28	225.937
2264.78	224.86
2266.28	236.358
2267.78	223.981
2269.28	241.41
2270.78	229.994
2272.27	228.091
2273.77	234.827
2275.27	231.821
2276.77	240.166
2278.27	231.638
2279.77	234.517
2281.27	227.037
2282.77	238.024
2284.26	239.058
2285.76	239.911
2287.26	251.842
2288.76	242.503
2290.26	233.735
2291.76	244.004
2293.26	242.318
2294.75	244.763
2296.25	232.235
2297.75	243.444
2299.25	237.078
2300	250.316