File: Example Data/Raman/CNT - TIM/Raytheon/Microwave/Test 1/CNT-MW - T1 - 030 sec - top.txt
300	346.274
301.499	352.579
302.997	362.751
304.496	381.351
305.995	372.083
307.493	377.497
308.992	358.23
310.491	368.015
311.99	364.775
313.488	366.786
314.987	350.96
316.486	364.773
317.984	355.888
319.483	365.559
320.982	367.106
322.48	361.02
323.979	348.972
325.478	358.494
326.976	368.238
328.475	351.557
329.974	362.661
331.472	360.467
332.971	344.583
334.47	354.533
335.969	352.377
337.467	361.871
338.966	347.475
340.465	353.945
341.963	336.358
343.462	350.027
344.961	350.401
346.459	349.963
347.958	358.946
349.457	331.397
350.955	350.967
352.454	348.709
353.953	341.175
355.451	342.335
356.95	347.445
358.449	353.936
359.948	350.613
361.446	346.243
362.945	340.028
364.444	342.168
365.942	341.275
367.441	343.366
368.94	339.36
370.438	341.224
371.937	326.856
373.436	331.525
374.934	328.899
376.433	336.44
377.932	329.473
379.431	327.638
380.929	338.989
382.428	325.479
383.927	326.53
385.425	338.802
386.924	350.005
388.423	327.246
389.921	333.147
391.42	310.605
392.919	323.91
394.417	330.136
395.916	326.042
397.415	341.296
398.913	314.77
400.412	331.245
401.911	330.445
403.41	324.273
404.908	334.425
406.407	327.558
407.906	321.964
409.404	317.071
410.903	319.383
412.402	324.125
413.9	326.422
415.399	322.886
416.898	319.148
418.396	320.721
419.895	336.403
421.394	326.218
422.892	335.315
424.391	327.513
425.89	323.824
427.389	305.525
428.887	321.329
430.386	333.804
431.885	309.943
433.383	324.743
434.882	314.949
436.381	319.614
437.879	315.016
439.378	309.734
440.877	320.518
442.375	316.946
443.874	306.426
445.373	318.797
446.871	322.947
448.37	310.791
449.869	305.584
451.368	310.521
452.866	314.14
454.365	298.057
455.864	304.245
457.362	294.563
458.861	298.309
460.36	299.196
461.858	306.437
463.357	305.935
464.856	304.856
466.354	301.997
467.853	297.697
469.352	293.294
470.85	296.139
472.349	297.845
473.848	301.928
475.347	298.753
476.845	283.752
478.344	292.878
479.843	284.636
481.341	295
482.84	292.32
484.339	285
485.837	280.12
487.336	288.168
488.835	269.167
490.333	281.032
491.832	278.64
493.331	290.516
494.83	289.911
496.328	286.75
497.827	277.073
499.326	274.616
500.824	286.099
502.323	268.725
503.822	269.439
505.32	276.12
506.819	281.081
508.318	290.178
509.816	277.132
511.315	270.186
512.814	262.832
514.3125	283.047
515.811	280.077
517.31	274.55
518.809	271.915
520.307	264.758
521.806	271.716
523.305	267.395
524.803	281.156
526.302	271.382
527.801	277.519
529.299	267.029
530.798	274.733
532.297	276.268
533.795	264.361
535.294	276.955
536.793	276.439
538.292	274.009
539.79	283.297
541.289	268.092
542.788	265.644
544.286	277.453
545.785	275.008
547.284	278.752
548.782	285.023
550.281	272.87
551.78	269.836
553.278	266.863
554.777	272.988
556.276	265.069
557.774	274.878
559.273	269.123
560.772	274.931
562.271	281.784
563.769	286.568
565.268	287.072
566.767	263.132
568.265	283.516
569.764	269.441
571.263	288.145
572.761	287.281
574.26	273.395
575.759	282.063
577.257	284.983
578.756	272.134
580.255	281.626
581.753	281.601
583.252	287.463
584.751	287.973
586.25	279.057
587.748	278.192
589.247	298.305
590.746	282.274
592.244	275.441
593.743	277.269
595.242	281.252
596.74	277.879
598.239	269.752
599.738	292.942
601.236	290.568
602.735	282.368
604.234	279.586
605.732	287.578
607.231	289.03
608.73	278.496
610.229	283.307
611.727	285.55
613.226	286.277
614.725	291.388
616.223	277.224
617.722	288.739
619.221	301.144
620.719	294.797
622.218	293.976
623.717	292.645
625.215	283.93
626.714	301.88
628.213	281.465
629.711	294.976
631.21	297.86
632.709	295.212
634.208	277.3
635.706	282.457
637.205	291.878
638.704	304.238
640.202	306.001
641.701	296.518
643.2	304.341
644.698	304.718
646.197	300.066
647.696	301.656
649.194	306.379
650.693	298.688
652.192	303.184
653.69	297.966
655.189	301.278
656.688	303.312
658.187	300
659.685	297.103
661.184	297.392
662.683	306.931
664.181	301.578
665.68	299.542
667.179	305.531
668.677	315.86
670.176	315.054
671.675	298.706
673.173	303.282
674.672	313.952
676.171	302.146
677.67	302.756
679.168	307.248
680.667	303.836
682.166	303.009
683.664	294.273
685.163	317.005
686.662	305.094
688.16	311.825
689.659	310.803
691.158	301.317
692.656	298.419
694.155	308.134
695.654	300.483
697.152	300.981
698.651	301.45
700.15	301.517
701.649	317.011
703.147	307.823
704.646	302.835
706.145	309.486
707.643	323.965
709.142	329.077
710.641	320.69
712.139	309.646
713.638	312.063
715.137	304.034
716.635	326.186
718.134	335.096
719.633	325.962
721.132	321.552
722.63	322.539
724.129	320.413
725.628	320.667
727.126	335.565
728.625	322.78
730.124	327.964
731.622	328.949
733.121	322.175
734.62	338.472
736.118	327.125
737.617	333.176
739.116	332.546
740.614	318.446
742.113	332.235
743.612	342.34
745.111	337.874
746.609	349.116
748.108	337.521
749.607	344.913
751.105	338.299
752.604	347.596
754.103	339.327
755.601	350.952
757.1	349.815
758.599	354.835
760.097	349.011
761.596	349.713
763.095	344.642
764.594	350.928
766.092	335.423
767.591	351.569
769.09	359.868
770.588	350.706
772.087	363.329
773.586	349.027
775.084	364.101
776.583	349.308
778.082	360.439
779.58	361.54
781.079	358.002
782.578	339.124
784.076	356.707
785.575	354.663
787.074	364.507
788.573	351.744
790.071	368.123
791.57	361.206
793.069	371.587
794.567	368.236
796.066	372.711
797.565	358.726
799.063	366.865
800.562	358.897
802.061	367.297
803.559	375.815
805.058	375.582
806.557	360.482
808.055	377.391
809.554	376.812
811.053	369.168
812.552	375.383
814.05	373.276
815.549	380.876
817.048	374.396
818.546	375.616
820.045	379.013
821.544	384.098
823.042	383.775
824.541	379.156
826.04	393
827.538	372.817
829.037	388.951
830.536	379.562
832.034	386.146
833.533	380.441
835.032	387.908
836.531	381.598
838.029	396.432
839.528	380.638
841.027	383.338
842.525	386.897
844.024	389.886
845.523	387.16
847.021	395.139
848.52	378.092
850.019	393.08
851.517	396.345
853.016	393.509
854.515	384.194
856.013	398.396
857.512	377.099
859.011	390.67
860.51	373.292
862.008	377.356
863.507	383.027
865.006	374.93
866.504	376.594
868.003	378.387
869.502	366.863
871	359.068
872.499	361.28
873.998	353.476
875.496	354.297
876.995	371.778
878.494	372.495
879.992	355.122
881.491	350.648
882.99	344.139
884.489	356.938
885.987	356.657
887.486	352.144
888.985	354.748
890.483	360.859
891.982	346.747
893.481	343.26
894.979	346.044
896.478	346.216
897.977	351.106
899.475	330.354
900.974	344.803
902.473	334.372
903.971	349.676
905.47	349.6
906.969	337.55
908.468	344.349
909.966	348.334
911.465	343.789
912.964	337.71
914.462	345.639
915.961	330.443
917.46	339.173
918.958	340.652
920.457	345.727
921.956	337.489
923.454	329.418
924.953	339.999
926.452	318.925
927.951	314.497
929.449	348.722
930.948	334.421
932.447	335.948
933.945	326.615
935.444	336.652
936.943	342.484
938.441	349.39
939.94	320.944
941.439	352.492
942.937	348.621
944.436	338.117
945.935	323.431
947.433	337.9
948.932	345.42
950.431	326.161
951.93	344.231
953.428	337.743
954.927	333.417
956.426	348.849
957.924	335.524
959.423	341.096
960.922	339.012
962.42	337.855
963.919	343.055
965.418	344.105
966.916	351.353
968.415	338.078
969.914	344.982
971.413	367.811
972.911	339.602
974.41	350.905
975.909	359.774
977.407	353.191
978.906	334.769
980.405	352.73
981.903	345.707
983.402	353.054
984.901	363.997
986.399	363.317
987.898	378.308
989.397	348.492
990.895	362.928
992.394	368.25
993.893	367.189
995.392	364.017
996.89	374.845
998.389	375.546
999.888	389.408
1001.39	397.747
1002.88	399.415
1004.38	379.569
1005.88	383.031
1007.38	386.923
1008.88	407.045
1010.38	394.353
1011.88	392.582
1013.38	405.422
1014.87	405.317
1016.37	408.753
1017.87	413.366
1019.37	404.732
1020.87	414.247
1022.37	429.58
1023.87	411.689
1025.37	435.181
1026.86	411.428
1028.36	434.976
1029.86	449.716
1031.36	434.997
1032.86	452.833
1034.36	434.665
1035.86	449.909
1037.35	444.62
1038.85	456.542
1040.35	457.118
1041.85	472.186
1043.35	469.304
1044.85	455.331
1046.35	459.185
1047.85	455.193
1049.34	455.493
1050.84	467.012
1052.34	473.845
1053.84	482.354
1055.34	478.27
1056.84	483.51
1058.34	477.794
1059.84	478.359
1061.33	476.125
1062.83	488.727
1064.33	487.277
1065.83	488.135
1067.33	491.374
1068.83	485.326
1070.33	499.72
1071.82	491.127
1073.32	495.151
1074.82	502.916
1076.32	508.955
1077.82	503.95
1079.32	503.613
1080.82	507.371
1082.32	524.289
1083.81	516.576
1085.31	509.279
1086.81	517.188
1088.31	530.386
1089.81	521.184
1091.31	524.63
1092.81	529.538
1094.3	544.002
1095.8	535.032
1097.3	537.781
1098.8	551.418
1100.3	557.008
1101.8	552.032
1103.3	558.082
1104.8	557.642
1106.29	561.264
1107.79	555.866
1109.29	573.971
1110.79	569.657
1112.29	568.749
1113.79	569.009
1115.29	585.31
1116.79	595.946
1118.28	591.435
1119.78	576.973
1121.28	580.363
1122.78	579.287
1124.28	603.912
1125.78	616.974
1127.28	604.241
1128.77	612.694
1130.27	617.031
1131.77	613.069
1133.27	620.373
1134.77	628.777
1136.27	628.672
1137.77	639.897
1139.27	633.331
1140.76	647.473
1142.26	656.523
1143.76	660.961
1145.26	671.927
1146.76	674.509
1148.26	675.009
1149.76	666.278
1151.26	688.321
1152.75	684.007
1154.25	685.944
1155.75	702.694
1157.25	690.463
1158.75	694.088
1160.25	716.192
1161.75	721.44
1163.24	711.619
1164.74	716.09
1166.24	723.976
1167.74	708.024
1169.24	739.654
1170.74	706.905
1172.24	714.481
1173.74	723.15
1175.23	738.692
1176.73	748.23
1178.23	752.276
1179.73	752.13
1181.23	746.958
1182.73	730.159
1184.23	757.627
1185.72	742.072
1187.22	764.443
1188.72	757.508
1190.22	777.574
1191.72	776.146
1193.22	775.914
1194.72	775.014
1196.22	781.781
1197.71	779.724
1199.21	778.573
1200.71	787.712
1202.21	808.148
1203.71	804.016
1205.21	809.815
1206.71	795.311
1208.21	804.661
1209.7	829.118
1211.2	837.716
1212.7	832.721
1214.2	835.611
1215.7	836.267
1217.2	866.689
1218.7	870.516
1220.19	871.691
1221.69	884.986
1223.19	889.63
1224.69	880.311
1226.19	892.59
1227.69	903.695
1229.19	923.971
1230.69	919.64
1232.18	937.572
1233.68	939.805
1235.18	929.203
1236.68	979.999
1238.18	984.627
1239.68	971.064
1241.18	979.806
1242.68	989.989
1244.17	995.05
1245.67	1022.37
1247.17	1029.11
1248.67	1027.26
1250.17	1036.86
1251.67	1063.84
1253.17	1075.73
1254.66	1080.33
1256.16	1085.66
1257.66	1107.75
1259.16	1091.38
1260.66	1136.56
1262.16	1147.14
1263.66	1166.99
1265.16	1141.59
1266.65	1163.91
1268.15	1190.87
1269.65	1208.81
1271.15	1224.84
1272.65	1236.45
1274.15	1290.93
1275.65	1298.84
1277.15	1278.53
1278.64	1277.34
1280.14	1336.53
1281.64	1342.84
1283.14	1380.43
1284.64	1385.91
1286.14	1394.16
1287.64	1416.51
1289.13	1424.46
1290.63	1458.99
1292.13	1484.17
1293.63	1508.87
1295.13	1519.74
1296.63	1555.89
1298.13	1570.6
1299.63	1617.86
1301.12	1610.23
1302.62	1626.71
1304.12	1677.26
1305.62	1702.57
1307.12	1748.6
1308.62	1758.59
1310.12	1774.62
1311.61	1800.62
1313.11	1845.37
1314.61	1860.4
1316.11	1892.57
1317.61	1931.42
1319.11	1953.35
1320.61	1961.46
1322.11	1992.6
1323.6	2030.64
1325.1	2007.55
1326.6	2031.61
1328.1	2084.04
1329.6	2072.51
1331.1	2102.51
1332.6	2149.53
1334.1	2116.25
1335.59	2118.88
1337.09	2164.9
1338.59	2159.12
1340.09	2151.25
1341.59	2154.34
1343.09	2172.07
1344.59	2152.37
1346.08	2116.8
1347.58	2146.77
1349.08	2098.19
1350.58	2102.58
1352.08	2046.77
1353.58	2081.51
1355.08	2045.74
1356.58	2003.74
1358.07	2028.9
1359.57	1965.5
1361.07	1961.09
1362.57	1939.78
1364.07	1929.38
1365.57	1917.34
1367.07	1876.49
1368.57	1894.2
1370.06	1854.8
1371.56	1795.12
1373.06	1783.66
1374.56	1770.49
1376.06	1731.33
1377.56	1714.86
1379.06	1700.49
1380.55	1635.18
1382.05	1657.75
1383.55	1627.47
1385.05	1626.13
1386.55	1604.59
1388.05	1574.35
1389.55	1589.91
1391.05	1520.48
1392.54	1523.73
1394.04	1486.71
1395.54	1467.87
1397.04	1458.88
1398.54	1403.03
1400.04	1413.96
1401.54	1453.1
1403.03	1382.59
1404.53	1384.5
1406.03	1340.89
1407.53	1367.5
1409.03	1386.39
1410.53	1347.61
1412.03	1337.52
1413.53	1319.65
1415.02	1292.34
1416.52	1299.17
1418.02	1264.49
1419.52	1266.02
1421.02	1265.77
1422.52	1273.89
1424.02	1269.27
1425.52	1258.84
1427.01	1233.48
1428.51	1231.77
1430.01	1199.81
1431.51	1226.47
1433.01	1198.36
1434.51	1204.17
1436.01	1227.89
1437.5	1190.11
1439	1197.01
1440.5	1189.02
1442	1160.86
1443.5	1195.53
1445	1191.21
1446.5	1179.57
1448	1206.55
1449.49	1183.75
1450.99	1156.74
1452.49	1169.6
1453.99	1160.18
1455.49	1158.8
1456.99	1165.63
1458.49	1180.04
1459.98	1164.23
1461.48	1167.01
1462.98	1159.26
1464.48	1166.73
1465.98	1167.79
1467.48	1156.17
1468.98	1180.05
1470.48	1148.25
1471.97	1149.69
1473.47	1148.41
1474.97	1148.7
1476.47	1150.07
1477.97	1169.83
1479.47	1161.59
1480.97	1165.88
1482.47	1154.68
1483.96	1151.07
1485.46	1149.66
1486.96	1146.46
1488.46	1145.1
1489.96	1177.63
1491.46	1155.68
1492.96	1141.48
1494.45	1127.65
1495.95	1162.28
1497.45	1177.74
1498.95	1159.73
1500.45	1175.56
1501.95	1172.42
1503.45	1153.62
1504.95	1182.33
1506.44	1167.8
1507.94	1147.23
1509.44	1191.53
1510.94	1172.11
1512.44	1182.51
1513.94	1193.39
1515.44	1190.36
1516.94	1186.8
1518.43	1191.11
1519.93	1223.28
1521.43	1210.34
1522.93	1210.58
1524.43	1236.13
1525.93	1250.63
1527.43	1269.96
1528.92	1253.6
1530.42	1287.24
1531.92	1275.36
1533.42	1282.07
1534.92	1280.75
1536.42	1323.19
1537.92	1328.02
1539.42	1327.01
1540.91	1367.25
1542.41	1379.77
1543.91	1377.8
1545.41	1392.31
1546.91	1416.62
1548.41	1472.72
1549.91	1491.18
1551.41	1492.62
1552.9	1492.76
1554.4	1568.74
1555.9	1559.45
1557.4	1600.59
1558.9	1616.92
1560.4	1629.62
1561.9	1650.41
1563.39	1675.09
1564.89	1721.84
1566.39	1750.15
1567.89	1756.72
1569.39	1810.45
1570.89	1834.4
1572.39	1862.65
1573.89	1891.95
1575.38	1910.25
1576.88	1940.79
1578.38	1970.04
1579.88	2003.83
1581.38	1999.89
1582.88	2020.61
1584.38	2034.45
1585.87	2062.6
1587.37	2032.4
1588.87	2028.87
1590.37	2048.53
1591.87	2037.55
1593.37	2049.09
1594.87	2039.08
1596.37	2023.04
1597.86	2008.95
1599.36	1997.2
1600.86	1993.32
1602.36	1947.02
1603.86	1917.69
1605.36	1909.96
1606.86	1868.9
1608.36	1811.37
1609.85	1805.26
1611.35	1711.91
1612.85	1680.15
1614.35	1635.4
1615.85	1603.72
1617.35	1537.01
1618.85	1505.88
1620.34	1448.21
1621.84	1399.07
1623.34	1347.32
1624.84	1306.06
1626.34	1254.98
1627.84	1211.01
1629.34	1183.34
1630.84	1131.8
1632.33	1089.23
1633.83	1044.92
1635.33	1003.85
1636.83	990.316
1638.33	927.933
1639.83	916.686
1641.33	887.879
1642.83	853.766
1644.32	829.524
1645.82	808.804
1647.32	750.263
1648.82	757.218
1650.32	736.589
1651.82	717.227
1653.32	675.685
1654.81	656.942
1656.31	648.179
1657.81	610.934
1659.31	583.266
1660.81	569.215
1662.31	553.341
1663.81	528.905
1665.31	531.245
1666.8	492.978
1668.3	502.989
1669.8	475.7
1671.3	478.225
1672.8	457.102
1674.3	443.201
1675.8	439.237
1677.29	409.692
1678.79	430.767
1680.29	412.01
1681.79	399.826
1683.29	393.085
1684.79	378.552
1686.29	363.276
1687.79	370.097
1689.28	368.465
1690.78	366.19
1692.28	352.108
1693.78	348.676
1695.28	337.328
1696.78	336.835
1698.28	323.312
1699.78	327.838
1701.27	330.671
1702.77	319.883
1704.27	313.753
1705.77	309.657
1707.27	307.041
1708.77	305.401
1710.27	305.902
1711.76	309.334
1713.26	303.534
1714.76	298.37
1716.26	291.159
1717.76	295.911
1719.26	289.308
1720.76	272.142
1722.26	285.037
1723.75	288.084
1725.25	270.486
1726.75	276.878
1728.25	273.797
1729.75	273.968
1731.25	269.823
1732.75	270.934
1734.24	272.643
1735.74	266.731
1737.24	263.9
1738.74	262.452
1740.24	263.938
1741.74	260.942
1743.24	263.355
1744.74	264.864
1746.23	255.616
1747.73	257.102
1749.23	257.1875
1750.73	265.635
1752.23	249.937
1753.73	253.935
1755.23	248.354
1756.73	257.202
1758.22	251.814
1759.72	248.495
1761.22	253.159
1762.72	242.824
1764.22	256.904
1765.72	251.562
1767.22	247.394
1768.71	243.019
1770.21	255.532
1771.71	253.714
1773.21	249.807
1774.71	244.733
1776.21	247.144
1777.71	244.212
1779.21	233.573
1780.7	247.132
1782.2	239.425
1783.7	251.693
1785.2	248.626
1786.7	236.562
1788.2	238.913
1789.7	245.985
1791.2	245.308
1792.69	240.186
1794.19	245.751
1795.69	237.192
1797.19	230.09
1798.69	245.052
1800.19	241.033
1801.69	231.51
1803.18	248.654
1804.68	241.868
1806.18	235.556
1807.68	243.896
1809.18	232.764
1810.68	238.93
1812.18	235.06
1813.68	229.274
1815.17	226.435
1816.67	232.082
1818.17	236.909
1819.67	228.86
1821.17	230.167
1822.67	240.826
1824.17	231.676
1825.67	232.262
1827.16	234.234
1828.66	225.858
1830.16	225.52
1831.66	228.968
1833.16	219.986
1834.66	225.571
1836.16	221.201
1837.65	225.858
1839.15	231.994
1840.65	217.375
1842.15	217.252
1843.65	228.917
1845.15	222.805
1846.65	224.111
1848.15	224.61
1849.64	230.405
1851.14	228.607
1852.64	212.798
1854.14	229.938
1855.64	227.26
1857.14	229.181
1858.64	222.743
1860.13	226.895
1861.63	226.299
1863.13	220.874
1864.63	219.068
1866.13	223.95
1867.63	225.633
1869.13	221.314
1870.63	222.756
1872.12	219.713
1873.62	231.121
1875.12	224.767
1876.62	225.583
1878.12	220.611
1879.62	213.743
1881.12	229.612
1882.62	220.887
1884.11	219.27
1885.61	222.562
1887.11	214.778
1888.61	214.878
1890.11	227.825
1891.61	231.749
1893.11	227.404
1894.6	222.233
1896.1	219.682
1897.6	223.873
1899.1	216.427
1900.6	228.494
1902.1	216.254
1903.6	224.782
1905.1	216.427
1906.59	219.231
1908.09	224.564
1909.59	218.363
1911.09	219.199
1912.59	215.041
1914.09	219.65
1915.59	214.387
1917.09	219.893
1918.58	216.791
1920.08	216.095
1921.58	216.109
1923.08	220.423
1924.58	222.663
1926.08	225.213
1927.58	222.031
1929.07	220.133
1930.57	214.28
1932.07	213.42
1933.57	208.226
1935.07	212.512
1936.57	221.607
1938.07	219.7
1939.57	212.779
1941.06	224.732
1942.56	212.191
1944.06	213.449
1945.56	208.732
1947.06	223.709
1948.56	216.862
1950.06	209.558
1951.55	225.249
1953.05	215.574
1954.55	205.659
1956.05	215.514
1957.55	214.765
1959.05	211.665
1960.55	216.032
1962.05	214.933
1963.54	217.812
1965.04	220.355
1966.54	216.335
1968.04	217.371
1969.54	220.567
1971.04	217.403
1972.54	218.448
1974.04	224.846
1975.53	213.935
1977.03	217.197
1978.53	214.633
1980.03	236.541
1981.53	207.59
1983.03	208.932
1984.53	218.276
1986.02	225.327
1987.52	225.148
1989.02	208.221
1990.52	208.458
1992.02	221.365
1993.52	208.628
1995.02	221.629
1996.52	216.84
1998.01	211.828
1999.51	223.133
2001.01	221.805
2002.51	223.111
2004.01	219.609
2005.51	225.959
2007.01	226.942
2008.51	225.907
2010	222.142
2011.5	204.421
2013	228.849
2014.5	218.198
2016	228.08
2017.5	218.533
2019	219.441
2020.49	219.231
2021.99	219.646
2023.49	224.046
2024.99	222.545
2026.49	226.425
2027.99	217.084
2029.49	218.107
2030.99	220.526
2032.48	220.452
2033.98	222.575
2035.48	221.551
2036.98	215.505
2038.48	213.6
2039.98	223.859
2041.48	212.128
2042.97	227.368
2044.47	217.361
2045.97	214.5
2047.47	215.886
2048.97	214.829
2050.47	224.922
2051.97	227.374
2053.47	227.202
2054.96	224.975
2056.46	220.534
2057.96	224.467
2059.46	222.345
2060.96	207.734
2062.46	220.672
2063.96	216.136
2065.46	222.995
2066.95	221.799
2068.45	219.885
2069.95	216.058
2071.45	208.217
2072.95	223.557
2074.45	220.358
2075.95	217.602
2077.44	200.572
2078.94	222.508
2080.44	225.265
2081.94	225.204
2083.44	215.109
2084.94	218.405
2086.44	224.873
2087.94	217.543
2089.43	209.087
2090.93	221.455
2092.43	215.118
2093.93	219.625
2095.43	226.661
2096.93	222.332
2098.43	224.468
2099.93	223.219
2101.42	218.634
2102.92	207.044
2104.42	223.261
2105.92	213.89
2107.42	213.921
2108.92	203.204
2110.42	211.514
2111.91	219.475
2113.41	210.343
2114.91	219.613
2116.41	218.726
2117.91	220.477
2119.41	213.571
2120.91	212.472
2122.41	210.415
2123.9	219.184
2125.4	220.24
2126.9	211.088
2128.4	221.042
2129.9	214.653
2131.4	219.286
2132.9	207.108
2134.4	223.436
2135.89	212.66
2137.39	226.117
2138.89	228.105
2140.39	226.054
2141.89	214.325
2143.39	218.081
2144.89	203.302
2146.38	235.309
2147.88	220.195
2149.38	220.565
2150.88	225.868
2152.38	224.27
2153.88	224.819
2155.38	219.943
2156.88	227.674
2158.37	219.66
2159.87	221.171
2161.37	226.142
2162.87	221.608
2164.37	222.327
2165.87	219.217
2167.37	225.891
2168.86	223.637
2170.36	222.104
2171.86	221.655
2173.36	206.305
2174.86	225.358
2176.36	219.455
2177.86	231.069
2179.36	229.02
2180.85	220.955
2182.35	233.844
2183.85	226.144
2185.35	221.347
2186.85	213.968
2188.35	219.746
2189.85	225.527
2191.34	226.626
2192.84	228.382
2194.34	232.374
2195.84	227.633
2197.34	225.435
2198.84	220.452
2200.34	236.639
2201.84	223.164
2203.33	228.177
2204.83	224.837
2206.33	227.417
2207.83	219.138
2209.33	232.837
2210.83	222.288
2212.33	223.307
2213.83	218.393
2215.32	219.89
2216.82	225.358
2218.32	223.662
2219.82	225.799
2221.32	227.837
2222.82	230.571
2224.32	226.461
2225.81	228.443
2227.31	225.269
2228.81	225.837
2230.31	226.337
2231.81	235.116
2233.31	234.446
2234.81	228.382
2236.31	236.439
2237.8	229.223
2239.3	235.655
2240.8	226.104
2242.3	229.706
2243.8	224.012
2245.3	232.685
2246.8	230.735
2248.3	232.901
2249.79	238.176
2251.29	232.601
2252.79	230.044
2254.29	231.412
2255.79	236.395
2257.29	225.051
2258.79	240.34
2260.28	230.468
2261.78	230.941
2263.28	232.569
2264.78	222.874
2266.28	235.432
2267.78	238.943
2269.28	236.711
2270.78	243.249
2272.27	229.997
2273.77	235.463
2275.27	240.126
2276.77	229.041
2278.27	223.062
2279.77	234.407
2281.27	241.958
2282.77	244.334
2284.26	231.954
2285.76	238.75
2287.26	240.199
2288.76	241.525
2290.26	244.061
2291.76	239.85
2293.26	248.665
2294.75	242.065
2296.25	235.818
2297.75	248.115
2299.25	246.973
2300	230.113