File: Example Data/Raman/CNT - TIM/Raytheon/Microwave/Test 1/CNT-MW - T1 - 060 sec - top.txt
300	445.902
301.499	454.903
302.997	461.113
304.496	484.944
305.995	480.873
307.493	467.202
308.992	467.859
310.491	482.081
311.99	462.407
313.488	480.286
314.987	480.052
316.486	467.939
317.984	463.297
319.483	464.783
320.982	453.408
322.48	457.651
323.979	444.397
325.478	466.474
326.976	445.06
328.475	451.326
329.974	471.271
331.472	457.837
332.971	460.36
334.47	479.868
335.969	440.187
337.467	465.303
338.966	443.115
340.465	443.007
341.963	453.642
343.462	454.303
344.961	451.422
346.459	460.894
347.958	448.614
349.457	454.829
350.955	460.39
352.454	455.517
353.953	427.783
355.451	443.27
356.95	444.133
358.449	457.477
359.948	459.663
361.446	441.764
362.945	457.028
364.444	439.605
365.942	441.169
367.441	443.662
368.94	439.323
370.438	439.597
371.937	439.148
373.436	437.452
374.934	440.369
376.433	448.199
377.932	427.782
379.431	436.981
380.929	427.905
382.428	433.741
383.927	442.848
385.425	425.129
386.924	416.829
388.423	444.814
389.921	437.646
391.42	428.498
392.919	442.063
394.417	423.453
395.916	431.965
397.415	424.803
398.913	440.574
400.412	423.233
401.911	425.099
403.41	415.978
404.908	433.154
406.407	427.57
407.906	425.152
409.404	431.648
410.903	422.849
412.402	420.743
413.9	428.751
415.399	445.774
416.898	424.619
418.396	425.557
419.895	418.163
421.394	416.795
422.892	408.573
424.391	417.881
425.89	420.143
427.389	416.94
428.887	430.727
430.386	419.844
431.885	419.833
433.383	435.098
434.882	432.595
436.381	414.097
437.879	411.659
439.378	416.972
440.877	416.966
442.375	418.831
443.874	411.67
445.373	402.656
446.871	416.95
448.37	418.324
449.869	406.701
451.368	412.259
452.866	406.873
454.365	405.198
455.864	413.166
457.362	403.599
458.861	408.255
460.36	410.024
461.858	403.914
463.357	390.866
464.856	402.036
466.354	398.232
467.853	393.628
469.352	400.174
470.85	404.673
472.349	390.736
473.848	394.827
475.347	390.524
476.845	375.59
478.344	381.139
479.843	381.724
481.341	382.186
482.84	374.288
484.339	377.425
485.837	370.748
487.336	388.338
488.835	365.006
490.333	371.194
491.832	376.805
493.331	362.878
494.83	364.68
496.328	354.981
497.827	362.786
499.326	361.077
500.824	368.254
502.323	346.331
503.822	364.533
505.32	355.366
506.819	356.56
508.318	366.957
509.816	355.983
511.315	348.922
512.814	348.424
514.3125	346.898
515.811	336.911
517.31	359.032
518.809	353.337
520.307	352.815
521.806	352.713
523.305	359.598
524.803	353.268
526.302	354.875
527.801	354.367
529.299	355.076
530.798	353.428
532.297	355.357
533.795	358.221
535.294	357.356
536.793	360.891
538.292	358.875
539.79	354.175
541.289	350.108
542.788	362.246
544.286	359.589
545.785	351.549
547.284	356.346
548.782	361.902
550.281	360.321
551.78	354.276
553.278	352.644
554.777	341.914
556.276	359.444
557.774	360.039
559.273	363.826
560.772	361.975
562.271	342.216
563.769	364.748
565.268	363.5
566.767	359.483
568.265	382.121
569.764	365.597
571.263	366.837
572.761	369.889
574.26	368.249
575.759	372.533
577.257	367.409
578.756	370.796
580.255	373.443
581.753	364.043
583.252	386.826
584.751	371.199
586.25	374.902
587.748	382.233
589.247	371.107
590.746	366.13
592.244	380.211
593.743	369.885
595.242	367.505
596.74	375.425
598.239	386.691
599.738	369.611
601.236	372.4
602.735	384.595
604.234	364.707
605.732	375.171
607.231	373.612
608.73	369.226
610.229	383.125
611.727	373.131
613.226	365.553
614.725	392.361
616.223	384.096
617.722	376.486
619.221	378.408
620.719	394
622.218	391.349
623.717	367.501
625.215	383.396
626.714	382.332
628.213	395.995
629.711	382.31
631.21	388.567
632.709	378.218
634.208	384.367
635.706	385.761
637.205	387.987
638.704	396.087
640.202	402.538
641.701	396.486
643.2	388.867
644.698	379.228
646.197	386.587
647.696	388.493
649.194	395.456
650.693	387.831
652.192	382.449
653.69	387.654
655.189	388.203
656.688	397.436
658.187	373.054
659.685	396.033
661.184	394.922
662.683	401.069
664.181	398.925
665.68	402.493
667.179	407.282
668.677	396.722
670.176	405.5
671.675	404.13
673.173	385.71
674.672	396.452
676.171	396.285
677.67	384.733
679.168	402.998
680.667	390.583
682.166	400.914
683.664	407.503
685.163	404.068
686.662	390.995
688.16	401.228
689.659	397.422
691.158	400.983
692.656	417.244
694.155	403.187
695.654	400.491
697.152	411.156
698.651	392.078
700.15	398.081
701.649	394.787
703.147	399.796
704.646	411.878
706.145	401.339
707.643	408.123
709.142	418.774
710.641	417.336
712.139	419.571
713.638	408.586
715.137	411.576
716.635	420.792
718.134	406.327
719.633	418.16
721.132	407.884
722.63	416.948
724.129	428.467
725.628	404.26
727.126	416.407
728.625	423.211
730.124	409.017
731.622	423.8
733.121	423.691
734.62	434.469
736.118	411.314
737.617	424.827
739.116	428.377
740.614	433.692
742.113	420.176
743.612	438.951
745.111	456.314
746.609	431.236
748.108	436.415
749.607	433.65
751.105	443.807
752.604	418.76
754.103	457.843
755.601	440.334
757.1	450.869
758.599	432.529
760.097	441.162
761.596	445.762
763.095	449.732
764.594	445.139
766.092	438.132
767.591	450.115
769.09	456.945
770.588	462.521
772.087	446.488
773.586	455.757
775.084	441.539
776.583	459.059
778.082	456.041
779.58	451.237
781.079	466.306
782.578	475.927
784.076	437.602
785.575	449.191
787.074	457.443
788.573	464.88
790.071	467.416
791.57	463.939
793.069	469.753
794.567	460.208
796.066	458.844
797.565	463.929
799.063	463.689
800.562	454.788
802.061	462.281
803.559	481.359
805.058	473.473
806.557	471.674
808.055	476.302
809.554	470.177
811.053	469.092
812.552	476.864
814.05	474.999
815.549	479.25
817.048	472.038
818.546	479.123
820.045	491.232
821.544	478.448
823.042	496.376
824.541	491.282
826.04	487.81
827.538	485.959
829.037	490.707
830.536	492.466
832.034	473.643
833.533	497.661
835.032	495.046
836.531	502.25
838.029	493.216
839.528	494.435
841.027	496.772
842.525	498.956
844.024	497.635
845.523	492.513
847.021	512.876
848.52	503.961
850.019	503.882
851.517	498.546
853.016	512.436
854.515	492.369
856.013	506.603
857.512	494.687
859.011	492.225
860.51	503.5
862.008	475.2
863.507	466.909
865.006	477.79
866.504	482.228
868.003	474.556
869.502	466.389
871	476.545
872.499	472.578
873.998	459.315
875.496	464.632
876.995	473.234
878.494	461.336
879.992	470.478
881.491	457.427
882.99	461.368
884.489	467.924
885.987	457.623
887.486	458.481
888.985	461.84
890.483	462.935
891.982	452.283
893.481	457.324
894.979	449.504
896.478	462.25
897.977	458.079
899.475	446.561
900.974	444.608
902.473	454.214
903.971	455.422
905.47	449.125
906.969	441.285
908.468	442.321
909.966	457.018
911.465	435.966
912.964	457.126
914.462	441.42
915.961	438.924
917.46	458.799
918.958	446.801
920.457	440.326
921.956	447.337
923.454	449.379
924.953	463.924
926.452	466.369
927.951	445.896
929.449	444.291
930.948	453.887
932.447	436.107
933.945	449.089
935.444	452.827
936.943	455.209
938.441	465.63
939.94	442.956
941.439	452.106
942.937	459.272
944.436	461.852
945.935	454.156
947.433	456.581
948.932	464.066
950.431	458.749
951.93	452.538
953.428	447.682
954.927	465.477
956.426	451.17
957.924	450.768
959.423	465.019
960.922	460.371
962.42	456.687
963.919	471.818
965.418	475.284
966.916	471.33
968.415	469.266
969.914	480.488
971.413	465.568
972.911	491.842
974.41	472.435
975.909	481.305
977.407	483.035
978.906	488.742
980.405	479.418
981.903	484.495
983.402	489.184
984.901	510.011
986.399	476.602
987.898	480.744
989.397	474.759
990.895	508.915
992.394	490.556
993.893	517.683
995.392	501.189
996.89	506.571
998.389	518.781
999.888	527.733
1001.39	527.387
1002.88	519.865
1004.38	532.11
1005.88	527.205
1007.38	539.243
1008.88	535.004
1010.38	570.609
1011.88	561.079
1013.38	541.82
1014.87	538.702
1016.37	557.369
1017.87	559
1019.37	570.268
1020.87	567.299
1022.37	591.542
1023.87	581.128
1025.37	569.943
1026.86	601.856
1028.36	615.382
1029.86	599.793
1031.36	583.441
1032.86	597.626
1034.36	614.005
1035.86	615.797
1037.35	617.067
1038.85	611.773
1040.35	624.379
1041.85	619.761
1043.35	630.445
1044.85	617.229
1046.35	629.448
1047.85	629.558
1049.34	635.796
1050.84	634.367
1052.34	629.102
1053.84	645.729
1055.34	667.089
1056.84	655.289
1058.34	665.31
1059.84	663.93
1061.33	680.153
1062.83	666.923
1064.33	679.7
1065.83	694.901
1067.33	697.004
1068.83	686.391
1070.33	707.365
1071.82	691.217
1073.32	702.942
1074.82	716.192
1076.32	721.315
1077.82	727.574
1079.32	723.139
1080.82	738.714
1082.32	734.688
1083.81	725.262
1085.31	736.286
1086.81	737.863
1088.31	746.7
1089.81	761.772
1091.31	756.702
1092.81	765.246
1094.3	774.474
1095.8	761.353
1097.3	772.939
1098.8	779.985
1100.3	787.642
1101.8	792.388
1103.3	791.532
1104.8	809.824
1106.29	813.121
1107.79	815.888
1109.29	836.002
1110.79	809.815
1112.29	827.359
1113.79	853.811
1115.29	841.562
1116.79	862.618
1118.28	864.504
1119.78	889.778
1121.28	883.016
1122.78	883.068
1124.28	900.402
1125.78	896.346
1127.28	965.231
1128.77	906.292
1130.27	911.82
1131.77	931.838
1133.27	922.383
1134.77	926.921
1136.27	951.401
1137.77	938.027
1139.27	966.092
1140.76	971.234
1142.26	1000
1143.76	971.961
1145.26	977.923
1146.76	1010.95
1148.26	1017.59
1149.76	1017.28
1151.26	1021.17
1152.75	1053.23
1154.25	1028.51
1155.75	1046.1
1157.25	1060.64
1158.75	1047.71
1160.25	1070.53
1161.75	1067.94
1163.24	1076.39
1164.74	1059.43
1166.24	1083.92
1167.74	1083.41
1169.24	1098.79
1170.74	1099.21
1172.24	1106.68
1173.74	1108.78
1175.23	1115.88
1176.73	1133.47
1178.23	1105.8
1179.73	1132.26
1181.23	1147.98
1182.73	1125.31
1184.23	1145.46
1185.72	1126.54
1187.22	1157.49
1188.72	1150.66
1190.22	1170.18
1191.72	1176
1193.22	1156.87
1194.72	1165.89
1196.22	1189.23
1197.71	1204.98
1199.21	1176.47
1200.71	1182.19
1202.21	1211.8
1203.71	1210.32
1205.21	1242.15
1206.71	1251.45
1208.21	1259.47
1209.7	1273.31
1211.2	1249.26
1212.7	1263.79
1214.2	1274.9
1215.7	1290.28
1217.2	1283.25
1218.7	1301.99
1220.19	1303.16
1221.69	1328.23
1223.19	1310.61
1224.69	1354.71
1226.19	1341.76
1227.69	1353.18
1229.19	1372.2
1230.69	1388.34
1232.18	1390.18
1233.68	1423.46
1235.18	1398.02
1236.68	1429.2
1238.18	1441.5
1239.68	1432.8
1241.18	1481.59
1242.68	1471.44
1244.17	1521.21
1245.67	1530.94
1247.17	1524.17
1248.67	1567.73
1250.17	1565.86
1251.67	1570.52
1253.17	1604.18
1254.66	1631.89
1256.16	1648.33
1257.66	1659.69
1259.16	1672.21
1260.66	1673.55
1262.16	1723.55
1263.66	1732.05
1265.16	1781.58
1266.65	1765.71
1268.15	1801.98
1269.65	1817.44
1271.15	1832.35
1272.65	1862.07
1274.15	1848.02
1275.65	1931.78
1277.15	1961.23
1278.64	1981.15
1280.14	1993.08
1281.64	2029.62
1283.14	2023.85
1284.64	2072.98
1286.14	2096.84
1287.64	2113.49
1289.13	2144.98
1290.63	2173.9
1292.13	2218.74
1293.63	2270.8
1295.13	2276.01
1296.63	2332.68
1298.13	2355.87
1299.63	2379.11
1301.12	2416.55
1302.62	2447.34
1304.12	2523.3
1305.62	2523.56
1307.12	2594.95
1308.62	2633.65
1310.12	2649.43
1311.61	2690.5
1313.11	2738.58
1314.61	2773.02
1316.11	2826.72
1317.61	2842.27
1319.11	2867.83
1320.61	2918.19
1322.11	2944.91
1323.6	2959.03
1325.1	2975.71
1326.6	3054.5
1328.1	3059.97
1329.6	3094
1331.1	3089.31
1332.6	3123.72
1334.1	3128.61
1335.59	3183.33
1337.09	3171.86
1338.59	3161.45
1340.09	3167.82
1341.59	3203.93
1343.09	3149.35
1344.59	3173.92
1346.08	3155.19
1347.58	3117.94
1349.08	3123.74
1350.58	3126.63
1352.08	3102.97
1353.58	3081.54
1355.08	3099.41
1356.58	3061.36
1358.07	3014.65
1359.57	2930.91
1361.07	2923.44
1362.57	2877.95
1364.07	2924
1365.57	2855.2
1367.07	2811.62
1368.57	2782.67
1370.06	2776.4
1371.56	2729.34
1373.06	2675.31
1374.56	2658.25
1376.06	2648.78
1377.56	2573.33
1379.06	2578.71
1380.55	2512.47
1382.05	2471.85
1383.55	2469.4
1385.05	2438.88
1386.55	2417.27
1388.05	2379.27
1389.55	2328.76
1391.05	2345.13
1392.54	2287.63
1394.04	2278.37
1395.54	2237.27
1397.04	2197.08
1398.54	2205.08
1400.04	2187.9
1401.54	2169.91
1403.03	2146.26
1404.53	2110.76
1406.03	2054.52
1407.53	2020.02
1409.03	2017.93
1410.53	2019.79
1412.03	1954.12
1413.53	1993.1
1415.02	1953.03
1416.52	1942.46
1418.02	1956.95
1419.52	1884.21
1421.02	1905.35
1422.52	1891.79
1424.02	1933.86
1425.52	1856.51
1427.01	1858.04
1428.51	1844.41
1430.01	1839.23
1431.51	1843.31
1433.01	1800.65
1434.51	1826.1
1436.01	1825.5
1437.5	1805.93
1439	1804.26
1440.5	1784.15
1442	1751.04
1443.5	1799.89
1445	1779.65
1446.5	1770.78
1448	1769.94
1449.49	1762.89
1450.99	1733.72
1452.49	1753.04
1453.99	1761.15
1455.49	1734.17
1456.99	1753.81
1458.49	1776.54
1459.98	1769.43
1461.48	1750.59
1462.98	1728.26
1464.48	1725.42
1465.98	1721.58
1467.48	1723.5
1468.98	1719.15
1470.48	1722.07
1471.97	1725.44
1473.47	1724.8
1474.97	1722.63
1476.47	1729.27
1477.97	1736.86
1479.47	1716.19
1480.97	1745.44
1482.47	1733.12
1483.96	1689.41
1485.46	1745.14
1486.96	1725.24
1488.46	1737.92
1489.96	1759.38
1491.46	1729.71
1492.96	1777.29
1494.45	1728.79
1495.95	1749.65
1497.45	1722.31
1498.95	1752.19
1500.45	1725.32
1501.95	1759.05
1503.45	1729.18
1504.95	1749.08
1506.44	1770.26
1507.94	1751.24
1509.44	1769.39
1510.94	1762.37
1512.44	1737.93
1513.94	1771.57
1515.44	1785.9
1516.94	1799.84
1518.43	1787.13
1519.93	1822.15
1521.43	1798.93
1522.93	1798.2
1524.43	1840.19
1525.93	1809.93
1527.43	1848.08
1528.92	1837.52
1530.42	1883.51
1531.92	1889.43
1533.42	1925.32
1534.92	1925.73
1536.42	1924.41
1537.92	1944.25
1539.42	1972.14
1540.91	1983.96
1542.41	1999.67
1543.91	2047.74
1545.41	2048.19
1546.91	2100.6
1548.41	2122.68
1549.91	2159.49
1551.41	2196.7
1552.9	2200.04
1554.4	2230.02
1555.9	2294.55
1557.4	2315.08
1558.9	2304.22
1560.4	2353.44
1561.9	2434.68
1563.39	2482.56
1564.89	2451.53
1566.39	2545.82
1567.89	2564.35
1569.39	2623.05
1570.89	2657.42
1572.39	2736.73
1573.89	2771.05
1575.38	2744.95
1576.88	2846.73
1578.38	2867.97
1579.88	2890.52
1581.38	2962.67
1582.88	2957.27
1584.38	3004.07
1585.87	3078.03
1587.37	3075.68
1588.87	3101.95
1590.37	3119.18
1591.87	3105.81
1593.37	3120.22
1594.87	3116.31
1596.37	3105.3
1597.86	3087.84
1599.36	3061.61
1600.86	3057.18
1602.36	3008.71
1603.86	2959.7
1605.36	2898.82
1606.86	2863.55
1608.36	2811.28
1609.85	2741.78
1611.35	2707.02
1612.85	2619.22
1614.35	2544.65
1615.85	2460.81
1617.35	2409.89
1618.85	2329.86
1620.34	2222.46
1621.84	2163.91
1623.34	2089.64
1624.84	1981.82
1626.34	1929.49
1627.84	1864.8
1629.34	1762.26
1630.84	1759.14
1632.33	1669.32
1633.83	1634.16
1635.33	1581.88
1636.83	1498.06
1638.33	1463.4
1639.83	1423.64
1641.33	1363.46
1642.83	1328.05
1644.32	1265.6
1645.82	1250.73
1647.32	1190.54
1648.82	1159.65
1650.32	1115.3
1651.82	1079.99
1653.32	1052.82
1654.81	983.907
1656.31	1007.45
1657.81	940.927
1659.31	917.248
1660.81	896.922
1662.31	866.836
1663.81	828.106
1665.31	810.673
1666.8	793.362
1668.3	776.869
1669.8	743.863
1671.3	722.411
1672.8	688.549
1674.3	672.138
1675.8	655.991
1677.29	669.331
1678.79	637.479
1680.29	629.617
1681.79	618.786
1683.29	593.688
1684.79	581.367
1686.29	576.441
1687.79	568.013
1689.28	553.716
1690.78	532.035
1692.28	535.262
1693.78	527.205
1695.28	528.112
1696.78	515.603
1698.28	516.781
1699.78	500.741
1701.27	502.677
1702.77	502.689
1704.27	475.95
1705.77	479.155
1707.27	478.822
1708.77	466.442
1710.27	466.016
1711.76	468.464
1713.26	453.316
1714.76	462.723
1716.26	454.942
1717.76	442.287
1719.26	445.267
1720.76	435.187
1722.26	443.453
1723.75	430.835
1725.25	424.058
1726.75	424.304
1728.25	419.424
1729.75	412.874
1731.25	422.364
1732.75	404.697
1734.24	409.463
1735.74	411.116
1737.24	410.412
1738.74	419.416
1740.24	420.597
1741.74	404.348
1743.24	398.948
1744.74	393.562
1746.23	399.875
1747.73	399.036
1749.23	383.309
1750.73	401.259
1752.23	389.102
1753.73	384.039
1755.23	386.756
1756.73	387.45
1758.22	393.35
1759.72	377.489
1761.22	381.974
1762.72	383.06
1764.22	381.99
1765.72	376.037
1767.22	375.058
1768.71	376.822
1770.21	377.094
1771.71	375.641
1773.21	384.839
1774.71	374.163
1776.21	382.98
1777.71	375.112
1779.21	374.258
1780.7	381.199
1782.2	374.592
1783.7	362.776
1785.2	369.265
1786.7	375.674
1788.2	365.316
1789.7	370.902
1791.2	362.62
1792.69	356.671
1794.19	365.022
1795.69	380.009
1797.19	360.593
1798.69	353.914
1800.19	374.008
1801.69	364.494
1803.18	366.692
1804.68	363.828
1806.18	367.697
1807.68	366.991
1809.18	360.512
1810.68	368.272
1812.18	364.874
1813.68	365.069
1815.17	352.583
1816.67	365.258
1818.17	356.679
1819.67	356.274
1821.17	364.995
1822.67	353.907
1824.17	358.04
1825.67	352.826
1827.16	356.766
1828.66	348.749
1830.16	354.259
1831.66	347.967
1833.16	348.663
1834.66	348.702
1836.16	355.279
1837.65	349.048
1839.15	363.887
1840.65	354.149
1842.15	374.743
1843.65	359.834
1845.15	355.634
1846.65	354.595
1848.15	341.2
1849.64	354.696
1851.14	363.247
1852.64	339.124
1854.14	342.731
1855.64	359.324
1857.14	351.652
1858.64	356.175
1860.13	352.879
1861.63	355.138
1863.13	334.074
1864.63	342.279
1866.13	348.481
1867.63	359.036
1869.13	342.869
1870.63	345.518
1872.12	358.763
1873.62	332.984
1875.12	344.337
1876.62	333.005
1878.12	346.502
1879.62	348.65
1881.12	354.451
1882.62	353.59
1884.11	344.224
1885.61	356.471
1887.11	343.881
1888.61	348.953
1890.11	348.334
1891.61	338.65
1893.11	326.802
1894.6	348.171
1896.1	345.515
1897.6	345.052
1899.1	343.464
1900.6	337.977
1902.1	350.664
1903.6	351.518
1905.1	352.411
1906.59	341.426
1908.09	341.366
1909.59	346.891
1911.09	345.385
1912.59	342.667
1914.09	343.408
1915.59	334.432
1917.09	349.065
1918.58	349.28
1920.08	348.874
1921.58	339.92
1923.08	332.572
1924.58	341.49
1926.08	333.115
1927.58	332.406
1929.07	338.963
1930.57	332.76
1932.07	326.507
1933.57	343.217
1935.07	343.534
1936.57	346.65
1938.07	325.942
1939.57	330.098
1941.06	331.824
1942.56	339.88
1944.06	346.303
1945.56	342.531
1947.06	345.454
1948.56	341.997
1950.06	329.38
1951.55	330.763
1953.05	334.103
1954.55	339.568
1956.05	346.974
1957.55	331.884
1959.05	342.654
1960.55	342.782
1962.05	334.224
1963.54	326.26
1965.04	346.954
1966.54	330.405
1968.04	337.752
1969.54	341.308
1971.04	340.685
1972.54	329.022
1974.04	343.508
1975.53	341.198
1977.03	339.146
1978.53	346.187
1980.03	335.044
1981.53	342.138
1983.03	333.502
1984.53	347.294
1986.02	343.31
1987.52	344.391
1989.02	349.487
1990.52	348.415
1992.02	340.042
1993.52	341.444
1995.02	344.904
1996.52	340.149
1998.01	350.876
1999.51	334.886
2001.01	345.069
2002.51	355.56
2004.01	346.321
2005.51	339.159
2007.01	340.062
2008.51	332.605
2010	350.223
2011.5	327.653
2013	335.302
2014.5	348.595
2016	334.944
2017.5	348.427
2019	332.492
2020.49	347.394
2021.99	334.822
2023.49	343.969
2024.99	348.688
2026.49	348.105
2027.99	338.78
2029.49	343.656
2030.99	347.643
2032.48	342.142
2033.98	343.499
2035.48	340.277
2036.98	341.655
2038.48	336.697
2039.98	343.237
2041.48	343.156
2042.97	349.221
2044.47	345.848
2045.97	340.74
2047.47	336.813
2048.97	352.311
2050.47	334.933
2051.97	332.316
2053.47	345.412
2054.96	336.414
2056.46	345.283
2057.96	350.421
2059.46	352.751
2060.96	340.288
2062.46	335.919
2063.96	336.304
2065.46	341.217
2066.95	342.081
2068.45	342.754
2069.95	337.533
2071.45	343.489
2072.95	332.289
2074.45	346.433
2075.95	340.57
2077.44	336.404
2078.94	348.214
2080.44	342.87
2081.94	332.972
2083.44	343.247
2084.94	338.437
2086.44	340.801
2087.94	345.933
2089.43	346.294
2090.93	336.984
2092.43	349.783
2093.93	333.719
2095.43	339.772
2096.93	337.935
2098.43	347.943
2099.93	337.3
2101.42	339.833
2102.92	346.107
2104.42	332.422
2105.92	337.011
2107.42	338.794
2108.92	337.259
2110.42	315.994
2111.91	338.933
2113.41	328.589
2114.91	335.226
2116.41	332.525
2117.91	341.666
2119.41	344.208
2120.91	348.167
2122.41	337.843
2123.9	340.726
2125.4	342.886
2126.9	346.409
2128.4	339.645
2129.9	346.587
2131.4	345.773
2132.9	347.374
2134.4	349.58
2135.89	349.221
2137.39	347.036
2138.89	336.249
2140.39	340.592
2141.89	329.488
2143.39	346.941
2144.89	346.75
2146.38	347.837
2147.88	341.314
2149.38	344.901
2150.88	351.684
2152.38	344.837
2153.88	350.457
2155.38	356.043
2156.88	351.596
2158.37	358.469
2159.87	334.346
2161.37	356.741
2162.87	347.571
2164.37	341.788
2165.87	353.314
2167.37	345.688
2168.86	350.957
2170.36	344.045
2171.86	343.842
2173.36	341.264
2174.86	352.491
2176.36	352.771
2177.86	344.236
2179.36	346.703
2180.85	355.204
2182.35	358.471
2183.85	350.201
2185.35	342.165
2186.85	346.754
2188.35	343.943
2189.85	345.867
2191.34	361.953
2192.84	353.575
2194.34	342.183
2195.84	342.806
2197.34	353.201
2198.84	343.237
2200.34	340.146
2201.84	355.453
2203.33	357.043
2204.83	349.715
2206.33	356.14
2207.83	342.351
2209.33	360.91
2210.83	353.264
2212.33	343.189
2213.83	352.477
2215.32	360.375
2216.82	355.473
2218.32	352.889
2219.82	361.44
2221.32	347.558
2222.82	361.742
2224.32	359.804
2225.81	342.537
2227.31	343.212
2228.81	352.717
2230.31	349.936
2231.81	357.76
2233.31	355.159
2234.81	353.409
2236.31	364.683
2237.8	353.183
2239.3	348.145
2240.8	353.443
2242.3	351.753
2243.8	361.214
2245.3	348.127
2246.8	355.511
2248.3	365.159
2249.79	348.141
2251.29	367.78
2252.79	360.72
2254.29	357.175
2255.79	355.467
2257.29	357.536
2258.79	362.99
2260.28	371.883
2261.78	373.448
2263.28	358.436
2264.78	362.367
2266.28	362.878
2267.78	364.973
2269.28	357.795
2270.78	359.376
2272.27	371.098
2273.77	373.714
2275.27	370.294
2276.77	363.49
2278.27	377.277
2279.77	356.109
2281.27	366.256
2282.77	371.868
2284.26	379.199
2285.76	379.871
2287.26	364.816
2288.76	370.581
2290.26	369.499
2291.76	370.47
2293.26	364.799
2294.75	380.279
2296.25	375.212
2297.75	359.276
2299.25	368.472
2300	372.913