File: Example Data/Raman/CNT - TIM/Raytheon/FeCu adhesion/FeCu - T1.txt
300	658.224
301.488	685.758
302.977	712.727
304.465	716.725
305.953	726.964
307.442	698.424
308.93	693.175
310.418	704.952
311.906	697.051
313.395	692.006
314.883	693.09
316.371	715.486
317.86	714.302
319.348	706.765
320.836	699.078
322.325	699.29
323.813	711.722
325.301	696.532
326.79	709.148
328.278	699.25
329.766	706.722
331.254	717.492
332.743	714.75
334.231	700.468
335.719	704.805
337.208	708.033
338.696	719.505
340.184	698.447
341.673	716.047
343.161	707.199
344.649	709.543
346.137	733.891
347.626	728.918
349.114	725.466
350.602	717.356
352.091	720.249
353.579	716.828
355.067	722.342
356.556	735.445
358.044	723.405
359.532	721
361.021	735.443
362.509	729.993
363.997	714.639
365.485	717.373
366.974	726.81
368.462	694.679
369.95	702.819
371.439	718.585
372.927	712.104
374.415	698.899
375.904	702.249
377.392	718.41
378.88	704.804
380.369	700.45
381.857	698.578
383.345	708.134
384.833	712.089
386.322	691.181
387.81	710.179
389.298	697.361
390.787	693.708
392.275	689.325
393.763	693.126
395.252	700.669
396.74	700.216
398.228	694.972
399.717	697.683
401.205	701.968
402.693	697.366
404.181	720.675
405.67	700.789
407.158	711.144
408.646	689.241
410.135	714.193
411.623	684.908
413.111	692.104
414.6	708.673
416.088	680.628
417.576	690.775
419.064	713.141
420.553	701.634
422.041	693.644
423.529	709.219
425.018	687.956
426.506	691.562
427.994	699.444
429.483	695.418
430.971	691.35
432.459	697.616
433.948	696.651
435.436	688.818
436.924	683.646
438.412	688.1
439.901	675.297
441.389	712.051
442.877	706.161
444.366	683.24
445.854	682.532
447.342	680.377
448.831	674.578
450.319	670.229
451.807	688.353
453.296	678.402
454.784	707.285
456.272	677.853
457.76	682.236
459.249	665.911
460.737	689.042
462.225	699.763
463.714	665.618
465.202	669.791
466.69	683.232
468.179	675.696
469.667	667.758
471.155	683.378
472.644	695.771
474.132	682.617
475.62	688.105
477.108	680.07
478.597	677.09
480.085	685.977
481.573	760.795
483.062	691.561
484.55	684.469
486.038	706.274
487.527	682.225
489.015	682.899
490.503	688.324
491.991	669.288
493.48	687.895
494.968	662.553
496.456	673.809
497.945	673.988
499.433	673.281
500.921	681.52
502.41	685.196
503.898	670.255
505.386	664.216
506.875	659.53
508.363	693.838
509.851	655.409
511.339	664.14
512.828	666.338
514.316	686.266
515.804	691.168
517.293	655.208
518.781	681.651
520.269	670.235
521.758	671.221
523.246	646.588
524.734	660.663
526.223	690.499
527.711	690.01
529.199	680.613
530.687	661.214
532.176	676.223
533.664	662.204
535.152	653.925
536.641	656.293
538.129	668.224
539.617	659.315
541.106	675.574
542.594	665.029
544.082	669.782
545.57	675.656
547.059	681.813
548.547	664.568
550.035	675.777
551.524	679.593
553.012	672.406
554.5	663.134
555.989	663.058
557.477	677.418
558.965	678.002
560.454	691.333
561.942	676.756
563.43	678.271
564.919	682.948
566.407	676.297
567.895	692.11
569.383	680.498
570.872	682.005
572.36	690.072
573.848	687.492
575.337	670.544
576.825	672.765
578.313	678.898
579.802	685.199
581.29	682.44
582.778	708.218
584.266	675.419
585.755	688.472
587.243	689.08
588.731	684.328
590.22	688.646
591.708	700.504
593.196	687.464
594.685	677.906
596.173	692.64
597.661	680.465
599.15	700.505
600.638	689.992
602.126	691.434
603.614	684.638
605.103	681.392
606.591	687.187
608.079	698.4
609.568	699.322
611.056	686.813
612.544	695.619
614.033	684.894
615.521	699.415
617.009	677.219
618.497	714.082
619.986	704.782
621.474	696.906
622.962	700.485
624.451	689.775
625.939	717.164
627.427	687.521
628.916	698.097
630.404	699.95
631.892	704.761
633.381	685.081
634.869	732.322
636.357	715.498
637.846	718.684
639.334	703.737
640.822	717.331
642.31	706
643.799	679.507
645.287	716.837
646.775	705.224
648.264	697.861
649.752	717.104
651.24	707.483
652.729	702.947
654.217	714.472
655.705	702.678
657.193	741.18
658.682	717.254
660.17	722.006
661.658	722.955
663.147	727.444
664.635	719.242
666.123	719.265
667.612	712.075
669.1	717.029
670.588	721.221
672.077	748.529
673.565	727.559
675.053	736.911
676.541	730.547
678.03	732.307
679.518	746.108
681.006	738.353
682.495	743.807
683.983	731.654
685.471	718.54
686.96	708.582
688.448	731.297
689.936	734.24
691.424	731.638
692.913	732.704
694.401	721.617
695.889	745.888
697.378	720.75
698.866	733.228
700.354	738.006
701.843	722.505
703.331	732.485
704.819	715.742
706.308	724.569
707.796	740.298
709.284	745.915
710.773	741.694
712.261	748.46
713.749	732.093
715.237	729.178
716.726	747.196
718.214	747.08
719.702	742.367
721.191	742.937
722.679	742.19
724.167	738.095
725.656	761.603
727.144	743.063
728.632	770.966
730.12	765.735
731.609	743.821
733.097	765.167
734.585	745.357
736.074	757.944
737.562	748
739.05	769.297
740.539	773.083
742.027	758.806
743.515	788.419
745.004	779.13
746.492	779.46
747.98	766.28
749.468	791.668
750.957	778.107
752.445	776.819
753.933	781.741
755.422	790.187
756.91	781.6
758.398	783.546
759.887	768.705
761.375	768.794
762.863	765.462
764.352	766.638
765.84	791.345
767.328	793.317
768.816	791.639
770.305	776.086
771.793	785.295
773.281	761.324
774.77	792.401
776.258	801.75
777.746	790.629
779.235	748.034
780.723	781.388
782.211	777.129
783.7	787.904
785.188	794.939
786.676	787.414
788.164	788.613
789.653	770.863
791.141	792.417
792.629	797.094
794.118	805.428
795.606	797.154
797.094	795.101
798.583	793.657
800.071	807.333
801.559	799.118
803.047	808.388
804.536	795.722
806.024	810.829
807.512	797.039
809.001	805.156
810.489	827.884
811.977	807.874
813.466	819.575
814.954	827.057
816.442	821.25
817.931	834.362
819.419	798.3
820.907	823.244
822.395	814.448
823.884	836.694
825.372	820.224
826.86	845.59
828.349	828.004
829.837	816.493
831.325	816.568
832.814	849.081
834.302	827.454
835.79	813.981
837.279	830.59
838.767	835.484
840.255	840.097
841.743	852.232
843.232	842.529
844.72	838.386
846.208	843.039
847.697	830.089
849.185	866.519
850.673	830.611
852.162	820.16
853.65	836.973
855.138	810.866
856.627	809.745
858.115	825.714
859.603	825.744
861.091	837.005
862.58	849.326
864.068	826.168
865.556	817.216
867.045	826.948
868.533	806.731
870.021	803.311
871.51	801.355
872.998	823.769
874.486	809.626
875.974	812.486
877.463	802.175
878.951	819.964
880.439	814.482
881.928	797.748
883.416	789.958
884.904	793.905
886.393	793.169
887.881	796.966
889.369	787.382
890.858	773.115
892.346	782.951
893.834	780.862
895.322	781.109
896.811	785.732
898.299	784.149
899.787	771.238
901.276	779.571
902.764	761.253
904.252	772.021
905.741	768.292
907.229	767.401
908.717	761.542
910.206	776.116
911.694	759.916
913.182	759.355
914.67	795.736
916.159	747.747
917.647	758.161
919.135	743.561
920.624	760.805
922.112	777.844
923.6	766.593
925.089	768.62
926.577	742.837
928.065	746.121
929.554	742.421
931.042	765.999
932.53	746.559
934.018	763.146
935.507	755.394
936.995	760.648
938.483	768.558
939.972	744.514
941.46	760.387
942.948	754.897
944.437	765
945.925	758.785
947.413	759.101
948.901	756.697
950.39	752.31
951.878	771.295
953.366	771.46
954.855	744.307
956.343	771.827
957.831	754.524
959.32	750.795
960.808	745.912
962.296	746.032
963.785	755.517
965.273	746.501
966.761	746.629
968.249	748.4
969.738	767.605
971.226	754.446
972.714	757.688
974.203	751.203
975.691	738.522
977.179	748.371
978.668	756.679
980.156	746.556
981.644	743.899
983.133	749.312
984.621	769.21
986.109	764.926
987.597	758.377
989.086	751.139
990.574	739.556
992.062	744.996
993.551	766.363
995.039	753.913
996.527	755.994
998.016	757.705
999.504	787.246
1000.99	770.231
1002.48	752.915
1003.97	770.421
1005.46	759.358
1006.95	761.978
1008.43	768.91
1009.92	788.532
1011.41	763.751
1012.9	781.829
1014.39	774.61
1015.88	781.261
1017.36	763.5625
1018.85	759.638
1020.34	777.366
1021.83	791.891
1023.32	791.208
1024.81	784.895
1026.29	775.918
1027.78	778.185
1029.27	778.747
1030.76	792.26
1032.25	816.428
1033.73	817.204
1035.22	789.054
1036.71	792.597
1038.2	793.763
1039.69	775.23
1041.18	792.796
1042.66	798.053
1044.15	818.055
1045.64	797.255
1047.13	790.426
1048.62	798.682
1050.11	822.383
1051.59	790.92
1053.08	786.325
1054.57	805.412
1056.06	773.992
1057.55	789.841
1059.04	789.609
1060.52	796.467
1062.01	800.28
1063.5	783.016
1064.99	786.385
1066.48	785.877
1067.97	783.133
1069.45	785.436
1070.94	797.781
1072.43	794.677
1073.92	776.244
1075.41	782.676
1076.9	779.197
1078.38	779.086
1079.87	790.688
1081.36	785.427
1082.85	767.033
1084.34	760.497
1085.83	780.404
1087.31	800.313
1088.8	771.418
1090.29	771.57
1091.78	778.405
1093.27	772.822
1094.76	779.668
1096.24	774.42
1097.73	774.063
1099.22	783.957
1100.71	800.627
1102.2	783.451
1103.69	790.221
1105.17	791.421
1106.66	793.216
1108.15	798.633
1109.64	787.647
1111.13	789.46
1112.62	795.066
1114.1	804.953
1115.59	804.092
1117.08	797.16
1118.57	796.69
1120.06	795.56
1121.55	799.729
1123.03	787.914
1124.52	813.277
1126.01	797.236
1127.5	821.195
1128.99	810.882
1130.47	812.635
1131.96	817.454
1133.45	798.697
1134.94	812.586
1136.43	805.235
1137.92	807.4
1139.4	824.478
1140.89	803.5
1142.38	792.518
1143.87	818.418
1145.36	805.59
1146.85	817.083
1148.33	817.128
1149.82	809.416
1151.31	824.945
1152.8	819.842
1154.29	832.975
1155.78	824.96
1157.26	829.625
1158.75	805.28
1160.24	820.001
1161.73	835.557
1163.22	817.869
1164.71	817.086
1166.19	850.697
1167.68	819.742
1169.17	829.033
1170.66	833.411
1172.15	835.293
1173.64	817.326
1175.12	834.004
1176.61	838.752
1178.1	857.622
1179.59	817.224
1181.08	825.117
1182.57	818.574
1184.05	835.997
1185.54	828.784
1187.03	836.956
1188.52	856.526
1190.01	852.035
1191.5	849.881
1192.98	849.189
1194.47	856.585
1195.96	873.757
1197.45	823.764
1198.94	859.898
1200.43	875.21
1201.91	871.803
1203.4	862.797
1204.89	865.071
1206.38	857.065
1207.87	863.754
1209.36	861.576
1210.84	864.188
1212.33	877.464
1213.82	874.695
1215.31	862.175
1216.8	874.441
1218.28	896.395
1219.77	874.369
1221.26	879.988
1222.75	884.469
1224.24	873.769
1225.73	887.487
1227.21	888.895
1228.7	871.571
1230.19	877.244
1231.68	900.327
1233.17	899.971
1234.66	905.786
1236.14	896.007
1237.63	903.978
1239.12	904.157
1240.61	938.283
1242.1	918.923
1243.59	906.905
1245.07	912.664
1246.56	920.431
1248.05	928.874
1249.54	921.729
1251.03	930.326
1252.52	942.947
1254	934.832
1255.49	912.346
1256.98	933.2
1258.47	960.824
1259.96	952.82
1261.45	947.402
1262.93	958.158
1264.42	938.49
1265.91	944.53
1267.4	958.926
1268.89	951.517
1270.38	951.709
1271.86	961.168
1273.35	962.834
1274.84	971.236
1276.33	973.845
1277.82	953.671
1279.31	977.357
1280.79	996.923
1282.28	983.647
1283.77	983.744
1285.26	983.248
1286.75	994.498
1288.24	1007.98
1289.72	997.667
1291.21	1001.87
1292.7	1018.66
1294.19	1010.97
1295.68	1029.51
1297.17	1025.85
1298.65	1036.88
1300.14	1054.51
1301.63	1025.51
1303.12	1030.6
1304.61	1049.04
1306.09	1063.97
1307.58	1055.01
1309.07	1083.89
1310.56	1053.54
1312.05	1093.98
1313.54	1057.24
1315.02	1091.14
1316.51	1080.97
1318	1099.52
1319.49	1100.23
1320.98	1099.69
1322.47	1112.85
1323.95	1125.74
1325.44	1112.82
1326.93	1142.96
1328.42	1148.63
1329.91	1142.42
1331.4	1143.58
1332.88	1166.94
1334.37	1179.99
1335.86	1175.66
1337.35	1199.62
1338.84	1191.16
1340.33	1200.21
1341.81	1205.33
1343.3	1188.85
1344.79	1211.3
1346.28	1187.6
1347.77	1189.29
1349.26	1182.67
1350.74	1212.43
1352.23	1194.87
1353.72	1193.03
1355.21	1207.49
1356.7	1211.92
1358.19	1208.06
1359.67	1194.87
1361.16	1210.5
1362.65	1196.67
1364.14	1199.61
1365.63	1173.5
1367.12	1185.66
1368.6	1188.6
1370.09	1181.82
1371.58	1174.69
1373.07	1157.71
1374.56	1142.58
1376.05	1154.91
1377.53	1124.92
1379.02	1158.46
1380.51	1124.11
1382	1120.45
1383.49	1107.93
1384.98	1103.73
1386.46	1101.28
1387.95	1084.26
1389.44	1088.45
1390.93	1102.11
1392.42	1052.7
1393.91	1066.46
1395.39	1052.44
1396.88	1046.1
1398.37	1066.45
1399.86	1037.01
1401.35	1043.08
1402.83	1056.93
1404.32	1038.29
1405.81	1024.28
1407.3	1034.95
1408.79	1024.33
1410.28	1014.79
1411.76	1029.24
1413.25	1000.76
1414.74	1037.45
1416.23	1016.89
1417.72	1009.57
1419.21	997.524
1420.69	1019.51
1422.18	1019.96
1423.67	975.211
1425.16	1011.52
1426.65	992.827
1428.14	986.664
1429.62	992.071
1431.11	989.323
1432.6	960.74
1434.09	973.8
1435.58	989.205
1437.07	992.789
1438.55	978.506
1440.04	962.403
1441.53	977.292
1443.02	978.583
1444.51	970.852
1446	985.17
1447.48	970.122
1448.97	974.715
1450.46	974.664
1451.95	983.901
1453.44	965.747
1454.93	991.188
1456.41	977.277
1457.9	969.453
1459.39	958.77
1460.88	987.089
1462.37	972.661
1463.86	1012.62
1465.34	1016.99
1466.83	959.844
1468.32	965.224
1469.81	966.687
1471.3	952.785
1472.79	971.892
1474.27	966.553
1475.76	961.956
1477.25	971.695
1478.74	972.493
1480.23	962.424
1481.72	958.842
1483.2	954.129
1484.69	964.635
1486.18	957.371
1487.67	957.161
1489.16	942.369
1490.64	953.2
1492.13	957.489
1493.62	963.389
1495.11	963.784
1496.6	954.133
1498.09	940.745
1499.57	987.934
1501.06	971.417
1502.55	931.89
1504.04	943.73
1505.53	941.355
1507.02	968.852
1508.5	927.718
1509.99	961.188
1511.48	960.723
1512.97	954.279
1514.46	962.896
1515.95	944.596
1517.43	947.956
1518.92	956.864
1520.41	931.675
1521.9	953.743
1523.39	941.871
1524.88	960.728
1526.36	961.043
1527.85	997.854
1529.34	957.077
1530.83	977.23
1532.32	945.325
1533.81	968.904
1535.29	961.516
1536.78	980.408
1538.27	966.31
1539.76	944.767
1541.25	949.179
1542.74	961.521
1544.22	949.951
1545.71	959.474
1547.2	975.056
1548.69	965.585
1550.18	983.163
1551.67	987.109
1553.15	996.59
1554.64	1012.11
1556.13	1011.38
1557.62	1021.13
1559.11	1023.22
1560.6	984.131
1562.08	1034.77
1563.57	1015.76
1565.06	1021.58
1566.55	1026.82
1568.04	1031.85
1569.53	1028.54
1571.01	1062.57
1572.5	1059.95
1573.99	1055.59
1575.48	1071.44
1576.97	1067.7
1578.45	1074.43
1579.94	1077.58
1581.43	1081.96
1582.92	1115.71
1584.41	1129.36
1585.9	1123.96
1587.38	1153.36
1588.87	1144.87
1590.36	1160.59
1591.85	1151.37
1593.34	1177.12
1594.83	1161.54
1596.31	1192.18
1597.8	1191.13
1599.29	1179.15
1600.78	1197.03
1602.27	1208.32
1603.76	1191.23
1605.24	1215.61
1606.73	1177.26
1608.22	1142.18
1609.71	1179.47
1611.2	1202.37
1612.69	1152.47
1614.17	1167.57
1615.66	1149.9
1617.15	1132.87
1618.64	1130.35
1620.13	1109.72
1621.62	1093.8
1623.1	1081.85
1624.59	1053.99
1626.08	1061.98
1627.57	1064.46
1629.06	1042.46
1630.55	1022.4
1632.03	1001.36
1633.52	998.403
1635.01	962.861
1636.5	966.797
1637.99	951.149
1639.48	960.951
1640.96	944.635
1642.45	913.319
1643.94	910.873
1645.43	929.341
1646.92	896.059
1648.41	896.996
1649.89	888.84
1651.38	877.996
1652.87	890.932
1654.36	883.355
1655.85	882.042
1657.34	868.37
1658.82	847.647
1660.31	868.118
1661.8	858.624
1663.29	828.713
1664.78	818.575
1666.27	812.948
1667.75	822.622
1669.24	818.188
1670.73	819.12
1672.22	794.38
1673.71	810.869
1675.19	814.239
1676.68	802.62
1678.17	793.713
1679.66	790.247
1681.15	769.932
1682.64	777.491
1684.12	776.518
1685.61	783.715
1687.1	774.013
1688.59	781.885
1690.08	767.461
1691.57	771.141
1693.05	772.006
1694.54	780.622
1696.03	759.605
1697.52	748.551
1699.01	747.506
1700.5	750.345
1701.98	765.892
1703.47	765.858
1704.96	755.379
1706.45	747.71
1707.94	763.217
1709.43	733.606
1710.91	747.789
1712.4	741.797
1713.89	730.011
1715.38	730.897
1716.87	730.204
1718.36	760.159
1719.84	726.869
1721.33	737.235
1722.82	727.563
1724.31	737.314
1725.8	747.214
1727.29	725.872
1728.77	735.827
1730.26	712.68
1731.75	709.193
1733.24	717.958
1734.73	720.588
1736.22	731.226
1737.7	721.053
1739.19	701.949
1740.68	717.946
1742.17	718.252
1743.66	710.647
1745.15	713.039
1746.63	713.681
1748.12	702.583
1749.61	702.07
1751.1	718.259
1752.59	719.336
1754.08	696.151
1755.56	715.031
1757.05	704.504
1758.54	711.321
1760.03	714.523
1761.52	711.633
1763.01	719.212
1764.49	695.805
1765.98	724.856
1767.47	711.022
1768.96	717.942
1770.45	711.495
1771.93	725.212
1773.42	697.357
1774.91	707.367
1776.4	716.668
1777.89	701.82
1779.38	702.955
1780.86	698.344
1782.35	703.42
1783.84	708.503
1785.33	715.92
1786.82	702.115
1788.31	699.568
1789.79	700.324
1791.28	706.916
1792.77	701.358
1794.26	710.144
1795.75	700.708
1797.24	710.391
1798.72	704.016
1800.21	691.384
1801.7	689.642
1803.19	710.409
1804.68	695.294
1806.17	715.432
1807.65	699.841
1809.14	695.085
1810.63	715.784
1812.12	689.836
1813.61	697.492
1815.1	681.23
1816.58	697.756
1818.07	702.754
1819.56	688.251
1821.05	690.305
1822.54	671.678
1824.03	672.769
1825.51	686.722
1827	685.425
1828.49	677.774
1829.98	689.779
1831.47	691.942
1832.96	698.728
1834.44	680.126
1835.93	703.708
1837.42	686.392
1838.91	688.507
1840.4	708.722
1841.89	673.827
1843.37	678.581
1844.86	681.181
1846.35	690.57
1847.84	683.829
1849.33	675.51
1850.82	684.13
1852.3	684.442
1853.79	685.388
1855.28	666.907
1856.77	666.663
1858.26	678.282
1859.74	679.095
1861.23	669.384
1862.72	691.788
1864.21	678.59
1865.7	668.746
1867.19	676.224
1868.67	694.134
1870.16	676.857
1871.65	679.392
1873.14	704.699
1874.63	669
1876.12	669.804
1877.6	671.523
1879.09	673.473
1880.58	682.709
1882.07	673.418
1883.56	682.849
1885.05	661.769
1886.53	662.941
1888.02	663.731
1889.51	656.318
1891	674.435
1892.49	670.26
1893.98	647.389
1895.46	646.372
1896.95	668.187
1898.44	659.592
1899.93	659.095
1901.42	655.786
1902.91	661.369
1904.39	662.187
1905.88	653.14
1907.37	648.155
1908.86	654.518
1910.35	654.062
1911.84	647.751
1913.32	651.674
1914.81	655.253
1916.3	659.833
1917.79	650.859
1919.28	644.662
1920.77	654.823
1922.25	666.975
1923.74	674.31
1925.23	659.926
1926.72	647.956
1928.21	654.77
1929.7	639.908
1931.18	638.794
1932.67	667.132
1934.16	633.574
1935.65	627.487
1937.14	659.159
1938.63	657.654
1940.11	646.381
1941.6	647.354
1943.09	647.294
1944.58	644.994
1946.07	636.268
1947.55	626.964
1949.04	646.252
1950.53	638.604
1952.02	625.505
1953.51	639.315
1955	635.055
1956.48	633.025
1957.97	632.89
1959.46	641.092
1960.95	624.562
1962.44	630.159
1963.93	644.33
1965.41	631.276
1966.9	612.575
1968.39	624.484
1969.88	633.248
1971.37	624.616
1972.86	624.399
1974.34	626.526
1975.83	631.912
1977.32	627.949
1978.81	628.81
1980.3	628.47
1981.79	632.913
1983.27	622.073
1984.76	642.601
1986.25	624.313
1987.74	638.037
1989.23	616.288
1990.72	628.666
1992.2	607.429
1993.69	621.109
1995.18	624.157
1996.67	624.413
1998.16	622.784
1999.65	621.727
2001.13	626.108
2002.62	607.946
2004.11	615.125
2005.6	620.779
2007.09	615.145
2008.58	622.07
2010.06	627.241
2011.55	626.692
2013.04	627.259
2014.53	620.287
2016.02	638.363
2017.51	615.133
2018.99	625.134
2020.48	613.792
2021.97	621.071
2023.46	593.302
2024.95	628.265
2026.44	619.276
2027.92	627.357
2029.41	624.586
2030.9	608.675
2032.39	611.395
2033.88	625.927
2035.36	605.71
2036.85	614.824
2038.34	599.917
2039.83	617.419
2041.32	608.791
2042.81	613.659
2044.29	603.564
2045.78	595.732
2047.27	606.66
2048.76	619.906
2050.25	622.692
2051.74	620.551
2053.22	608.984
2054.71	595.76
2056.2	590.604
2057.69	610.102
2059.18	584.218
2060.67	601.897
2062.15	590.621
2063.64	607.772
2065.13	602.583
2066.62	613.613
2068.11	614.429
2069.6	606.698
2071.08	597.269
2072.57	586.852
2074.06	599.767
2075.55	598.456
2077.04	587.633
2078.53	587.373
2080.01	592.418
2081.5	590.435
2082.99	574.822
2084.48	590.359
2085.97	589.007
2087.46	586.262
2088.94	592.825
2090.43	595.248
2091.92	588.903
2093.41	587.031
2094.9	576.692
2096.39	588.054
2097.87	572.014
2099.36	586.638
2100.85	573.034
2102.34	593.643
2103.83	576.847
2105.32	570.709
2106.8	572.236
2108.29	582.23
2109.78	591.845
2111.27	582.347
2112.76	571.783
2114.25	575.382
2115.73	598.248
2117.22	591.478
2118.71	574.681
2120.2	578.342
2121.69	574.931
2123.18	586.385
2124.66	579.371
2126.15	590.906
2127.64	564.694
2129.13	590.271
2130.62	578.425
2132.1	583.35
2133.59	560.259
2135.08	565.167
2136.57	572.734
2138.06	570.479
2139.55	572.511
2141.03	574.25
2142.52	576.163
2144.01	575.782
2145.5	566.424
2146.99	575.5
2148.48	578.951
2149.96	568.432
2151.45	565.139
2152.94	568.762
2154.43	553.93
2155.92	565.907
2157.41	570.832
2158.89	554.539
2160.38	559.321
2161.87	562.98
2163.36	564.332
2164.85	552.066
2166.34	545.418
2167.82	550.625
2169.31	548.632
2170.8	558.085
2172.29	558.03
2173.78	555.551
2175.27	572.242
2176.75	565.866
2178.24	569.002
2179.73	560.542
2181.22	540.84
2182.71	546.323
2184.2	553.771
2185.68	557.431
2187.17	567.455
2188.66	552.857
2190.15	539.453
2191.64	533.963
2193.13	542.322
2194.61	558.083
2196.1	536.996
2197.59	540.96
2199.08	536.634
2200.57	555.858
2202.06	543.959
2203.54	550.125
2205.03	551.509
2206.52	546.839
2208.01	519.742
2209.5	543.095
2210.99	540.206
2212.47	546.84
2213.96	538.309
2215.45	533.09
2216.94	531.184
2218.43	526.248
2219.92	538.211
2221.4	537.083
2222.89	546.212
2224.38	533.653
2225.87	527.4
2227.36	540.651
2228.84	528.16
2230.33	549.549
2231.82	525.625
2233.31	529.403
2234.8	523.698
2236.29	537.947
2237.77	534.674
2239.26	539.354
2240.75	532.859
2242.24	532.559
2243.73	522.473
2245.22	529.977
2246.7	508.95
2248.19	520.452
2249.68	532.628
2251.17	514.713
2252.66	529.729
2254.15	526.289
2255.63	525.306
2257.12	535.405
2258.61	542.557
2260.1	529.671
2261.59	523.781
2263.08	513.765
2264.56	529.047
2266.05	549.478
2267.54	539.307
2269.03	530.454
2270.52	524.342
2272.01	538.92
2273.49	523.901
2274.98	513.868
2276.47	500.394
2277.96	520.779
2279.45	518.015
2280.94	521.246
2282.42	533.667
2283.91	539.691
2285.4	504.264
2286.89	539.324
2288.38	526.275
2289.87	532.625
2291.35	517.952
2292.84	520.678
2294.33	524.106
2295.82	521.342
2297.31	534.823
2298.8	520.126
2300.28	521.574
2301.77	504.446
2303.26	504.583
2304.75	516.952
2306.24	534.883
2307.73	513.923
2309.21	513.383
2310.7	527.054
2312.19	522.149
2313.68	509.473
2315.17	520.922
2316.65	512.508
2318.14	510.729
2319.63	513.239
2321.12	510.086
2322.61	511.812
2324.1	503.637
2325.58	514.271
2327.07	533.142
2328.56	553.195
2330.05	605.478
2331.54	591.559
2333.03	543.863
2334.51	484.909
2336	517.349
2337.49	502.533
2338.98	498.329
2340.47	489.893
2341.96	518.357
2343.44	508.723
2344.93	497.888
2346.42	487.507
2347.91	498.936
2349.4	508.689
2350.89	492.305
2352.37	500.694
2353.86	509.047
2355.35	499.733
2356.84	496.607
2358.33	512.879
2359.82	488.836
2361.3	507.086
2362.79	512.257
2364.28	491.129
2365.77	499.541
2367.26	487.521
2368.75	495.132
2370.23	486.937
2371.72	502.512
2373.21	489.842
2374.7	489.107
2376.19	493.852
2377.68	486.106
2379.16	477.902
2380.65	492.502
2382.14	503.698
2383.63	508.762
2385.12	498.242
2386.61	492.109
2388.09	492.612
2389.58	501.16
2391.07	502.917
2392.56	499.271
2394.05	487.736
2395.54	506.25
2397.02	501.48
2398.51	492.379
2400	500.014