File: Example Data/Raman/Kara/12-20-10/Si-Graphene/3bulk/SGbulk_1.txt
400	19.3231
402.515	20.5954
405.03	22.3907
407.546	23
410.061	23
412.576	21.9215
415.091	20.2318
417.607	18.8801
420.122	18.9597
422.637	21.5613
425.152	18.8454
427.668	21.7778
430.183	20.8958
432.698	15.3158
435.213	22.1586
437.729	20.4192
440.244	20.3744
442.759	18.3166
445.274	16.2653
447.79	18.7303
450.305	17.9142
452.82	16.8179
455.335	18.0569
457.851	19.6668
460.366	19.1371
462.881	15.5418
465.396	19.3231
467.912	19.4367
470.427	18.5481
472.942	18.3902
475.457	19.1108
477.973	20.7478
480.488	21.4156
483.003	21.2933
485.518	23.6398
488.034	28.5819
490.549	26.2871
493.064	23.3605
495.579	19.193
498.095	12.7161
500.61	10.2353
503.125	19.7357
505.64	16.6161
508.155	17.6234
510.671	19.2662
513.186	18.7811
515.701	15.9175
518.216	14.6023
520.732	9.67455
523.247	10.5303
525.762	11.973
528.277	12.6313
530.793	13.0427
533.308	11.8899
535.823	11.0405
538.338	12.0834
540.854	12.5111
543.369	11.9854
545.884	12.5887
548.399	12.4238
550.915	13.6711
553.43	12.8174
555.945	9.95529
558.46	7.51303
560.976	9.80183
563.491	9.96706
566.006	11.3243
568.521	11.7066
571.037	12.4107
573.552	14.7716
576.067	15.765
578.582	14.6823
581.098	11.2693
583.613	11.3994
586.128	12.7812
588.643	10.4007
591.159	11.8933
593.674	14.7707
596.189	12.1248
598.704	11.0007
601.219	12.3414
603.735	11.8487
606.25	14.1729
608.765	13.8003
611.281	14.413
613.796	15.6588
616.311	16.6
618.826	16.093
621.341	10.4355
623.857	11.5718
626.372	9.91785
628.887	9.89344
631.402	12.3056
633.918	11.8064
636.433	9.47455
638.948	14.2013
641.463	16.9109
643.979	15.0992
646.494	12.6832
649.009	16.7423
651.524	16.0745
654.04	13.7745
656.555	12.0767
659.07	13.5435
661.585	15.3626
664.101	11.9835
666.616	15.8297
669.131	16.3513
671.646	17.9422
674.162	18.914
676.677	19.334
679.192	20.1742
681.707	15.1491
684.223	19.9453
686.738	17.3239
689.253	15.9851
691.768	17.7533
694.284	18.0656
696.799	14.71
699.314	13.7883
701.829	16.074
704.344	16.7126
706.86	16.5961
709.375	18.1083
711.89	19.5884
714.406	18.7473
716.921	22.2067
719.436	21.2321
721.951	19.9037
724.466	20.3971
726.982	16.8239
729.497	17.1609
732.012	20.7739
734.527	22.7049
737.043	24.664
739.558	24.6829
742.073	19.7405
744.588	20.7532
747.104	21.7655
749.619	21.3511
752.134	23.5664
754.649	25.9295
757.165	25.8753
759.68	27.9381
762.195	26.0778
764.71	22.4924
767.226	24.9285
769.741	27.9645
772.256	28.3546
774.771	29.3431
777.287	33.7474
779.802	26.173
782.317	24.4583
784.832	25.8823
787.348	27.4047
789.863	28.6706
792.378	32.1139
794.893	25.6641
797.409	27.2997
799.924	29.7193
802.439	29.3254
804.954	28.9863
807.469	32.2009
809.985	27.0971
812.5	28.8351
815.015	29.6108
817.531	32.4774
820.046	33.3313
822.561	28.9554
825.076	23.4
827.591	32.9458
830.107	33.6
832.622	33.3417
835.137	29.413
837.652	28.5501
840.168	33.9591
842.683	33.3961
845.198	27.4223
847.713	27.5653
850.229	34.8604
852.744	37.3049
855.259	35.9883
857.774	37.2336
860.29	35.6771
862.805	37.3873
865.32	35.3516
867.835	33.1475
870.351	33.8607
872.866	33.0678
875.381	28.1052
877.896	32.3065
880.412	29.7345
882.927	26.7159
885.442	27.9716
887.957	28.0161
890.473	26.1443
892.988	25.1728
895.503	22.9539
898.018	17.1125
900.534	21.3797
903.049	21.772
905.564	17.21
908.079	14.7342
910.594	18.3933
913.11	19.0496
915.625	16.6396
918.14	16.7102
920.656	15.7814
923.171	17.1922
925.686	17.7611
928.201	14.8454
930.716	13.7508
933.232	15.3031
935.747	13.7823
938.262	12.1901
940.777	10.636
943.293	10.8372
945.808	12.61
948.323	12.6439
950.838	8.84202
953.354	13.248
955.869	12.5598
958.384	10.1282
960.899	9.97007
963.415	11.5262
965.93	12.1268
968.445	13.4579
970.96	10.8597
973.476	10.6
975.991	8.91791
978.506	10.0564
981.021	7.95655
983.537	2.9929
986.052	8.01042
988.567	9.57237
991.082	10.9652
993.598	14.3751
996.113	13.2379
998.628	11.2321
1001.14	10.1416
1003.66	8.64115
1006.17	8.23312
1008.69	11.1902
1011.2	14.3118
1013.72	11.3299
1016.23	10.8115
1018.75	12.3904
1021.27	12.2628
1023.78	9.86829
1026.3	9.37593
1028.81	13.563
1031.33	12.9059
1033.84	11.9457
1036.36	11.9164
1038.87	10.7579
1041.39	9.47709
1043.9	11.6226
1046.42	10.6787
1048.93	13.8261
1051.45	8.03496
1053.96	6.45815
1056.48	8.68157
1058.99	11.3122
1061.51	12.1289
1064.02	11.3413
1066.54	10.8583
1069.05	5.42561
1071.57	7.74935
1074.09	7.29393
1076.6	4.79792
1079.12	2.87419
1081.63	1.2032
1084.15	-0.690538
1086.66	4.89314
1089.18	2.60964
1091.69	3.99676
1094.21	3.99364
1096.72	4.13397
1099.24	3.7894
1101.75	1.79979
1104.27	-1.11364
1106.78	-2.47602
1109.3	-3.35683
1111.81	-5.24223
1114.33	-0.569781
1116.84	-0.0394809
1119.36	0.925368
1121.875	1.69169
1124.39	-0.796464
1126.91	-1.96155
1129.42	-5.74774
1131.94	-1.33231
1134.45	-2.19835
1136.97	-3.65602
1139.48	-1.37308
1142	0.657819
1144.51	-0.0496359
1147.03	-1.50438
1149.54	-5.00458
1152.06	-2.88031
1154.57	-2.8
1157.09	-4.27399
1159.6	-6.54348
1162.12	-7.29473
1164.63	-5.57748
1167.15	-3.11807
1169.66	-3.38173
1172.18	-8.00836
1174.7	-4.99139
1177.21	-5.13254
1179.73	-2.75464
1182.24	-3.74355
1184.76	-5.59489
1187.27	-5.81536
1189.79	-3.66589
1192.3	-0.904582
1194.82	-7.50562
1197.33	-5.90424
1199.85	-3.96836
1202.36	-4.61199
1204.88	-5.49061
1207.39	-4.89233
1209.91	-3.9209
1212.42	-3.28364
1214.94	-2.42905
1217.45	-4.54098
1219.97	-6.32601
1222.48	-2.63694
1225	-6.48932
1227.52	-4.92275
1230.03	-3.84128
1232.55	-5.17025
1235.06	-6.2
1237.58	-5.81134
1240.09	-4.48841
1242.61	-5.19788
1245.12	-4.84008
1247.64	-4.48195
1250.15	-7.30108
1252.67	-4.37658
1255.18	-4.48736
1257.7	-7.57294
1260.21	-6.37485
1262.73	-4.64708
1265.24	-6.8967
1267.76	-8.15306
1270.27	-5.43474
1272.79	-2.71373
1275.3	-3.98077
1277.82	-6.67611
1280.34	-7.45111
1282.85	-5.8735
1285.37	-5.47777
1287.88	-8.85898
1290.4	-6.89059
1292.91	-5.09059
1295.43	-9.27759
1297.94	-5.00942
1300.46	-4.18829
1302.97	-4.15366
1305.49	-4.4433
1308	-3.60985
1310.52	-1.80015
1313.03	-5.16175
1315.55	-7.7162
1318.06	-3.92276
1320.58	-3.10111
1323.09	-4.55447
1325.61	-5.68074
1328.125	-2.84228
1330.64	-2.45787
1333.16	-2.98413
1335.67	-1.93275
1338.19	-5.53324
1340.7	-8.87501
1343.22	-6.21348
1345.73	-7.11954
1348.25	-6.37415
1350.76	-1.95484
1353.28	-2.82662
1355.79	-6.2736
1358.31	-5.19117
1360.82	-2.66497
1363.34	-3.28936
1365.85	-1.1519
1368.37	-2.68191
1370.88	-1.40979
1373.4	-4.1058
1375.91	-4.23778
1378.43	-5.497
1380.95	-3.731
1383.46	-3.58858
1385.98	-4.23961
1388.49	-3.43905
1391.01	-3.07171
1393.52	-3.8731
1396.04	-4.1624
1398.55	-3.80445
1401.07	-4.53388
1403.58	-6.92242
1406.1	-7.25154
1408.61	-6.54492
1411.13	-6.2
1413.64	-3.02498
1416.16	-1.65252
1418.67	-4.86176
1421.19	-5.57905
1423.7	-6.94247
1426.22	-3.01841
1428.73	-6.8602
1431.25	-7.35291
1433.77	-6.28336
1436.28	-6.71361
1438.8	-5.86677
1441.31	-5.52759
1443.83	-6.81772
1446.34	-6.02695
1448.86	-1.37591
1451.37	0.673659
1453.89	-3.90982
1456.4	-2.04008
1458.92	-2.77439
1461.43	-7.76578
1463.95	-5.01553
1466.46	-1.5895
1468.98	-2.14729
1471.49	-3.11284
1474.01	-3.2
1476.52	-4.0088
1479.04	-4.67995
1481.55	-3.50162
1484.07	-3.76828
1486.59	-6.58228
1489.1	-6.43489
1491.62	-9.56973
1494.13	-7.57822
1496.65	-3.93634
1499.16	-0.620476
1501.68	-2.59003
1504.19	-3.526
1506.71	-1.85967
1509.22	-1.19438
1511.74	-3.71106
1514.25	-7.50852
1516.77	-6.02989
1519.28	-3.51677
1521.8	-6.63673
1524.31	-8.48769
1526.83	-4.24906
1529.34	-2.64444
1531.86	0.201324
1534.375	-2.30778
1536.89	-3.62335
1539.41	-4.00655
1541.92	-4.02277
1544.44	-3.43159
1546.95	-4.66076
1549.47	-5.67022
1551.98	-5.22907
1554.5	-5.28053
1557.01	-3.78408
1559.53	0.307588
1562.04	-3.54565
1564.56	-4.83487
1567.07	-4.42068
1569.59	-0.662417
1572.1	-0.79365
1574.62	-3.13221
1577.13	-4.89934
1579.65	-5.84741
1582.16	-3.97046
1584.68	-1.13793
1587.2	-3.36423
1589.71	-3.75978
1592.23	-8.07294
1594.74	-5.45868
1597.26	-5.03478
1599.77	-2.96515
1602.29	-2.28701
1604.8	-3.63449
1607.32	-4.46092
1609.83	-5.07011
1612.35	-6.23721
1614.86	-5.89735
1617.38	-4.52081
1619.89	-3.40285
1622.41	-1.99234
1624.92	-3.39329
1627.44	-3.03183
1629.95	-5.55109
1632.47	-4.96817
1634.98	-3.46722
1637.5	-2.68245
1640.02	-5.10696
1642.53	-6.22007
1645.05	-4.8283
1647.56	-3.93829
1650.08	-6.5335
1652.59	-5.08551
1655.11	-4.29218
1657.62	-4.01838
1660.14	-2.75919
1662.65	-6.34179
1665.17	-4.8
1667.68	-4.1399
1670.2	-1.67634
1672.71	-4.84998
1675.23	-2.7819
1677.74	-1.27251
1680.26	-4.07472
1682.77	-7.7692
1685.29	-6.35501
1687.8	-4.92274
1690.32	-6.76265
1692.84	-8.04835
1695.35	-8.31324
1697.87	-5.94322
1700.38	-3.32537
1702.9	-3.72699
1705.41	-3.81903
1707.93	-1.82164
1710.44	-1.4
1712.96	-1.4
1715.47	-2.43279
1717.99	-8.50265
1720.5	-5.38553
1723.02	-5.00618
1725.53	-3.69344
1728.05	-2.54065
1730.56	-6.56061
1733.08	-4.89705
1735.59	-3.46789
1738.11	-1.1521
1740.625	-2.09964
1743.14	-4.95276
1745.66	-3.9511
1748.17	-2.77915
1750.69	-5.53196
1753.2	-6.12217
1755.72	-4.02433
1758.23	-4.53289
1760.75	-2.24966
1763.26	-2.26905
1765.78	-0.337672
1768.29	-5.00259
1770.81	-1.567
1773.32	1.75734
1775.84	-0.343475
1778.35	-2.63081
1780.87	-6.5171
1783.38	-3.63678
1785.9	-2.68126
1788.41	-2.75064
1790.93	-3.08393
1793.45	0.533645
1795.96	-1.09397
1798.48	-5.40936
1800.99	-3.76283
1803.51	-2.99149
1806.02	-4.08762
1808.54	-3.33183
1811.05	-4.32347
1813.57	-2.93227
1816.08	0.25244
1818.6	-3.40456
1821.11	-3.78911
1823.63	-1.35576
1826.14	-3.43571
1828.66	-0.221704
1831.17	-4.09736
1833.69	-2.47638
1836.2	-6.32591
1838.72	-1.87118
1841.23	-8.48907
1843.75	-5.37595
1846.27	-4.13398
1848.78	-6.54829
1851.3	-5.52817
1853.81	-1.66895
1856.33	-0.4
1858.84	-1.70752
1861.36	-3.88559
1863.87	-1.293
1866.39	0.320079
1868.9	-1.32835
1871.42	-1.91072
1873.93	-1.86929
1876.45	-3.11468
1878.96	-2.17865
1881.48	-0.0021446
1883.99	-3.68242
1886.51	-5.02533
1889.02	-2.34447
1891.54	-2.22783
1894.05	-3.82046
1896.57	-2.34203
1899.09	-6.90941
1901.6	-4.959
1904.12	-4.61452
1906.63	-4.62792
1909.15	-0.840281
1911.66	-3.55907
1914.18	-0.347334
1916.69	-2.61505
1919.21	-1.53892
1921.72	-4.71934
1924.24	-3.33873
1926.75	-2.67227
1929.27	-0.538257
1931.78	-1.53288
1934.3	-2.59242
1936.81	-1.08494
1939.33	-0.81355
1941.84	-2.19583
1944.36	-2.28817
1946.875	-1.01587
1949.39	-1.58162
1951.91	-3.53418
1954.42	-5.70479
1956.94	-6.17534
1959.45	-4.4055
1961.97	-1.86954
1964.48	0.505829
1967	0.910506
1969.51	0.0818543
1972.03	-0.343073
1974.54	-2.37382
1977.06	-2.6699
1979.57	-0.571889
1982.09	-3.61104
1984.6	-4.3134
1987.12	-3.23949
1989.63	-3.91269
1992.15	-0.965181
1994.66	-2.242
1997.18	-1.6337
1999.7	0.836452
2002.21	-2.45633
2004.73	-1.07174
2007.24	-3.87795
2009.76	-3.0631
2012.27	-3.86723
2014.79	-6.10547
2017.3	0.062562
2019.82	-2.07552
2022.33	0.672178
2024.85	-3.98067
2027.36	-2.40453
2029.88	-6.33275
2032.39	-0.970594
2034.91	-0.608767
2037.42	-5.12395
2039.94	-0.937492
2042.45	1.78474
2044.97	-2.52503
2047.48	1.46564
2050	-3.11316
2052.52	-3.10378
2055.03	-0.93781
2057.55	-6.20063
2060.06	-2.00309
2062.58	-0.66875
2065.09	-0.927328
2067.61	-1.8088
2070.12	2.0005
2072.64	-1.27333
2075.15	-1.30421
2077.67	1.47806
2080.18	-1.32777
2082.7	-2.24813
2085.21	1.10838
2087.73	-2.42103
2090.24	0.00428816
2092.76	2.73112
2095.27	1.48145
2097.79	0.254884
2100.3	-1.8492
2102.82	-1.01611
2105.34	-2.46679
2107.85	0.553577
2110.37	3.35219
2112.88	0.988255
2115.4	-1.04713
2117.91	-2.5482
2120.43	0.498227
2122.94	2.07192
2125.46	0.908807
2127.97	-0.739323
2130.49	2.22288
2133	5.21277
2135.52	2.76691
2138.03	-0.858343
2140.55	-0.917768
2143.06	-0.816855
2145.58	-1.51682
2148.09	-0.733895
2150.61	0.345339
2153.125	1.08985
2155.64	2.70619
2158.16	0.230021
2160.67	0.0539596
2163.19	0.0563113
2165.7	0.975326
2168.22	-0.0559271
2170.73	-0.985954
2173.25	-2.61811
2175.76	-0.561659
2178.28	1.36629
2180.79	0.442028
2183.31	-1.79579
2185.82	-2.19083
2188.34	0.418296
2190.85	-0.45439
2193.37	0.78749
2195.88	0.697119
2198.4	-1.19648
2200.91	-0.459851
2203.43	-0.321151
2205.95	-0.0337913
2208.46	0.3395
2210.98	1.25668
2213.49	-1.26823
2216.01	-1.33771
2218.52	1.3008
2221.04	-1.59981
2223.55	-0.881083
2226.07	-2.83542
2228.58	-2.32175
2231.1	-1.6697
2233.61	1.17888
2236.13	0.392536
2238.64	2.34795
2241.16	0.592496
2243.67	-2.68795
2246.19	0.912295
2248.7	1.47719
2251.22	0.761511
2253.73	-0.885156
2256.25	0.905018
2258.77	-1.17839
2261.28	0.204008
2263.8	1.88621
2266.31	4.2287
2268.83	3.4679
2271.34	-2.66943
2273.86	0.975794
2276.37	-0.12462
2278.89	2.25897
2281.4	1.69371
2283.92	1.61048
2286.43	0.00522427
2288.95	2.39622
2291.46	1.17922
2293.98	3.96212
2296.49	3.148
2299.01	2.05112
2301.52	3.9111
2304.04	1.57906
2306.55	-0.0241921
2309.07	4.09682
2311.59	2.89171
2314.1	0.432914
2316.62	0.167651
2319.13	3.40099
2321.65	1.38204
2324.16	2.75983
2326.68	5.0761
2329.19	3.49416
2331.71	6.97586
2334.22	7.72513
2336.74	5.82706
2339.25	3.52432
2341.77	3.00941
2344.28	5.15055
2346.8	3.44023
2349.31	3.98999
2351.83	4.92707
2354.34	3.97871
2356.86	1.71265
2359.375	1.30292
2361.89	1.50962
2364.41	1.74316
2366.92	4.92952
2369.44	5.15352
2371.95	2.51659
2374.47	6.38243
2376.98	3.68096
2379.5	2.46622
2382.01	4.41861
2384.53	3.07557
2387.04	6.75662
2389.56	3.30202
2392.07	3.26738
2394.59	5.10107
2397.1	4.06681
2399.62	4.81214
2402.13	6.7399
2404.65	6.04335
2407.16	5.88424
2409.68	4.93555
2412.2	6.80668
2414.71	10.5791
2417.23	8.73388
2419.74	7.71233
2422.26	10.0178
2424.77	14.1323
2427.29	13.6532
2429.8	12.8214
2432.32	16.8307
2434.83	20.4539
2437.35	19.3028
2439.86	22.0179
2442.38	25.7239
2444.89	23.9714
2447.41	22.9867
2449.92	20.0928
2452.44	14.3504
2454.95	14.3032
2457.47	16.3816
2459.98	14.3773
2462.5	11.3052
2465.02	11.4747
2467.53	9.49512
2470.05	12.0901
2472.56	12.6665
2475.08	9.85194
2477.59	9.29234
2480.11	9.20357
2482.62	9.36987
2485.14	9.7408
2487.65	11.0282
2490.17	10.2655
2492.68	8.86308
2495.2	7.46122
2497.71	7.37838
2500.23	8.20895
2502.74	9.25257
2505.26	11.0494
2507.77	9.77932
2510.29	6.05637
2512.8	6.75268
2515.32	9.1465
2517.84	9.76635
2520.35	9.71418
2522.87	11.2627
2525.38	11.2797
2527.9	9.30656
2530.41	8.83681
2532.93	9.96644
2535.44	8.71056
2537.96	9.44611
2540.47	8.22395
2542.99	9.00549
2545.5	10.322
2548.02	10.7969
2550.53	10.5474
2553.05	8.3695
2555.56	7.84043
2558.08	10.8741
2560.59	9.88292
2563.11	10.8907
2565.625	10.2247
2568.14	9.85038
2570.66	9.01226
2573.17	12.3835
2575.69	12.2516
2578.2	8.29019
2580.72	7.35687
2583.23	8.53864
2585.75	6.64871
2588.26	7.78957
2590.78	7.24998
2593.29	6.49319
2595.81	5.60821
2598.32	8.25073
2600.84	9.55038
2603.35	9.14917
2605.87	10.5805
2608.38	8.78832
2610.9	8.47101
2613.41	8.01413
2615.93	6.72134
2618.45	11.1783
2620.96	6.0198
2623.48	8.58837
2625.99	10.2245
2628.51	8.14198
2631.02	12.3734
2633.54	10.482
2636.05	9.91353
2638.57	9.45364
2641.08	10.7307
2643.6	9.70379
2646.11	8.13762
2648.63	7.81862
2651.14	8.17301
2653.66	8.48736
2656.17	9.04073
2658.69	7.05809
2661.2	8.17506
2663.72	9.94251
2666.23	8.01656
2668.75	8.66878
2671.27	8.70381
2673.78	8.94056
2676.3	11.1539
2678.81	14.4184
2681.33	13.4681
2683.84	10.5424
2686.36	11.2732
2688.87	12.0352
2691.39	12.2994
2693.9	11.0189
2696.42	8.5372
2698.93	9.6256
2701.45	10.0552
2703.96	10.9822
2706.48	12.276
2708.99	13.0424
2711.51	13.2634
2714.02	10.9696
2716.54	10.2323
2719.05	11.8899
2721.57	11.6913
2724.09	10.1698
2726.6	13.5785
2729.12	11.4347
2731.63	11.1799
2734.15	8.72079
2736.66	12.3673
2739.18	12.2236
2741.69	13.106
2744.21	10.9447
2746.72	12.1717
2749.24	11.0488
2751.75	12.6477
2754.27	10.6895
2756.78	14.196
2759.3	11.521
2761.81	12.4502
2764.33	12.0543
2766.84	10.7312
2769.36	10.7002
2771.875	12.0621
2774.39	12.4278
2776.91	11.3219
2779.42	10.2458
2781.94	10.7286
2784.45	11.8681
2786.97	11.1351
2789.48	11.9199
2792	10.2771
2794.51	14.5664
2797.03	10.1094
2799.54	12.8273
2802.06	12.9815
2804.57	13.9142
2807.09	11.6228
2809.6	11.531
2812.12	14.0048
2814.63	13.7524
2817.15	10.228
2819.66	8.38581
2822.18	10.7376
2824.7	11.4002
2827.21	10.9014
2829.73	14.3607
2832.24	13.5343
2834.76	11.6404
2837.27	14.8681
2839.79	14.5096
2842.3	11.4275
2844.82	10.516
2847.33	14.2214
2849.85	15.9906
2852.36	16.0665
2854.88	14.7821
2857.39	12.3277
2859.91	11.702
2862.42	14.2309
2864.94	13.6463
2867.45	14.8407
2869.97	16.5254
2872.48	11.6844
2875	13.0485
2877.52	12.9131
2880.03	11.5607
2882.55	14.4324
2885.06	13.0256
2887.58	13.7953
2890.09	13.2623
2892.61	13.1181
2895.12	15.3073
2897.64	14.9391
2900.15	15.383
2902.67	11.635
2905.18	14.4898
2907.7	16.3624
2910.21	15.2639
2912.73	14.1551
2915.24	15.4965
2917.76	15.1212
2920.27	17.4746
2922.79	17.1151
2925.3	14.8757
2927.82	14.7539
2930.34	16.0292
2932.85	13.0127
2935.37	16.1278
2937.88	20.1977
2940.4	16.351
2942.91	15.3688
2945.43	14.9755
2947.94	15.3749
2950.46	19.7704
2952.97	16.55
2955.49	19.8367
2958	18.6653
2960.52	20.9182
2963.03	17.7432
2965.55	17.398
2968.06	15.7733
2970.58	16.6932
2973.09	17.0214
2975.61	20.7623
2978.125	16.4198
2980.64	18.0089
2983.16	15.008
2985.67	15.3106
2988.19	15.4393
2990.7	15.0625
2993.22	17.6949
2995.73	15.0402
2998.25	16.9925
3000.76	14.5207
3003.28	15.5302
3005.79	19.2897
3008.31	19.4505
3010.82	16.4676
3013.34	14.8509
3015.85	16.3253
3018.37	15.6342
3020.88	17.5882
3023.4	11.531
3025.91	20.8537
3028.43	15.0538
3030.95	13.7097
3033.46	15.6556
3035.98	14.2158
3038.49	10.8534
3041.01	16.4306
3043.52	14.9768
3046.04	15.7736
3048.55	13.7243
3051.07	17.2042
3053.58	17.9765
3056.1	15.0781
3058.61	16.4999
3061.13	19.6614
3063.64	16.0997
3066.16	17.7029
3068.67	12.8532
3071.19	13.5157
3073.7	17.8661
3076.22	17.1495
3078.73	13.1131
3081.25	13.3665
3083.77	17.2336
3086.28	17.8738
3088.8	14.4336
3091.31	19.281
3093.83	18.898
3096.34	20.3559
3098.86	18.9904
3101.37	18.7399
3103.89	16.6616
3106.4	18.4931
3108.92	14.2139
3111.43	15.817
3113.95	12.4125
3116.46	16.0158
3118.98	15.6697
3121.49	14.5311
3124.01	17.0818
3126.52	17.2462
3129.04	15.9697
3131.55	18.2967
3134.07	17.7198
3136.59	18.4317
3139.1	15.6438
3141.62	15.8236
3144.13	17.3869
3146.65	21.8072
3149.16	16.8987
3151.68	14.2448
3154.19	20.3316
3156.71	18.0443
3159.22	15.8326
3161.74	16.7151
3164.25	13.6884
3166.77	17.181
3169.28	17.1583
3171.8	18.4823
3174.31	19.03
3176.83	17.5561
3179.34	16.545
3181.86	14.7716
3184.375	16.0988
3186.89	18.2097
3189.41	15.8311
3191.92	19.4945
3194.44	19.5837
3196.95	19.1253
3199.47	19.3962
3201.98	16.8772
3204.5	17.1663
3207.01	14.9739
3209.53	12.9133
3212.04	18.3804
3214.56	31.0536
3217.07	210.412
3219.59	42.113
3222.1	20.4911
3224.62	19.7581
3227.13	16.9295
3229.65	19.7896
3232.16	19.9376
3234.68	20.9631
3237.2	18.475
3239.71	21.7264
3242.23	24.7303
3244.74	26.4845
3247.26	21.3084
3249.77	22.4389
3252.29	17.9336
3254.8	20.8156
3257.32	23.3969
3259.83	23.3903
3262.35	19.1758
3264.86	17.7363
3267.38	19.9528
3269.89	21.1322
3272.41	20.2124
3274.92	17.7269
3277.44	15.1793
3279.95	20.6968
3282.47	21.4354
3284.98	18.0137
3287.5	21.0133
3290.02	18.443
3292.53	20.3756
3295.05	20.1102
3297.56	18.7218
3300.08	18.5151
3302.59	21.7839
3305.11	20.392
3307.62	21.2861
3310.14	20.995
3312.65	20.5253
3315.17	19.1073
3317.68	21.4362
3320.2	19.3702
3322.71	19.6909
3325.23	21.8581
3327.74	23.631
3330.26	20.0411
3332.77	18.9476
3335.29	18.3596
3337.8	23.839
3340.32	21.9241
3342.84	21.8148
3345.35	18.1957
3347.87	21.8369
3350.38	18.7159
3352.9	18.2043
3355.41	23.6832
3357.93	21.757
3360.44	22.3782
3362.96	21.1801
3365.47	19.7274
3367.99	20.3044
3370.5	20.0431
3373.02	22.2005
3375.53	22.8188
3378.05	19.8627
3380.56	21.3135
3383.08	21.3966
3385.59	20.1826
3388.11	21.9047
3390.625	20.1873
3393.14	22.673
3395.66	23.2856
3398.17	19.9374
3400.69	21.1969
3403.2	20.4714
3405.72	23.6095
3408.23	21.9603
3410.75	22.5528
3413.26	26.4566
3415.78	24.2138
3418.29	21.6371
3420.81	25.2814
3423.32	24.047
3425.84	24.613
3428.35	20.8808
3430.87	21.3311
3433.38	26.8539
3435.9	23.6508
3438.41	22.3114
3440.93	20.9969
3443.45	20.598
3445.96	18.4537
3448.48	20.0556
3450.99	21.2006
3453.51	23.5842
3456.02	23.0699
3458.54	23.9278
3461.05	23.6095
3463.57	21.2182
3466.08	22.3221
3468.6	25.6451
3471.11	24.4366
3473.63	23.9281
3476.14	18.5383
3478.66	22.9526
3481.17	22.4969
3483.69	20.9939
3486.2	22.4798
3488.72	20.8623
3491.23	19.8406
3493.75	27.9463
3496.27	22.4108
3498.78	23.047
3501.3	21.5019
3503.81	24.6765
3506.33	22.7454
3508.84	19.8036
3511.36	19.3253
3513.87	28.9742
3516.39	26.3304
3518.9	23.8196
3521.42	24.79
3523.93	24.5373
3526.45	25.9919
3528.96	24.5433
3531.48	24.589
3533.99	24.1736
3536.51	23.3601
3539.02	23.1734
3541.54	22.7547
3544.05	23.8396
3546.57	25.9706
3549.09	24.1905
3551.6	25.2788
3554.12	23.3571
3556.63	20.5446
3559.15	24.129
3561.66	21.5001
3564.18	25.118
3566.69	25.3659
3569.21	24.833
3571.72	26.7253
3574.24	24.377
3576.75	25.9946
3579.27	24.6031
3581.78	22.1087
3584.3	20.3253
3586.81	27.6688
3589.33	20.4833
3591.84	23.2007
3594.36	29.7941
3596.875	29.2688
3599.39	24.3049
3601.91	27.2083
3604.42	26.5226
3606.94	27.3141
3609.45	23.5565
3611.97	28.1201
3614.48	28.937
3617	26.7253
3619.51	27.6046
3622.03	27.1691
3624.54	23.4299
3627.06	22.404
3629.57	23.1662
3632.09	23.2041
3634.6	27.448
3637.12	23.2172
3639.63	25.7932
3642.15	25.0648
3644.66	21.5361
3647.18	24.5638
3649.7	24.6744
3652.21	23.4874
3654.73	24.7248
3657.24	33.8505
3659.76	26.9505
3662.27	26.4509
3664.79	21.5296
3667.3	32.1352
3669.82	35.954
3672.33	511.429
3674.85	1929.35
3677.36	795.851
3679.88	45.7935
3682.39	23.7704
3684.91	30.2231
3687.42	30.9665
3689.94	23.9584
3692.45	29.1553
3694.97	26.6405
3697.48	25.3139
3700	28.5978