File: Example Data/Raman/Kara/12-20-10/Si-Graphene/3bulk/SGbulk_2.txt
400	124.753
402.515	130.029
405.03	138.188
407.546	133.1
410.061	144.467
412.576	151.118
415.091	160.701
417.607	173.134
420.122	185.099
422.637	191.603
425.152	193.234
427.668	200.119
430.183	202.908
432.698	197.806
435.213	194.222
437.729	214.274
440.244	214.382
442.759	212.654
445.274	218.326
447.79	231.07
450.305	231.886
452.82	238.735
455.335	246.674
457.851	248.793
460.366	246.824
462.881	264.31
465.396	282.732
467.912	287.239
470.427	298.168
472.942	315.121
475.457	322.238
477.973	355.305
480.488	373.282
483.003	401.9
485.518	430.795
488.034	453.422
490.549	499.646
493.064	529.952
495.579	599.656
498.095	689.036
500.61	797.059
503.125	939.582
505.64	1123.47
508.155	1241.94
510.671	1245.67
513.186	1125.57
515.701	908.693
518.216	661.423
520.732	490.58
523.247	367.179
525.762	287.512
528.277	238.508
530.793	204.025
533.308	176.358
535.823	167.821
538.338	150.4
540.854	134.511
543.369	123.738
545.884	110.868
548.399	100.145
550.915	101.142
553.43	100.817
555.945	97.5262
558.46	92.9572
560.976	89.1781
563.491	87.1952
566.006	88.5216
568.521	87.1506
571.037	83.9157
573.552	81.9714
576.067	81.8058
578.582	83.3968
581.098	82.5477
583.613	84.6174
586.128	88.5094
588.643	89.3318
591.159	85.849
593.674	96.0671
596.189	97.2826
598.704	95.1424
601.219	94.2068
603.735	95.7772
606.25	104.908
608.765	101.452
611.281	100.348
613.796	99.1178
616.311	96.4172
618.826	94.3167
621.341	91.1551
623.857	85.7798
626.372	85.3693
628.887	84.7872
631.402	82.0695
633.918	80.9032
636.433	79.7373
638.948	86.3665
641.463	86.295
643.979	83.3513
646.494	82.6555
649.009	85.0683
651.524	81.2285
654.04	82.7288
656.555	81.3226
659.07	83.3451
661.585	89.192
664.101	90.5996
666.616	80.566
669.131	80.5077
671.646	81.749
674.162	78.8743
676.677	75.1613
679.192	77.9669
681.707	79.3069
684.223	72.8514
686.738	70.3824
689.253	72.6437
691.768	74.9756
694.284	73.0534
696.799	73.389
699.314	69.1794
701.829	74.32
704.344	76.0288
706.86	71.0219
709.375	64.8508
711.89	67.9977
714.406	67.8295
716.921	73.4875
719.436	71.1852
721.951	66.4728
724.466	67.5622
726.982	75.4248
729.497	87.0516
732.012	74.998
734.527	71.2223
737.043	74.8142
739.558	79.1287
742.073	79.0166
744.588	71.9278
747.104	75.3012
749.619	83.0783
752.134	85.2207
754.649	81.8415
757.165	79.6797
759.68	85.6138
762.195	92.0403
764.71	87.9666
767.226	88.5986
769.741	88.7084
772.256	84.5052
774.771	81.2445
777.287	89.7143
779.802	86.2067
782.317	91.3988
784.832	86.6133
787.348	79.2233
789.863	82.9034
792.378	90.072
794.893	87.1866
797.409	88.5645
799.924	92.1217
802.439	96.2817
804.954	97.2437
807.469	93.0664
809.985	94.7676
812.5	85.4577
815.015	88.6667
817.531	91.3213
820.046	93.919
822.561	95.6029
825.076	90.3964
827.591	101.817
830.107	99.743
832.622	98.225
835.137	100.59
837.652	96.0247
840.168	85.7545
842.683	99.227
845.198	105.542
847.713	104.976
850.229	99.5215
852.744	98.0108
855.259	99.0774
857.774	97.8931
860.29	99.254
862.805	100.451
865.32	106.446
867.835	106.826
870.351	106.907
872.866	106.103
875.381	99.6155
877.896	90.8168
880.412	107.792
882.927	106.272
885.442	108.981
887.957	114.552
890.473	115.124
892.988	111.741
895.503	123.944
898.018	113.12
900.534	121.458
903.049	128.161
905.564	130.495
908.079	130.467
910.594	130.934
913.11	134.075
915.625	135.28
918.14	136.175
920.656	136.909
923.171	138.694
925.686	135.236
928.201	128.439
930.716	134.695
933.232	125.381
935.747	125.771
938.262	136.352
940.777	132.724
943.293	128.95
945.808	133.287
948.323	128.791
950.838	123.261
953.354	114.304
955.869	109.2
958.384	104.875
960.899	102.98
963.415	100.865
965.93	95.219
968.445	92.3348
970.96	87.4848
973.476	94.4905
975.991	90.1304
978.506	83.0013
981.021	81.5073
983.537	82.2604
986.052	74.5454
988.567	69.686
991.082	73.8662
993.598	65.7962
996.113	61.8095
998.628	58.4569
1001.14	56.7777
1003.66	60.122
1006.17	58.808
1008.69	56.3728
1011.2	53.45
1013.72	52.3922
1016.23	53.0811
1018.75	56.1616
1021.27	56.6471
1023.78	51.2842
1026.3	57.4042
1028.81	47.9833
1031.33	54.9714
1033.84	55.1063
1036.36	53.7891
1038.87	50.6357
1041.39	46.803
1043.9	49.0504
1046.42	52.6908
1048.93	48.3194
1051.45	47.0294
1053.96	49.1234
1056.48	48.5266
1058.99	50.1234
1061.51	52.543
1064.02	44.4307
1066.54	38.9966
1069.05	46.5322
1071.57	48.0209
1074.09	44.2818
1076.6	44.2141
1079.12	43.312
1081.63	40.0269
1084.15	41.7632
1086.66	42.5342
1089.18	41.129
1091.69	37.8065
1094.21	40.1154
1096.72	41.3773
1099.24	40.9383
1101.75	38.8313
1104.27	35.5097
1106.78	38.2082
1109.3	45.2547
1111.81	41.7481
1114.33	35.6823
1116.84	35.5193
1119.36	37.5701
1121.875	36.801
1124.39	34.7859
1126.91	37.1489
1129.42	36.8084
1131.94	37.5148
1134.45	37.2893
1136.97	36.672
1139.48	38.9007
1142	37.8348
1144.51	33.8496
1147.03	35.1471
1149.54	38.3954
1152.06	40.5197
1154.57	35.9998
1157.09	37.8532
1159.6	37.0565
1162.12	34.4736
1164.63	33.6322
1167.15	34.4308
1169.66	34.2708
1172.18	35.6564
1174.7	36.5437
1177.21	34.771
1179.73	36.4138
1182.24	35.3779
1184.76	36.877
1187.27	37.446
1189.79	34.3287
1192.3	35.2652
1194.82	35.5371
1197.33	34.4695
1199.85	36.3982
1202.36	36.2217
1204.88	36.2453
1207.39	38.7196
1209.91	41
1212.42	38.0739
1214.94	32.3374
1217.45	39.3295
1219.97	38.437
1222.48	39.5973
1225	32.9164
1227.52	36.7545
1230.03	41.6963
1232.55	44.8828
1235.06	43.6695
1237.58	36.4909
1240.09	39.2652
1242.61	41.4042
1245.12	42.1199
1247.64	40.1326
1250.15	41.9485
1252.67	44.1732
1255.18	43.7458
1257.7	43.2326
1260.21	44.2699
1262.73	44.1222
1265.24	47.8625
1267.76	51.2726
1270.27	47.5978
1272.79	45.4758
1275.3	48.4333
1277.82	44.7247
1280.34	41.1318
1282.85	45.2784
1285.37	50.4333
1287.88	47.828
1290.4	45.7781
1292.91	45.4181
1295.43	49.6776
1297.94	54.7857
1300.46	55.5431
1302.97	57.3201
1305.49	57.8053
1308	57.6288
1310.52	58.3787
1313.03	54.7965
1315.55	56.827
1318.06	57.1883
1320.58	53.7056
1323.09	58.7961
1325.61	58.7662
1328.125	62.6781
1330.64	67.5645
1333.16	66.6829
1335.67	65.7213
1338.19	71.261
1340.7	64.7434
1343.22	54.4378
1345.73	56.9747
1348.25	61.1641
1350.76	66.5379
1353.28	62.325
1355.79	68.8223
1358.31	72.8321
1360.82	65.998
1363.34	62.8536
1365.85	64.0205
1368.37	68.3614
1370.88	63.6363
1373.4	61.6157
1375.91	57.02
1378.43	61.0439
1380.95	60.731
1383.46	62.5335
1385.98	61.506
1388.49	53.1017
1391.01	49.2432
1393.52	57.1076
1396.04	56.2324
1398.55	60.3789
1401.07	56.9141
1403.58	60.9131
1406.1	55.7133
1408.61	55.0412
1411.13	53.6418
1413.64	53.6356
1416.16	54.6895
1418.67	50.9444
1421.19	47.2717
1423.7	54.5699
1426.22	50.444
1428.73	47.6999
1431.25	45.659
1433.77	50.5047
1436.28	53.6554
1438.8	49.7412
1441.31	48.7471
1443.83	48.5346
1446.34	49.6355
1448.86	52.9386
1451.37	47.8448
1453.89	44.8662
1456.4	53.18
1458.92	52.8128
1461.43	56.5243
1463.95	51.5204
1466.46	52.8105
1468.98	53.4132
1471.49	52.1845
1474.01	53.7233
1476.52	51.7516
1479.04	45.59
1481.55	46.8919
1484.07	48.5671
1486.59	48.4078
1489.1	38.2882
1491.62	46.2175
1494.13	51.2435
1496.65	54.3312
1499.16	52.2006
1501.68	51.2492
1504.19	53.2573
1506.71	52.8253
1509.22	53.4395
1511.74	56.0163
1514.25	53.0259
1516.77	54.5269
1519.28	49.5168
1521.8	52.6
1524.31	52.6
1526.83	48.075
1529.34	51.5407
1531.86	56.0684
1534.375	55.841
1536.89	52.0014
1539.41	50.1025
1541.92	54.8043
1544.44	60.2403
1546.95	58.2753
1549.47	55.5191
1551.98	57.3419
1554.5	57.1792
1557.01	59.4232
1559.53	65.3747
1562.04	68.391
1564.56	64.9908
1567.07	63.7103
1569.59	69.627
1572.1	69.0472
1574.62	67.6429
1577.13	67.361
1579.65	67.8125
1582.16	72.7788
1584.68	72.9959
1587.2	65.7234
1589.71	70.5685
1592.23	60.7092
1594.74	58.8419
1597.26	68.4782
1599.77	65.839
1602.29	63.6351
1604.8	59.9007
1607.32	58.4695
1609.83	55.6968
1612.35	57.0442
1614.86	57.7947
1617.38	57.0214
1619.89	56.875
1622.41	50.7308
1624.92	50.2894
1627.44	51.4288
1629.95	51.8608
1632.47	54.7483
1634.98	52.3092
1637.5	51.3031
1640.02	47.5231
1642.53	48.3502
1645.05	47.7998
1647.56	48.5777
1650.08	50.5073
1652.59	47.9786
1655.11	45.951
1657.62	43.2525
1660.14	39.0009
1662.65	41.2787
1665.17	43.0753
1667.68	46.4102
1670.2	51.4741
1672.71	49.4455
1675.23	52.7186
1677.74	45.9263
1680.26	48.6544
1682.77	47.3154
1685.29	44.6404
1687.8	41.0758
1690.32	43.1088
1692.84	46.2143
1695.35	45.2749
1697.87	44.926
1700.38	43.9861
1702.9	42.1654
1705.41	42.5095
1707.93	42.7891
1710.44	44.8658
1712.96	42.5616
1715.47	42.707
1717.99	44.7049
1720.5	45.7349
1723.02	44.0278
1725.53	45.1199
1728.05	45.7297
1730.56	45.8
1733.08	45.8
1735.59	45.2143
1738.11	45.2731
1740.625	46.4131
1743.14	43.9619
1745.66	44.156
1748.17	48.927
1750.69	52.6782
1753.2	51.7657
1755.72	45.7835
1758.23	42.8306
1760.75	47.851
1763.26	46.2903
1765.78	49.3126
1768.29	50.7792
1770.81	49.3883
1773.32	54.9341
1775.84	51.6874
1778.35	43.6063
1780.87	50.0802
1783.38	46.1233
1785.9	47.5905
1788.41	49.1038
1790.93	51.1036
1793.45	50.1999
1795.96	51.5213
1798.48	47.2185
1800.99	44.7107
1803.51	46.8962
1806.02	48.6211
1808.54	48.3556
1811.05	49.1426
1813.57	50.3986
1816.08	45.9233
1818.6	51.3194
1821.11	53.6686
1823.63	45.1978
1826.14	52.585
1828.66	51.2
1831.17	51.622
1833.69	58.3403
1836.2	45.2519
1838.72	53.8689
1841.23	54.2187
1843.75	54.2
1846.27	54.533
1848.78	54.1222
1851.3	51.5682
1853.81	51.8138
1856.33	57.4348
1858.84	54.9622
1861.36	53.8856
1863.87	50.8254
1866.39	47.4501
1868.9	48.9598
1871.42	53.2106
1873.93	56.5181
1876.45	55.238
1878.96	51.434
1881.48	51.3217
1883.99	54.4188
1886.51	55.052
1889.02	51.66
1891.54	51.7892
1894.05	47.7545
1896.57	49.9917
1899.09	57.9622
1901.6	55.9695
1904.12	52.2581
1906.63	53.37
1909.15	61.5079
1911.66	55.2936
1914.18	56.1567
1916.69	57.1289
1919.21	51.4351
1921.72	46.6072
1924.24	53.4451
1926.75	51.8505
1929.27	61.3501
1931.78	57.1021
1934.3	56.7773
1936.81	59.6867
1939.33	56.1888
1941.84	58.0532
1944.36	61.0237
1946.875	57.6635
1949.39	55.2
1951.91	59.8501
1954.42	57.6372
1956.94	54.7781
1959.45	56.7991
1961.97	56.6199
1964.48	57.4682
1967	59.8619
1969.51	61.6548
1972.03	58.7985
1974.54	54.0472
1977.06	57.0304
1979.57	56.6469
1982.09	54.6775
1984.6	59.5717
1987.12	58.348
1989.63	55.7769
1992.15	60.3393
1994.66	55.82
1997.18	57.8598
1999.7	60.0777
2002.21	60.4315
2004.73	55.8382
2007.24	59.922
2009.76	60.6317
2012.27	59.5919
2014.79	63.4109
2017.3	60.7709
2019.82	57.1577
2022.33	60.8479
2024.85	62.4622
2027.36	51.2323
2029.88	61.4251
2032.39	60.0487
2034.91	53.6893
2037.42	56.9815
2039.94	60.5469
2042.45	60.6166
2044.97	64.22
2047.48	62.9924
2050	64.2105
2052.52	66.4887
2055.03	61.9882
2057.55	64.4246
2060.06	60.6413
2062.58	65.7625
2065.09	68.473
2067.61	62.4914
2070.12	61.16
2072.64	64.682
2075.15	61.6865
2077.67	67.1049
2080.18	75.442
2082.7	68.136
2085.21	65.0496
2087.73	71.5589
2090.24	65.4475
2092.76	56.7581
2095.27	59.7936
2097.79	61.8084
2100.3	68.5166
2102.82	67.7801
2105.34	73.8646
2107.85	72.771
2110.37	68.9542
2112.88	66.5597
2115.4	65.1362
2117.91	68.4135
2120.43	69.7297
2122.94	64.1127
2125.46	66.9231
2127.97	70.5134
2130.49	73.0677
2133	73.6233
2135.52	69.9929
2138.03	70.3889
2140.55	70.7948
2143.06	64.9066
2145.58	66.0584
2148.09	69.501
2150.61	70.1834
2153.125	69.5412
2155.64	69.5648
2158.16	72.6025
2160.67	71.5254
2163.19	69.554
2165.7	76.0159
2168.22	75.3442
2170.73	73.4467
2173.25	75.3837
2175.76	78.2451
2178.28	76.9104
2180.79	78.0274
2183.31	76.8755
2185.82	78.9732
2188.34	76.0686
2190.85	78.0187
2193.37	74.6658
2195.88	77.3215
2198.4	78.8811
2200.91	77.3827
2203.43	74.175
2205.95	75.4878
2208.46	74.9051
2210.98	79.15
2213.49	72.31
2216.01	78.5009
2218.52	80.6086
2221.04	75.9938
2223.55	74.4292
2226.07	79.2068
2228.58	80.0385
2231.1	75.5705
2233.61	74.81
2236.13	73.579
2238.64	71.2015
2241.16	78.7943
2243.67	87.7868
2246.19	84.7102
2248.7	79.0331
2251.22	80.595
2253.73	80.3246
2256.25	82.6498
2258.77	84.5456
2261.28	82.9516
2263.8	85.9613
2266.31	87.7139
2268.83	80.6814
2271.34	87.3731
2273.86	80.7748
2276.37	86.4533
2278.89	86.1008
2281.4	83.2067
2283.92	91.8574
2286.43	91.6153
2288.95	81.9461
2291.46	83.6006
2293.98	87.2594
2296.49	89.9729
2299.01	87.0561
2301.52	89.6904
2304.04	93.2019
2306.55	90.4611
2309.07	84.8364
2311.59	83.58
2314.1	87.1257
2316.62	90.743
2319.13	93.1444
2321.65	94.5214
2324.16	95.384
2326.68	90.5917
2329.19	92.9532
2331.71	99.3257
2334.22	101.608
2336.74	96.058
2339.25	93.8735
2341.77	95.4094
2344.28	95.0535
2346.8	96.6511
2349.31	94.7259
2351.83	92.0958
2354.34	91.4473
2356.86	96.6225
2359.375	100.728
2361.89	95.5102
2364.41	99.6115
2366.92	102.001
2369.44	96.8865
2371.95	98.4098
2374.47	98.8859
2376.98	99.6615
2379.5	95.4449
2382.01	91.6109
2384.53	94.9234
2387.04	98.0293
2389.56	106.069
2392.07	106.321
2394.59	101.97
2397.1	101.294
2399.62	101.313
2402.13	103.87
2404.65	104.911
2407.16	104.095
2409.68	104.924
2412.2	108.646
2414.71	111.727
2417.23	111.042
2419.74	104.433
2422.26	110.637
2424.77	109.353
2427.29	113.843
2429.8	117.952
2432.32	114.25
2434.83	120.382
2437.35	122.904
2439.86	135.282
2442.38	129.402
2444.89	131.24
2447.41	127.199
2449.92	130.535
2452.44	130.067
2454.95	126.747
2457.47	117.998
2459.98	116.829
2462.5	118.619
2465.02	121.823
2467.53	122.636
2470.05	116.987
2472.56	118.575
2475.08	120.254
2477.59	120.177
2480.11	122.631
2482.62	122.653
2485.14	118.801
2487.65	114.053
2490.17	117.223
2492.68	124.985
2495.2	123.182
2497.71	121.33
2500.23	119.692
2502.74	118.884
2505.26	121.089
2507.77	119.767
2510.29	121.713
2512.8	122.686
2515.32	124.143
2517.84	126.273
2520.35	127.72
2522.87	122.985
2525.38	120.236
2527.9	127.129
2530.41	128.678
2532.93	126.494
2535.44	127.479
2537.96	127.546
2540.47	122.181
2542.99	123.864
2545.5	127.421
2548.02	125.764
2550.53	122.674
2553.05	127.86
2555.56	127.131
2558.08	127.734
2560.59	127.603
2563.11	131.194
2565.625	129.518
2568.14	122.873
2570.66	130.592
2573.17	132.734
2575.69	129.807
2578.2	126.859
2580.72	126.898
2583.23	129.783
2585.75	124.486
2588.26	130.909
2590.78	131.324
2593.29	126.765
2595.81	131.452
2598.32	133.721
2600.84	130.479
2603.35	133.113
2605.87	135.476
2608.38	134.222
2610.9	130.597
2613.41	132.247
2615.93	135.872
2618.45	133.416
2620.96	135.696
2623.48	130.357
2625.99	138.538
2628.51	134.78
2631.02	136.577
2633.54	141.387
2636.05	135.773
2638.57	134.042
2641.08	141.894
2643.6	144.629
2646.11	139.758
2648.63	139.808
2651.14	136.891
2653.66	139.767
2656.17	142.963
2658.69	148.609
2661.2	144.753
2663.72	143.024
2666.23	143.554
2668.75	146.229
2671.27	146.167
2673.78	144.555
2676.3	147.886
2678.81	144.701
2681.33	148.068
2683.84	147.373
2686.36	146.54
2688.87	151.951
2691.39	144.637
2693.9	147.772
2696.42	146.483
2698.93	154.228
2701.45	149.057
2703.96	154.652
2706.48	153.962
2708.99	152.277
2711.51	149.182
2714.02	152.28
2716.54	152.171
2719.05	150.329
2721.57	153.738
2724.09	151.272
2726.6	159.245
2729.12	153.579
2731.63	156.3
2734.15	153.501
2736.66	163.837
2739.18	159.248
2741.69	157.209
2744.21	154.554
2746.72	162.157
2749.24	165.603
2751.75	168.215
2754.27	164.948
2756.78	162.471
2759.3	160.36
2761.81	166.019
2764.33	159.607
2766.84	162.023
2769.36	161.824
2771.875	168.173
2774.39	165.782
2776.91	164.701
2779.42	166.753
2781.94	165.588
2784.45	164.371
2786.97	167.134
2789.48	167.243
2792	159.756
2794.51	164.811
2797.03	165.334
2799.54	162.847
2802.06	174.092
2804.57	167.798
2807.09	171.48
2809.6	172.166
2812.12	171.758
2814.63	169.463
2817.15	170.859
2819.66	169.825
2822.18	170.338
2824.7	179.356
2827.21	176.001
2829.73	175.91
2832.24	174.439
2834.76	176.16
2837.27	171.893
2839.79	173.695
2842.3	178.866
2844.82	176.731
2847.33	177.131
2849.85	185.887
2852.36	188.694
2854.88	183.211
2857.39	180.466
2859.91	182.641
2862.42	182.267
2864.94	186.555
2867.45	183.152
2869.97	185.927
2872.48	181.687
2875	183.512
2877.52	187.209
2880.03	195.862
2882.55	191.586
2885.06	192.74
2887.58	181.486
2890.09	187.142
2892.61	196.25
2895.12	189.634
2897.64	191.509
2900.15	196.47
2902.67	200.087
2905.18	188.255
2907.7	198.838
2910.21	198.828
2912.73	198.28
2915.24	197.856
2917.76	198.268
2920.27	205.127
2922.79	200.295
2925.3	198.732
2927.82	202.909
2930.34	208.921
2932.85	206.893
2935.37	207.92
2937.88	203.295
2940.4	209.344
2942.91	208.21
2945.43	205.602
2947.94	207.562
2950.46	203.94
2952.97	210.053
2955.49	209.678
2958	213.424
2960.52	213.221
2963.03	209.102
2965.55	207.401
2968.06	201.498
2970.58	208.653
2973.09	210.7
2975.61	217.125
2978.125	211.567
2980.64	209.307
2983.16	208.772
2985.67	214.925
2988.19	219.398
2990.7	214.161
2993.22	203.744
2995.73	208.766
2998.25	214.263
3000.76	224.58
3003.28	210.112
3005.79	216.546
3008.31	215.859
3010.82	220.061
3013.34	228.93
3015.85	216.229
3018.37	224.802
3020.88	219.31
3023.4	226.276
3025.91	225.998
3028.43	218.85
3030.95	225.708
3033.46	223.876
3035.98	226.988
3038.49	225.926
3041.01	226.918
3043.52	225.296
3046.04	233.795
3048.55	226.603
3051.07	236.817
3053.58	239.707
3056.1	237.799
3058.61	233.479
3061.13	233.091
3063.64	235.627
3066.16	243.599
3068.67	231.665
3071.19	235.911
3073.7	238.701
3076.22	230.459
3078.73	231.151
3081.25	234.142
3083.77	236.433
3086.28	236.348
3088.8	234.538
3091.31	243.73
3093.83	241.188
3096.34	245.464
3098.86	246.48
3101.37	244.023
3103.89	239.428
3106.4	245.854
3108.92	248.555
3111.43	238.685
3113.95	245.81
3116.46	246.679
3118.98	241.514
3121.49	244.467
3124.01	244.591
3126.52	249.676
3129.04	251.75
3131.55	244.873
3134.07	253.175
3136.59	257.096
3139.1	253.941
3141.62	251.148
3144.13	258.407
3146.65	254.253
3149.16	252.1
3151.68	254.171
3154.19	259.716
3156.71	263.138
3159.22	250.429
3161.74	277.341
3164.25	262.965
3166.77	259.119
3169.28	264.678
3171.8	258.307
3174.31	261.427
3176.83	271.126
3179.34	268.282
3181.86	271.726
3184.375	272.534
3186.89	270.995
3189.41	272.68
3191.92	272.449
3194.44	271.178
3196.95	269.999
3199.47	281.318
3201.98	277.376
3204.5	278.765
3207.01	283.188
3209.53	289.048
3212.04	283.694
3214.56	276.121
3217.07	283.277
3219.59	284.841
3222.1	288.678
3224.62	288.073
3227.13	287.401
3229.65	299.49
3232.16	292.36
3234.68	291.915
3237.2	297.431
3239.71	289.18
3242.23	290.6
3244.74	297.787
3247.26	300.76
3249.77	304.572
3252.29	298.72
3254.8	292.046
3257.32	292.163
3259.83	298.829
3262.35	306.671
3264.86	305.817
3267.38	304.622
3269.89	301.677
3272.41	305.633
3274.92	309.078
3277.44	301.027
3279.95	308.259
3282.47	302.625
3284.98	297.207
3287.5	316.745
3290.02	311.92
3292.53	313.165
3295.05	310.794
3297.56	327.348
3300.08	317.921
3302.59	307.189
3305.11	312.912
3307.62	316.652
3310.14	310.34
3312.65	310.703
3315.17	316.084
3317.68	321.473
3320.2	326.597
3322.71	325.436
3325.23	322.936
3327.74	332.507
3330.26	326.989
3332.77	324.623
3335.29	327.183
3337.8	325.748
3340.32	325.827
3342.84	330.73
3345.35	332.61
3347.87	325.366
3350.38	330.576
3352.9	339.144
3355.41	333.23
3357.93	330.707
3360.44	339.843
3362.96	333.633
3365.47	333.69
3367.99	338.491
3370.5	334.677
3373.02	331.823
3375.53	336.351
3378.05	346.608
3380.56	349.79
3383.08	350.599
3385.59	349.607
3388.11	347.211
3390.625	353.977
3393.14	343.361
3395.66	345.908
3398.17	343.552
3400.69	347.602
3403.2	348.102
3405.72	346.179
3408.23	350.878
3410.75	357.382
3413.26	355.286
3415.78	358.105
3418.29	373.544
3420.81	350.186
3423.32	370.168
3425.84	368.462
3428.35	363.107
3430.87	369.565
3433.38	358.21
3435.9	372.792
3438.41	368.572
3440.93	365.429
3443.45	368.397
3445.96	374.897
3448.48	385.868
3450.99	380.531
3453.51	372.134
3456.02	380.38
3458.54	381.594
3461.05	369.124
3463.57	374.643
3466.08	376.855
3468.6	378.562
3471.11	384.211
3473.63	395.259
3476.14	384.069
3478.66	392.124
3481.17	389.832
3483.69	386.659
3486.2	383.448
3488.72	391.676
3491.23	396.846
3493.75	391.286
3496.27	397.255
3498.78	384.795
3501.3	390.314
3503.81	392.474
3506.33	400.348
3508.84	399.579
3511.36	401.967
3513.87	394.755
3516.39	399.47
3518.9	401.231
3521.42	398.784
3523.93	400.181
3526.45	401.345
3528.96	404.634
3531.48	414.414
3533.99	417.693
3536.51	409.249
3539.02	408.036
3541.54	415.27
3544.05	416.08
3546.57	419.886
3549.09	424.202
3551.6	426.133
3554.12	428.47
3556.63	422.721
3559.15	416.433
3561.66	421.38
3564.18	434.164
3566.69	429.418
3569.21	432.458
3571.72	441.456
3574.24	430.272
3576.75	424.362
3579.27	434.357
3581.78	436.766
3584.3	434.025
3586.81	448.318
3589.33	441.695
3591.84	452.115
3594.36	443.795
3596.875	435.243
3599.39	460.6
3601.91	453.491
3604.42	456.19
3606.94	457.443
3609.45	440.18
3611.97	453.803
3614.48	457.367
3617	463.564
3619.51	458.578
3622.03	463.494
3624.54	456.102
3627.06	473.692
3629.57	469.233
3632.09	468.214
3634.6	449.764
3637.12	464.669
3639.63	472.567
3642.15	465.337
3644.66	468.629
3647.18	462.719
3649.7	469.033
3652.21	459.872
3654.73	460.626
3657.24	451.203
3659.76	479.378
3662.27	474.683
3664.79	477.329
3667.3	474.827
3669.82	493.249
3672.33	482.279
3674.85	469.656
3677.36	467.639
3679.88	484.918
3682.39	496.941
3684.91	488.983
3687.42	489.202
3689.94	499.207
3692.45	483.979
3694.97	490.257
3697.48	493.048
3700	493.618