File: Example Data/Raman/CNT - TIM/Raytheon/Al foil/2010/03-29-10/Al - 03-29-10 - B4_4.txt
100	70.9897
102.143	67.0748
104.287	57.6146
106.43	77.945
108.574	95.6604
110.717	67.4835
112.86	62.5425
115.004	73.8884
117.147	81.8542
119.29	75.8057
121.434	65.7735
123.577	72.5566
125.721	66.0151
127.864	65.9542
130.007	69.8585
132.151	75.7993
134.294	59.0297
136.438	59.6365
138.581	54.5449
140.724	71.7548
142.868	59.2749
145.011	58.8462
147.154	64.6101
149.298	57.5692
151.441	58.6844
153.585	59.815
155.728	62.7093
157.871	63.2409
160.015	58.0714
162.158	54.6589
164.302	62.5003
166.445	51.2492
168.588	53.6222
170.732	58.4944
172.875	55.87
175.018	48.433
177.162	51.3734
179.305	56.5253
181.449	49.6287
183.592	54.0837
185.735	48.4582
187.879	53.9392
190.022	52.2871
192.166	49.8366
194.309	48.8187
196.452	50.1493
198.596	57.9816
200.739	52.3197
202.882	51.5349
205.026	52.7111
207.169	52.982
209.313	52.5271
211.456	48.9496
213.599	53.6606
215.743	56.6653
217.886	54.4488
220.03	49.1635
222.173	51.4243
224.316	54.2432
226.46	47.1609
228.603	53.0587
230.746	56.013
232.89	45.7582
235.033	48.075
237.177	51.1586
239.32	49.2062
241.463	55.0639
243.607	49.6667
245.75	43.3099
247.894	43.8028
250.037	46.6678
252.18	46.8142
254.324	44.904
256.467	49.7741
258.611	46.1145
260.754	47.546
262.897	50.787
265.041	57.5861
267.184	54.9915
269.327	45.3463
271.471	53.7168
273.614	52.561
275.758	51.93
277.901	50.4518
280.044	40.956
282.188	48.1741
284.331	44.6991
286.474	48.6386
288.618	44.2987
290.761	51.0467
292.905	42.415
295.048	50.6891
297.191	48.2841
299.335	46.1208
301.478	48.5088
303.622	49.2301
305.765	55.6395
307.908	44.1576
310.052	46.5925
312.195	44.6684
314.339	46.8216
316.482	45.8124
318.625	44.0358
320.769	54.5336
322.912	49.5341
325.055	53.2624
327.199	46.1899
329.342	53.9059
331.486	43.9676
333.629	44.3012
335.772	46.8207
337.916	46.9421
340.059	42.4542
342.203	42.9446
344.346	45.9277
346.489	48.2718
348.633	43.9304
350.776	48.0375
352.919	46.4409
355.063	45.5858
357.206	43.8974
359.35	47.8728
361.493	36.9821
363.636	43.3144
365.78	48.4928
367.923	48.6539
370.067	41.3498
372.21	41.8205
374.353	43.6667
376.497	48.303
378.64	44.0034
380.783	43.8255
382.927	45.9883
385.07	39.0783
387.214	39.0842
389.357	38.1247
391.5	43.2696
393.644	39.1579
395.787	45.8873
397.931	46.2159
400.074	43.9097
402.217	40.9815
404.361	40.7396
406.504	41.5494
408.647	51.1556
410.791	43.1725
412.934	46.576
415.078	44.4891
417.221	40.0007
419.364	39.4759
421.508	42.8827
423.651	46.5914
425.795	40.3333
427.938	39.0979
430.081	39.4163
432.225	42.955
434.368	41.1052
436.511	41.6667
438.655	41.951
440.798	44.3932
442.942	39.072
445.085	43.1095
447.228	39.6937
449.372	43.6914
451.515	41.5949
453.659	40.6939
455.802	40.4192
457.945	37.176
460.089	35.5815
462.232	35.8711
464.375	32.7003
466.519	41.4133
468.662	39.8059
470.806	36.0901
472.949	41.6752
475.092	40.997
477.236	41.6778
479.379	38.4564
481.523	37.5334
483.666	39.4225
485.809	38.4479
487.953	35.1972
490.096	42.8397
492.239	39.0726
494.383	42.6514
496.526	39.9401
498.67	35.3333
500.813	37.7211
502.956	39.3081
505.1	36.4825
507.243	40.6956
509.387	37.1936
511.53	38.9848
513.673	35.074
515.817	36.3456
517.96	35.6332
520.103	36.5438
522.247	35.6667
524.39	35.1673
526.534	38.9626
528.677	36.036
530.82	33.0821
532.964	35.4115
535.107	38.6619
537.251	37.9915
539.394	39.3333
541.537	36.8716
543.681	34.0468
545.824	41.6124
547.967	32.0653
550.111	36.7031
552.254	38.0182
554.398	40.4055
556.541	32.2402
558.684	38.086
560.828	31.8383
562.971	40.9179
565.115	40.5496
567.258	39.3776
569.401	36.4673
571.545	35.7188
573.688	35.9607
575.831	35.1252
577.975	33.172
580.118	41.2949
582.262	38.6509
584.405	43
586.548	39.3767
588.692	35
590.835	37.292
592.979	43.8393
595.122	38.0386
597.265	35.7502
599.409	37.7245
601.552	37.3204
603.695	40.4339
605.839	42.9445
607.982	32.6093
610.126	37.4127
612.269	38.7208
614.412	38.3796
616.556	34.7359
618.699	42.5122
620.843	46.9748
622.986	39.5735
625.129	38.3736
627.273	38.7822
629.416	38.4957
631.56	36.9534
633.703	38.538
635.846	40.2277
637.99	38.0748
640.133	44.5293
642.276	45.3747
644.42	40.9305
646.563	41.8381
648.707	33.8839
650.85	43.8165
652.993	43.0091
655.137	44.8858
657.28	36.0466
659.424	42.8459
661.567	40.4656
663.71	42.0585
665.854	46.6553
667.997	44.3661
670.14	36.1009
672.284	45.2167
674.427	40.7966
676.571	43.2151
678.714	45.3099
680.857	40.2511
683.001	41.7766
685.144	43.5243
687.288	41.8118
689.431	43.933
691.574	42.4531
693.718	44.2295
695.861	45.4905
698.004	38.0331
700.148	46.0525
702.291	44.6568
704.435	46.5212
706.578	43.4913
708.721	49.2302
710.865	45.785
713.008	42.3272
715.151	52.2845
717.295	48.0889
719.438	41.7719
721.582	43.3991
723.725	44.688
725.868	49.4546
728.012	43.6813
730.155	52.3346
732.299	50.7353
734.442	54.2603
736.585	47.3533
738.729	45.1647
740.872	45.7627
743.016	52.2716
745.159	48.668
747.302	51.2575
749.446	47.0555
751.589	54.8956
753.732	51.5125
755.876	50.7841
758.019	49.6266
760.163	47.9417
762.306	45.7906
764.449	52.1519
766.593	50.498
768.736	49.0802
770.88	45.5725
773.023	54.2281
775.166	53.071
777.31	58.4545
779.453	51.5143
781.596	52.0399
783.74	54.8081
785.883	54.0496
788.027	53.2964
790.17	55.6667
792.313	55.0385
794.457	62.0462
796.6	57.3979
798.744	50.9166
800.887	53.8402
803.03	50.5529
805.174	54.2865
807.317	55.8949
809.46	57.2499
811.604	49.2973
813.747	57.6116
815.891	54.4967
818.034	53.1885
820.177	56.3289
822.321	57.7851
824.464	54.7628
826.608	52.9906
828.751	58.382
830.894	57.6266
833.038	59.1004
835.181	54.653
837.324	55.8703
839.468	54.7829
841.611	51.8764
843.755	61.6225
845.898	54.723
848.041	61.4468
850.185	56.1948
852.328	54.8336
854.472	55.3871
856.615	59.7213
858.758	57.5506
860.902	53.4449
863.045	62.6689
865.188	54.3034
867.332	56.2618
869.475	52.8474
871.619	54.578
873.762	51.2016
875.905	51.419
878.049	53.2835
880.192	50.1814
882.336	50.9318
884.479	46.214
886.622	52.4023
888.766	49.9479
890.909	49.6115
893.052	44.3007
895.196	46.456
897.339	47.0441
899.483	50.3106
901.626	46.7236
903.769	48.656
905.913	48.7631
908.056	48.0831
910.2	46.2799
912.343	44.1814
914.486	44.7325
916.63	45.6072
918.773	43.5375
920.917	41.4146
923.06	41.6804
925.203	41.9965
927.347	42.3857
929.49	43.0438
931.633	42.2012
933.777	41.5688
935.92	49.1067
938.064	45.4613
940.207	44.3137
942.35	41.3591
944.494	42.966
946.637	42.2218
948.781	46.0546
950.924	46.4157
953.067	36.4551
955.211	39.1333
957.354	41.9092
959.497	45.0039
961.641	36.6821
963.784	43.428
965.928	48.1663
968.071	47.3002
970.214	41.2782
972.358	43.6014
974.501	37.6986
976.644	43.822
978.788	40.2321
980.931	49.9965
983.075	42.3654
985.218	49.8207
987.361	48.4022
989.505	44.8538
991.648	43.0659
993.792	47.5523
995.935	51.278
998.078	48.7414
1000.22	46.323
1002.37	46.5756
1004.51	47.7983
1006.65	44.5123
1008.8	49.9022
1010.94	51.6438
1013.08	53.7699
1015.23	48.1265
1017.37	58.7766
1019.51	50.506
1021.66	51.7272
1023.8	51.4738
1025.94	49.7945
1028.09	49.1361
1030.23	52.697
1032.37	55.224
1034.52	62.3707
1036.66	55.1843
1038.8	56.5227
1040.95	50.9184
1043.09	59.7991
1045.23	60.7039
1047.38	58.1219
1049.52	60.8171
1051.66	60.1467
1053.81	59.903
1055.95	56.2948
1058.09	56.3339
1060.24	55.5272
1062.38	60.2939
1064.52	60.2358
1066.67	58.1178
1068.81	58.5002
1070.95	61.3984
1073.1	53.4003
1075.24	56.6341
1077.38	53.0291
1079.53	66.2353
1081.67	67.6338
1083.81	61.5088
1085.96	65.4737
1088.1	60.5014
1090.24	59.0763
1092.39	64.1427
1094.53	68.8404
1096.67	65.0284
1098.82	67.3399
1100.96	63.1298
1103.1	73.812
1105.25	62.084
1107.39	71.2849
1109.53	64.1572
1111.68	71.7149
1113.82	71.0063
1115.96	66.2137
1118.11	67.1656
1120.25	70.4914
1122.39	73.3829
1124.54	67.3903
1126.68	73.9614
1128.82	69.9458
1130.97	77.6903
1133.11	74.4459
1135.26	82.4299
1137.4	77.8396
1139.54	70.6456
1141.69	81.5639
1143.83	80.8975
1145.97	79.5851
1148.12	90.7545
1150.26	91.8486
1152.4	86.67
1154.55	91.303
1156.69	83.3899
1158.83	89.358
1160.98	84.3792
1163.12	87.8122
1165.26	91.8871
1167.41	86.712
1169.55	87.3281
1171.69	81.1396
1173.84	87.1061
1175.98	84.2801
1178.12	89.8654
1180.27	94.1766
1182.41	89.6381
1184.55	100.023
1186.7	85.2478
1188.84	91.7876
1190.98	98.2281
1193.13	88.1952
1195.27	95.7617
1197.41	104.151
1199.56	108.308
1201.7	99.1424
1203.84	97.8811
1205.99	100.703
1208.13	108.66
1210.27	100.847
1212.42	91.8646
1214.56	93.6063
1216.7	100.084
1218.85	96.5301
1220.99	104.224
1223.13	107.642
1225.28	103.972
1227.42	105.892
1229.56	110.922
1231.71	99.4443
1233.85	113.794
1235.99	110.148
1238.14	108.284
1240.28	125.143
1242.42	119.152
1244.57	118.222
1246.71	118.708
1248.85	118.703
1251	121.397
1253.14	118.984
1255.28	118.821
1257.43	123.263
1259.57	124.159
1261.71	130.64
1263.86	125.573
1266	139.581
1268.14	131.897
1270.29	150.833
1272.43	153.958
1274.58	154.113
1276.72	156.272
1278.86	134.137
1281.01	156.112
1283.15	156.317
1285.29	160.856
1287.44	153.478
1289.58	171.636
1291.72	170.248
1293.87	173.57
1296.01	170.938
1298.15	179.465
1300.3	180.999
1302.44	187.027
1304.58	186.685
1306.73	195.252
1308.87	203.34
1311.01	196.837
1313.16	212.192
1315.3	210.379
1317.44	198.959
1319.59	214.165
1321.73	222.271
1323.87	224.926
1326.02	231.717
1328.16	232.725
1330.3	229.169
1332.45	222.422
1334.59	232.999
1336.73	244.957
1338.88	232.106
1341.02	257.645
1343.16	248.358
1345.31	244.859
1347.45	251.302
1349.59	242.671
1351.74	245.162
1353.88	247.75
1356.02	236.562
1358.17	247.434
1360.31	237.887
1362.45	238.386
1364.6	232.991
1366.74	220.33
1368.88	215.984
1371.03	227.702
1373.17	217.379
1375.31	215.817
1377.46	221.713
1379.6	206.108
1381.74	213.715
1383.89	192.417
1386.03	202.529
1388.17	192.108
1390.32	181.965
1392.46	186.454
1394.6	183.128
1396.75	187.688
1398.89	178.791
1401.03	184.168
1403.18	181.077
1405.32	172.046
1407.46	170.566
1409.61	175.632
1411.75	165.666
1413.9	169.514
1416.04	164.186
1418.18	162.908
1420.33	172.273
1422.47	157.112
1424.61	150.574
1426.76	158.329
1428.9	155.897
1431.04	152.554
1433.19	154.282
1435.33	159.386
1437.47	147.575
1439.62	150.55
1441.76	149.777
1443.9	148.88
1446.05	150.11
1448.19	142.619
1450.33	139.646
1452.48	148.51
1454.62	147.454
1456.76	141.222
1458.91	150.991
1461.05	146.956
1463.19	149.148
1465.34	145.55
1467.48	136.506
1469.62	157.476
1471.77	145.402
1473.91	141.938
1476.05	140.992
1478.2	143.855
1480.34	157.843
1482.48	139.369
1484.63	137.919
1486.77	159.273
1488.91	137.542
1491.06	146.607
1493.2	148.81
1495.34	139.65
1497.49	141.926
1499.63	132.241
1501.77	148.653
1503.92	141.891
1506.06	149.842
1508.2	142.256
1510.35	136.817
1512.49	146.277
1514.63	149.699
1516.78	139.215
1518.92	146.383
1521.06	151.683
1523.21	138.842
1525.35	159.015
1527.49	147.704
1529.64	162.613
1531.78	155.649
1533.92	151.973
1536.07	152.848
1538.21	150.344
1540.35	160.14
1542.5	174.625
1544.64	165.099
1546.78	165.568
1548.93	162.58
1551.07	171.112
1553.22	180.104
1555.36	179.297
1557.5	184.048
1559.65	187.667
1561.79	188.142
1563.93	192.33
1566.08	190.539
1568.22	205.755
1570.36	209.526
1572.51	203.577
1574.65	215.139
1576.79	230.434
1578.94	223.18
1581.08	227.035
1583.22	227.19
1585.37	249.762
1587.51	238.398
1589.65	242.886
1591.8	250.69
1593.94	252.945
1596.08	245.887
1598.23	242.757
1600.37	248.983
1602.51	242.954
1604.66	239.765
1606.8	232.479
1608.94	237.823
1611.09	230.491
1613.23	221.48
1615.37	216.754
1617.52	209.519
1619.66	193.79
1621.8	183.873
1623.95	172.605
1626.09	169.291
1628.23	156.31
1630.38	156.969
1632.52	149.386
1634.66	145.269
1636.81	134.368
1638.95	124.024
1641.09	123.465
1643.24	111.178
1645.38	108.622
1647.52	105.346
1649.67	97.8515
1651.81	98.0495
1653.95	94.6116
1656.1	84.6437
1658.24	82.4289
1660.38	60.5981
1662.53	66.6834
1664.67	79.9162
1666.81	71.8952
1668.96	65.503
1671.1	59.3448
1673.24	63.0142
1675.39	58.7095
1677.53	51.3666
1679.67	50.2658
1681.82	43.4551
1683.96	48.0336
1686.1	47.2529
1688.25	55.0002
1690.39	44.6353
1692.54	44.3067
1694.68	36.0122
1696.82	43.3109
1698.97	42.5504
1701.11	38.5205
1703.25	41.3518
1705.4	42.3915
1707.54	34.8773
1709.68	39.3229
1711.83	38.419
1713.97	32.8914
1716.11	34
1718.26	32.6915
1720.4	34.8521
1722.54	29.8985
1724.69	32.4152
1726.83	30.8351
1728.97	34.1805
1731.12	30.3854
1733.26	32.3546
1735.4	32.1124
1737.55	34.4173
1739.69	23.8721
1741.83	26.2133
1743.98	26.9987
1746.12	31.1214
1748.26	27.0073
1750.41	27.081
1752.55	27.3097
1754.69	28.2069
1756.84	26.6868
1758.98	25.9449
1761.12	23.367
1763.27	25.5408
1765.41	29.5219
1767.55	31.4898
1769.7	27.1177
1771.84	34.2382
1773.98	27.3895
1776.13	24.0493
1778.27	25.5195
1780.41	26.8443
1782.56	27.4189
1784.7	30.038
1786.84	27.7869
1788.99	25.5079
1791.13	27.6417
1793.27	31.1767
1795.42	26.322
1797.56	27.2358
1799.7	27.7719
1801.85	28.053
1803.99	27.4354
1806.13	28.6458
1808.28	27.7913
1810.42	31.0078
1812.56	23.331
1814.71	32.1376
1816.85	29.5331
1818.99	30.219
1821.14	23.7381
1823.28	25.7793
1825.42	28.3795
1827.57	25.4658
1829.71	25.9143
1831.86	25.9345
1834	28.9595
1836.14	24.4506
1838.29	28.6775
1840.43	31.0121
1842.57	26.7888
1844.72	22.99
1846.86	26.8551
1849	23
1851.15	28.1775
1853.29	24.9384
1855.43	28.3779
1857.58	34.1792
1859.72	27.7588
1861.86	27.703
1864.01	28.1098
1866.15	23.372
1868.29	28.3749
1870.44	29.8973
1872.58	28.1442
1874.72	31.6044
1876.87	30.2118
1879.01	30.4876
1881.15	26.9942
1883.3	24.2306
1885.44	25.6102
1887.58	24.4718
1889.73	31.3868
1891.87	26.4286
1894.01	26.8216
1896.16	28.2462
1898.3	26.8487
1900.44	28.6512
1902.59	27.2829
1904.73	22.8207
1906.87	24.8323
1909.02	25.2574
1911.16	29.56
1913.3	26.5635
1915.45	26.0751
1917.59	29.8685
1919.73	27.1469
1921.88	25.5064
1924.02	26.7353
1926.16	25.7282
1928.31	25.0694
1930.45	26.2161
1932.59	26.0394
1934.74	23.8139
1936.88	25.3779
1939.02	25.7395
1941.17	23.7515
1943.31	23
1945.45	26.1071
1947.6	30.1815
1949.74	24.9112
1951.88	27.1599
1954.03	26.2499
1956.17	31.0472
1958.31	24.8436
1960.46	24.4805
1962.6	27.0154
1964.74	26.4377
1966.89	24.8527
1969.03	23.9372
1971.18	25.2671
1973.32	28.6334
1975.46	26.4196
1977.61	25.4988
1979.75	27.3367
1981.89	25.6447
1984.04	24.5424
1986.18	26.3809
1988.32	27.976
1990.47	22.4582
1992.61	22.4848
1994.75	29.2836
1996.9	25.8457
1999.04	24.7685
2001.18	23.3257
2003.33	22.0116
2005.47	31.3434
2007.61	24.4482
2009.76	26.3445
2011.9	23.6968
2014.04	30.8816
2016.19	19.6982
2018.33	25.9758
2020.47	28.8881
2022.62	23.1735
2024.76	20.1013
2026.9	29.0083
2029.05	30.4793
2031.19	26.4787
2033.33	26.3585
2035.48	28.1548
2037.62	28.127
2039.76	28.4043
2041.91	31.4365
2044.05	29.7015
2046.19	27.2285
2048.34	27.7607
2050.48	30.6494
2052.62	27.9485
2054.77	27.4361
2056.91	27.6314
2059.05	28.7822
2061.2	30.5016
2063.34	25.3594
2065.48	21.9609
2067.63	30.234
2069.77	23.5548
2071.91	26.2994
2074.06	27.3602
2076.2	26.1604
2078.34	24.2948
2080.49	24.5936
2082.63	27.4323
2084.77	26.039
2086.92	27.8764
2089.06	25.8425
2091.2	31.7035
2093.35	27.1115
2095.49	35.6003
2097.63	30.8838
2099.78	25.8524
2101.92	25.0011
2104.06	22.6676
2106.21	25.6667
2108.35	25.3561
2110.5	26.4502
2112.64	29.0089
2114.78	25.5331
2116.93	25.605
2119.07	24.3478
2121.21	29.6483
2123.36	29.1219
2125.5	24.5328
2127.64	25.4568
2129.79	28.3955
2131.93	20.4675
2134.07	27.5694
2136.22	30.6623
2138.36	22.5071
2140.5	32.9476
2142.65	28.7314
2144.79	27.7565
2146.93	27.0545
2149.08	29.6783
2151.22	24.0908
2153.36	28.3438
2155.51	28.9251
2157.65	30.0162
2159.79	24.4277
2161.94	27.2581
2164.08	27.4903
2166.22	21.8585
2168.37	27.1582
2170.51	28.1703
2172.65	26.0224
2174.8	27.7994
2176.94	30.454
2179.08	29.5355
2181.23	28.1141
2183.37	29.5445
2185.51	25.0666
2187.66	25.2784
2189.8	24.4713
2191.94	27.6652
2194.09	28.3373
2196.23	29.95
2198.37	26.1144
2200.52	26.5861
2202.66	26.036
2204.8	25.958
2206.95	27.5852
2209.09	23.5606
2211.23	26.7615
2213.38	26.4151
2215.52	26.6847
2217.66	28.9541
2219.81	30.9728
2221.95	29.7602
2224.09	31.6156
2226.24	29.9589
2228.38	31.7522
2230.52	27.3142
2232.67	23.5532
2234.81	27.7087
2236.95	31.0445
2239.1	24.5099
2241.24	28.2025
2243.39	29.3374
2245.53	29.2186
2247.67	27.4623
2249.82	26.2214
2251.96	29.2336
2254.1	26.8628
2256.25	29.0819
2258.39	29.6625
2260.53	29.2953
2262.68	28.7764
2264.82	24.684
2266.96	31.8546
2269.11	29.342
2271.25	29.9461
2273.39	31.3253
2275.54	31.2339
2277.68	24.747
2279.82	28.0822
2281.97	24.886
2284.11	25.8621
2286.25	28
2288.4	25.3031
2290.54	28.0702
2292.68	30.9944
2294.83	29.9217
2296.97	27.2464
2299.11	32.0837
2301.26	30.4988
2303.4	27.8698
2305.54	30.8641
2307.69	23.5667
2309.83	28.8893
2311.97	26.4204
2314.12	27.4803
2316.26	32.4336
2318.4	30.7539
2320.55	25.0402
2322.69	30.2351
2324.83	30.4372
2326.98	32.1007
2329.12	46.9532
2331.26	39.3548
2333.41	30.1123
2335.55	27.1454
2337.69	31.3539
2339.84	29.6063
2341.98	26.3238
2344.12	28.9757
2346.27	32
2348.41	25.812
2350.55	29.6059
2352.7	31.5162
2354.84	33.0751
2356.98	34.3799
2359.13	29.4994
2361.27	30.8969
2363.41	30.626
2365.56	35.4657
2367.7	26.4671
2369.84	32.005
2371.99	27.4333
2374.13	27.5213
2376.27	32.7106
2378.42	31.5053
2380.56	35.6848
2382.71	32.7526
2384.85	34.8792
2386.99	31.2084
2389.14	35.8189
2391.28	29.9054
2393.42	32.1986
2395.57	33.6093
2397.71	36.1209
2399.85	29.7577
2402	36.1618
2404.14	29.7893
2406.28	34.3333
2408.43	32.9434
2410.57	34.5792
2412.71	33.1856
2414.86	33.9807
2417	33.2145
2419.14	40.2548
2421.29	34.5919
2423.43	25.8237
2425.57	38.9853
2427.72	39.5142
2429.86	33
2432	38.9236
2434.15	33.3287
2436.29	36.6444
2438.43	39.6236
2440.58	34.9713
2442.72	37.3598
2444.86	33.2541
2447.01	33.766
2449.15	35.6561
2451.29	36.509
2453.44	41.883
2455.58	31.4115
2457.72	33.3511
2459.87	34.6945
2462.01	37.3916
2464.15	32.9844
2466.3	29.5245
2468.44	39.3333
2470.58	39.1628
2472.73	39.8148
2474.87	34.0978
2477.01	38.6234
2479.16	39.9025
2481.3	32.3992
2483.44	40.5342
2485.59	37.6859
2487.73	36.4701
2489.87	37.2617
2492.02	35.7636
2494.16	38.581
2496.3	39.1446
2498.45	37.0977
2500.59	39.4869
2502.73	37.408
2504.88	39.9447
2507.02	36.5897
2509.16	43.2049
2511.31	35.123
2513.45	39.1428
2515.59	37.8944
2517.74	35.1006
2519.88	41.9246
2522.03	41.0599
2524.17	38.6545
2526.31	37.8885
2528.46	38.3739
2530.6	41
2532.74	40.18
2534.89	46.7103
2537.03	41.1597
2539.17	38.3618
2541.32	38.824
2543.46	39.6274
2545.6	45.3529
2547.75	41.9399
2549.89	43.6672
2552.03	38.254
2554.18	39.9765
2556.32	40.3575
2558.46	42.1546
2560.61	40.4215
2562.75	42.4809
2564.89	38.8465
2567.04	46.249
2569.18	48.066
2571.32	41.6972
2573.47	46.2714
2575.61	40.8011
2577.75	37.3879
2579.9	49.6093
2582.04	41.5244
2584.18	44.1706
2586.33	42.3742
2588.47	45.2742
2590.61	44.5482
2592.76	43.279
2594.9	43.6924
2597.04	44.2153
2599.19	46.2545
2601.33	45.4207
2603.47	48.5746
2605.62	41.595
2607.76	45.0032
2609.9	47.1419
2612.05	46.4378
2614.19	50.0014
2616.33	46.4862
2618.48	50.2459
2620.62	51.2317
2622.76	48.8612
2624.91	47.1752
2627.05	46.6662
2629.19	57.1441
2631.34	48.9089
2633.48	55.2239
2635.62	46.1644
2637.77	51.0186
2639.91	46.5598
2642.05	49.8488
2644.2	50.3428
2646.34	53.4536
2648.48	50.6324
2650.63	52.1544
2652.77	52.4022
2654.92	53.061
2657.06	55.9387
2659.2	50.9055
2661.35	55.1941
2663.49	55.3841
2665.63	56.011
2667.78	53.1449
2669.92	59.0415
2672.06	57.8769
2674.21	54.3387
2676.35	54.0006
2678.49	56.7384
2680.64	52.2594
2682.78	54.0414
2684.92	53.1798
2687.07	55.9329
2689.21	59.8666
2691.35	56.9309
2693.5	54.2716
2695.64	57.2559
2697.78	52.9878
2699.93	50.2543
2702.07	55.2754
2704.21	51.1611
2706.36	58.0447
2708.5	56.2965
2710.64	60.3803
2712.79	55.3649
2714.93	55.796
2717.07	52.3175
2719.22	56.8557
2721.36	50.0138
2723.5	57.4881
2725.65	54.9026
2727.79	54.3202
2729.93	50.675
2732.08	50.9627
2734.22	48.591
2736.36	54.8141
2738.51	53.0721
2740.65	54.7813
2742.79	54.8979
2744.94	51.9941
2747.08	52.076
2749.22	52.5487
2751.37	49.3925
2753.51	47.0604
2755.65	52.8249
2757.8	51.8826
2759.94	51.5321
2762.08	48.943
2764.23	50.8573
2766.37	52.3911
2768.51	54.7415
2770.66	48.9206
2772.8	47.333
2774.94	52.463
2777.09	50.4953
2779.23	45.0786
2781.37	48.9379
2783.52	52.4394
2785.66	45.7608
2787.8	54.7904
2789.95	50.8655
2792.09	45.9054
2794.24	49.029
2796.38	55.9245
2798.52	51.6839
2800.67	47.7901
2802.81	50.147
2804.95	54.4905
2807.1	42.2577
2809.24	53.2815
2811.38	50.4657
2813.53	49.0088
2815.67	48.433
2817.81	50.3253
2819.96	40.9451
2822.1	45.3227
2824.24	46.4061
2826.39	48.1628
2828.53	54.2137
2830.67	48.4695
2832.82	45.0628
2834.96	51.9563
2837.1	52.5687
2839.25	48.6713
2841.39	49.8524
2843.53	52.191
2845.68	49.0996
2847.82	42.452
2849.96	53.2726
2852.11	46.8568
2854.25	50.8377
2856.39	46.4874
2858.54	49.0782
2860.68	47.2182
2862.82	52.7757
2864.97	47.0444
2867.11	42.2452
2869.25	47.6483
2871.4	47.7227
2873.54	54.9398
2875.68	51.0277
2877.83	50.7018
2879.97	50.0363
2882.11	47.812
2884.26	49.3124
2886.4	48.8061
2888.54	58.2282
2890.69	49.3001
2892.83	53.0605
2894.97	52.9471
2897.12	54.8152
2899.26	53.3285
2901.4	53.4571
2903.55	47.9659
2905.69	47.1305
2907.83	47.4883
2909.98	51.5807
2912.12	53.8313
2914.26	54.3975
2916.41	53.2511
2918.55	53.8454
2920.69	57.2235
2922.84	53.0979
2924.98	52.0905
2927.125	51.0757
2929.27	48.0998
2931.41	51.0533
2933.56	51.3432
2935.7	51.9804
2937.84	48.2862
2939.99	53.6579
2942.13	46.5084
2944.27	52.1448
2946.42	54.3579
2948.56	49.4656
2950.7	44.0863
2952.85	47.269
2954.99	52.7668
2957.13	50.7401
2959.28	42.3714
2961.42	47.7395
2963.56	45.0158
2965.71	47.8697
2967.85	48.0641
2969.99	45.0852
2972.14	41.4199
2974.28	47.4301
2976.42	46.8429
2978.57	45.9334
2980.71	51.3997
2982.85	44.8342
2985	49.1722
2987.14	45.4502
2989.28	47.9653
2991.43	42.4568
2993.57	38.5414
2995.71	47.7505
2997.86	40.0865
3000	46.1307