File: Example Data/Raman/CNT - TIM/Raytheon/Al foil/2010/03-29-10/Al - 03-29-10 - B5_2.txt
100	64.8864
102.143	63.3105
104.287	56.8809
106.43	70.6379
108.574	76.0076
110.717	54.1259
112.86	58.4418
115.004	55.1369
117.147	67.7821
119.29	65.1594
121.434	57.0444
123.577	59.9473
125.721	69.4591
127.864	60.3791
130.007	56.4548
132.151	54.4337
134.294	53.3555
136.438	56.5304
138.581	60.1986
140.724	57.3426
142.868	57.038
145.011	50.4551
147.154	50.9006
149.298	52.1058
151.441	45.8383
153.585	50.0589
155.728	60.1421
157.871	48.6853
160.015	47.9325
162.158	48.4675
164.302	50.6161
166.445	48.5462
168.588	49.88
170.732	45.161
172.875	58.3315
175.018	45.7207
177.162	43.8578
179.305	58.2405
181.449	51.8895
183.592	43.8505
185.735	47.146
187.879	49.855
190.022	44.1617
192.166	47.4856
194.309	46.6667
196.452	48.9353
198.596	45.4791
200.739	46.4964
202.882	50.4496
205.026	48.4837
207.169	47.6847
209.313	44.4194
211.456	51.3333
213.599	38.8067
215.743	46.4328
217.886	48.1811
220.03	45.9686
222.173	46.6359
224.316	48.5007
226.46	49.2111
228.603	44.6672
230.746	42.351
232.89	45.3583
235.033	46.3747
237.177	47.5081
239.32	42.4618
241.463	43.7133
243.607	50.0845
245.75	43.6514
247.894	46.8748
250.037	46.6661
252.18	43.5688
254.324	49.7204
256.467	52.4601
258.611	42.8313
260.754	49.2986
262.897	41.4247
265.041	44.7158
267.184	49.1539
269.327	43.0735
271.471	44.262
273.614	44.9431
275.758	45.1028
277.901	52.1544
280.044	43.4858
282.188	48.3576
284.331	41.3844
286.474	45.1215
288.618	45.4261
290.761	45.5603
292.905	47.6402
295.048	46.7575
297.191	39.0492
299.335	45.5524
301.478	43.0965
303.622	44.611
305.765	44.2268
307.908	41.0299
310.052	44.169
312.195	44.6039
314.339	43.1446
316.482	41.1067
318.625	41.9902
320.769	40.3782
322.912	41.1871
325.055	44.9858
327.199	36.3674
329.342	39.7555
331.486	39.24
333.629	43.8023
335.772	40.9153
337.916	35.2783
340.059	45.0388
342.203	38.5019
344.346	40.6744
346.489	37.1218
348.633	37.2492
350.776	41.6888
352.919	43.0106
355.063	42.0033
357.206	40.7179
359.35	45.4781
361.493	35.5723
363.636	43.7245
365.78	40.5568
367.923	42.1051
370.067	43.9507
372.21	42.9761
374.353	45.1147
376.497	37.435
378.64	38.3266
380.783	37.4727
382.927	36.9965
385.07	39.6738
387.214	35.6766
389.357	33.1736
391.5	34.2856
393.644	42.9123
395.787	37.601
397.931	32.745
400.074	41.3835
402.217	37.5834
404.361	37.8034
406.504	37.1248
408.647	39.0815
410.791	31.8744
412.934	43.3457
415.078	36.0131
417.221	36.0008
419.364	37.164
421.508	35.9832
423.651	38.0421
425.795	33.5136
427.938	32.7866
430.081	38.4163
432.225	38.2822
434.368	38.4737
436.511	37.2046
438.655	39.2203
440.798	37.3944
442.942	35.5604
445.085	38.5448
447.228	36.2703
449.372	33.6792
451.515	35.3718
453.659	32.2109
455.802	39.3333
457.945	34.7912
460.089	33.1898
462.232	29.3876
464.375	33.0307
466.519	32.9567
468.662	39.4725
470.806	31.8468
472.949	37.2751
475.092	31.0318
477.236	40.1323
479.379	30.165
481.523	31.1332
483.666	35.7558
485.809	32.4438
487.953	34.0071
490.096	29.458
492.239	34.1287
494.383	29.9625
496.526	30.8441
498.67	33.4972
500.813	30.3807
502.956	32.1317
505.1	34.231
507.243	26.4754
509.387	32.5671
511.53	32.1342
513.673	30.2777
515.817	32.5551
517.96	33.5226
520.103	35.6415
522.247	34.112
524.39	29.2086
526.534	29.2959
528.677	28.4324
530.82	31.3961
532.964	28.2552
535.107	31.0701
537.251	36.2221
539.394	29.9632
541.537	29.0791
543.681	34.2365
545.824	36.6305
547.967	30.7972
550.111	28.9533
552.254	30.4792
554.398	37.2768
556.541	31.662
558.684	28.8507
560.828	28.5257
562.971	31.8277
565.115	32.7018
567.258	28.5584
569.401	30.1319
571.545	30.2833
573.688	32.9064
575.831	36.0892
577.975	35.935
580.118	29.8013
582.262	34.5252
584.405	33.7006
586.548	31.6377
588.692	31.6299
590.835	33.7933
592.979	34.3873
595.122	31.289
597.265	35.1789
599.409	35.6808
601.552	33.7516
603.695	34.3853
605.839	31.0397
607.982	33.9867
610.126	31.3053
612.269	35.6442
614.412	32.6448
616.556	32.5411
618.699	32.7072
620.843	32.8718
622.986	37.7915
625.129	36.7509
627.273	37.9467
629.416	36.6698
631.56	31
633.703	38.4125
635.846	34.0437
637.99	30.6293
640.133	37.7337
642.276	36.4331
644.42	32.29
646.563	35.2587
648.707	39.1212
650.85	38.4649
652.993	37.3198
655.137	39.6008
657.28	37.8408
659.424	40.8442
661.567	38.0402
663.71	35.2047
665.854	36.9219
667.997	39.3921
670.14	31.818
672.284	38.5292
674.427	37.0695
676.571	36.5771
678.714	37.8708
680.857	36.1927
683.001	35.8874
685.144	40.6264
687.288	28.9608
689.431	40.4181
691.574	30.6904
693.718	40.0546
695.861	42.6581
698.004	42.7396
700.148	34.2283
702.291	45.1364
704.435	39
706.578	41.0357
708.721	37.4163
710.865	39.8567
713.008	34.1091
715.151	38.8837
717.295	36.1658
719.438	37.6833
721.582	38.1807
723.725	39.5658
725.868	40.8909
728.012	39.6562
730.155	38.168
732.299	47.0686
734.442	43.2417
736.585	40.9677
738.729	40.7014
740.872	42.3333
743.016	43.7962
745.159	48.6581
747.302	44.0693
749.446	45.9445
751.589	42.3134
753.732	47.6145
755.876	44.1409
758.019	50.5601
760.163	40.3075
762.306	47.0969
764.449	50.5034
766.593	41.8666
768.736	42.0802
770.88	45.5773
773.023	44.574
775.166	47.9574
777.31	48.8636
779.453	48.7522
781.596	52.7642
783.74	44.7263
785.883	46.7815
788.027	47.0394
790.17	45.813
792.313	42.9615
794.457	47.5168
796.6	53.1544
798.744	46.7332
800.887	46.1461
803.03	43.9229
805.174	51.8828
807.317	52.5265
809.46	51.0839
811.604	49.0289
813.747	51.0014
815.891	41.8039
818.034	51.3187
820.177	51.7965
822.321	50.9605
824.464	54.654
826.608	52.1056
828.751	55.4307
830.894	51.7384
833.038	49.0326
835.181	54.9092
837.324	52.544
839.468	53.396
841.611	48.0874
843.755	52.59
845.898	51.5343
848.041	50.0888
850.185	49.5806
852.328	54.2762
854.472	49.4839
856.615	50.0456
858.758	50.884
860.902	49.819
863.045	48.3288
865.188	45.2278
867.332	52.7853
869.475	53.7188
871.619	46.4872
873.762	47.2757
875.905	48.9895
878.049	46.1273
880.192	47.882
882.336	46.346
884.479	46.128
886.622	45.4013
888.766	44.1672
890.909	46.8277
893.052	50.5585
895.196	43.2782
897.339	42.2429
899.483	41.439
901.626	41.6894
903.769	38.6853
905.913	43.1644
908.056	39.2081
910.2	42.3333
912.343	39.3416
914.486	42.0375
916.63	39.9005
918.773	38.6693
920.917	38.8439
923.06	40.8942
925.203	36.1391
927.347	35.9158
929.49	38.3811
931.633	38.5617
933.777	35.1629
935.92	39.2388
938.064	37.1339
940.207	39.7554
942.35	34.0811
944.494	37.7626
946.637	38.3436
948.781	39.783
950.924	41.7954
953.067	37.6186
955.211	33.5398
957.354	38.8539
959.497	42.0612
961.641	35.5329
963.784	31.9356
965.928	40.1663
968.071	47.9173
970.214	35.0633
972.358	35.4142
974.501	37.3333
976.644	43.0529
978.788	34.883
980.931	39.5413
983.075	39.964
985.218	38.7787
987.361	43.3224
989.505	35.561
991.648	41.6575
993.792	39.9867
995.935	37.679
998.078	36.3606
1000.22	37.1002
1002.37	40.6212
1004.51	44.1401
1006.65	41.5032
1008.8	47.5378
1010.94	46.8516
1013.08	44.2823
1015.23	41.8614
1017.37	41.578
1019.51	51.1512
1021.66	49.5872
1023.8	49.2149
1025.94	50.0852
1028.09	42.4136
1030.23	44.7748
1032.37	43.7475
1034.52	47.805
1036.66	46.9021
1038.8	57.7381
1040.95	51.216
1043.09	53.1558
1045.23	51.7412
1047.38	46.381
1049.52	54.7561
1051.66	54.3276
1053.81	52.4768
1055.95	52.7052
1058.09	53.6678
1060.24	50.7985
1062.38	46.002
1064.52	51.3333
1066.67	47.2478
1068.81	53.8951
1070.95	57.4797
1073.1	52.4699
1075.24	55.5177
1077.38	54.7332
1079.53	49.3748
1081.67	49.3592
1083.81	57.6803
1085.96	51.8798
1088.1	50.8506
1090.24	58.667
1092.39	53.7589
1094.53	51.9131
1096.67	56.787
1098.82	51.2789
1100.96	48.5762
1103.1	56.845
1105.25	55.6148
1107.39	57.8978
1109.53	55.9413
1111.68	54.2337
1113.82	55.7736
1115.96	62.5407
1118.11	64.6529
1120.25	60.8248
1122.39	53.5202
1124.54	64.0569
1126.68	62.123
1128.82	58.1314
1130.97	62.5376
1133.11	67.7229
1135.26	63.9034
1137.4	63.4144
1139.54	63.3829
1141.69	66.0685
1143.83	68.0627
1145.97	77.1199
1148.12	67.9727
1150.26	74.7889
1152.4	69.2521
1154.55	73.3491
1156.69	76.6672
1158.83	72.6809
1160.98	71.1857
1163.12	79.6486
1165.26	80.4043
1167.41	76.833
1169.55	81.9524
1171.69	79.9073
1173.84	74.6914
1175.98	81.8315
1178.12	75.365
1180.27	77.979
1182.41	72.1066
1184.55	76.87
1186.7	85.0856
1188.84	94.9852
1190.98	88.6561
1193.13	74.4845
1195.27	73.2539
1197.41	87.914
1199.56	80.5354
1201.7	80.5799
1203.84	82.1709
1205.99	88.3322
1208.13	89.4813
1210.27	90.7868
1212.42	88.7235
1214.56	86.5762
1216.7	93.853
1218.85	82.4908
1220.99	96.1348
1223.13	91.5752
1225.28	92.0672
1227.42	98.7197
1229.56	94.9308
1231.71	96.5461
1233.85	97.3811
1235.99	91.1982
1238.14	105.309
1240.28	103.083
1242.42	91.5573
1244.57	109.13
1246.71	101.951
1248.85	108.664
1251	113.109
1253.14	112.637
1255.28	120.626
1257.43	111.511
1259.57	113.913
1261.71	110.162
1263.86	118.151
1266	116.017
1268.14	119.615
1270.29	136
1272.43	121.523
1274.58	131.287
1276.72	133.78
1278.86	124.334
1281.01	131.849
1283.15	134.228
1285.29	153.138
1287.44	151.036
1289.58	149.588
1291.72	145.026
1293.87	163.164
1296.01	156.849
1298.15	155.765
1300.3	173.898
1302.44	160.144
1304.58	173.668
1306.73	172.558
1308.87	189.176
1311.01	177.899
1313.16	183.018
1315.3	184.883
1317.44	195.374
1319.59	206.538
1321.73	213.85
1323.87	214.464
1326.02	205.572
1328.16	211.316
1330.3	216.492
1332.45	230.889
1334.59	224.334
1336.73	224
1338.88	223.421
1341.02	235.205
1343.16	235.699
1345.31	214.175
1347.45	227.794
1349.59	219.004
1351.74	217.169
1353.88	216.405
1356.02	222.999
1358.17	219.067
1360.31	213.101
1362.45	212.258
1364.6	216.574
1366.74	209.983
1368.88	207.363
1371.03	196.69
1373.17	198.06
1375.31	194.834
1377.46	196.951
1379.6	182.135
1381.74	183.155
1383.89	169.137
1386.03	172.374
1388.17	177.713
1390.32	167.53
1392.46	164.594
1394.6	167.71
1396.75	160.569
1398.89	158.792
1401.03	150.551
1403.18	166.154
1405.32	148.791
1407.46	146.731
1409.61	137.208
1411.75	139.812
1413.9	139.813
1416.04	138.351
1418.18	134.383
1420.33	125.394
1422.47	138.895
1424.61	132.234
1426.76	128.008
1428.9	125.613
1431.04	123.558
1433.19	128.266
1435.33	125.917
1437.47	135.504
1439.62	133.157
1441.76	126.538
1443.9	129.42
1446.05	129.556
1448.19	127.902
1450.33	132.095
1452.48	119.802
1454.62	108.995
1456.76	118.613
1458.91	127.288
1461.05	119.926
1463.19	125.797
1465.34	119.831
1467.48	123.241
1469.62	117.865
1471.77	124.753
1473.91	115.813
1476.05	115.98
1478.2	112.287
1480.34	115.013
1482.48	121.006
1484.63	118.611
1486.77	114.345
1488.91	119.808
1491.06	120.667
1493.2	119.302
1495.34	118.885
1497.49	125.298
1499.63	122.362
1501.77	128.873
1503.92	123.155
1506.06	124.454
1508.2	118.41
1510.35	118.041
1512.49	121.889
1514.63	119.343
1516.78	121.201
1518.92	115.507
1521.06	120.651
1523.21	118.36
1525.35	127.528
1527.49	122.326
1529.64	133.945
1531.78	124.15
1533.92	121.163
1536.07	126.62
1538.21	133.961
1540.35	126.536
1542.5	140.048
1544.64	149.015
1546.78	139.625
1548.93	146.145
1551.07	142.445
1553.22	144.029
1555.36	154.066
1557.5	158.454
1559.65	153.75
1561.79	162.925
1563.93	171.914
1566.08	165.066
1568.22	173.622
1570.36	175.709
1572.51	179.859
1574.65	179.769
1576.79	191.469
1578.94	199.633
1581.08	203.743
1583.22	217.002
1585.37	212.932
1587.51	222.116
1589.65	225.364
1591.8	224.223
1593.94	229.215
1596.08	221.512
1598.23	231.598
1600.37	227.113
1602.51	232.313
1604.66	223.489
1606.8	222.005
1608.94	223.701
1611.09	214.421
1613.23	199.99
1615.37	195.217
1617.52	193.493
1619.66	183.772
1621.8	166.371
1623.95	164.845
1626.09	152.548
1628.23	144.346
1630.38	143.803
1632.52	128.675
1634.66	125.286
1636.81	113.673
1638.95	114.318
1641.09	106.088
1643.24	103.27
1645.38	95.8118
1647.52	86.9873
1649.67	93.8877
1651.81	81.5677
1653.95	82.4251
1656.1	71.1112
1658.24	76.2846
1660.38	65.7721
1662.53	63.0987
1664.67	57.5706
1666.81	58.2945
1668.96	62.7413
1671.1	53.3621
1673.24	49.2428
1675.39	41.5512
1677.53	41.8166
1679.67	44.8323
1681.82	38.1195
1683.96	45.4987
1686.1	42.6783
1688.25	30.1367
1690.39	38.2327
1692.54	36.3267
1694.68	34.3493
1696.82	33.6128
1698.97	30.2558
1701.11	33.2018
1703.25	32.5185
1705.4	32.1957
1707.54	30.0964
1709.68	27.4615
1711.83	27.7958
1713.97	27.3643
1716.11	30.1184
1718.26	29.4242
1720.4	30.3896
1722.54	30.6978
1724.69	25.2047
1726.83	29.6739
1728.97	21.6887
1731.12	21.8035
1733.26	24.3156
1735.4	27.8203
1737.55	24.4149
1739.69	28.8661
1741.83	26.6631
1743.98	24.7503
1746.12	23.5826
1748.26	22.3056
1750.41	25.7962
1752.55	26.929
1754.69	18.5166
1756.84	24.6681
1758.98	24.3884
1761.12	27.8921
1763.27	23.7752
1765.41	23
1767.55	22.7304
1769.7	25.0392
1771.84	23.4287
1773.98	20.8838
1776.13	26.0887
1778.27	23.3309
1780.41	26.2533
1782.56	21.8378
1784.7	25.2666
1786.84	23.3472
1788.99	23.7461
1791.13	23.4678
1793.27	22.8177
1795.42	22.8757
1797.56	24.3716
1799.7	24.1352
1801.85	20.8318
1803.99	23.6871
1806.13	23.9295
1808.28	22.0623
1810.42	20.5171
1812.56	25.1702
1814.71	21.0784
1816.85	21.2226
1818.99	23.2819
1821.14	20.8096
1823.28	24.7324
1825.42	24.2342
1827.57	24.4747
1829.71	26.6951
1831.86	25.8954
1834	21.4548
1836.14	23.8414
1838.29	24.6829
1840.43	23.2384
1842.57	22.5875
1844.72	23.7802
1846.86	21.342
1849	22.1579
1851.15	27.0277
1853.29	27.6174
1855.43	25.155
1857.58	21.5118
1859.72	23.1229
1861.86	22.7886
1864.01	26.9978
1866.15	24.8227
1868.29	21.1771
1870.44	26.1945
1872.58	22.9854
1874.72	20.8492
1876.87	20.6373
1879.01	29.5386
1881.15	24.9855
1883.3	20.8465
1885.44	24.6124
1887.58	22.065
1889.73	23.5818
1891.87	20.4643
1894.01	21.7136
1896.16	22.8978
1898.3	28.2423
1900.44	19.5463
1902.59	18.6612
1904.73	25.605
1906.87	21.541
1909.02	26.3139
1911.16	26.1201
1913.3	24.4788
1915.45	22.6203
1917.59	24.5903
1919.73	21.3866
1921.88	24.9567
1924.02	22.3958
1926.16	23.5711
1928.31	18.4585
1930.45	21.8298
1932.59	21.4014
1934.74	17.3333
1936.88	20.0571
1939.02	18.1485
1941.17	21.0265
1943.31	19
1945.45	22.3893
1947.6	22.2934
1949.74	20.0347
1951.88	22.3542
1954.03	22.4643
1956.17	21.4925
1958.31	18.4513
1960.46	23.8774
1962.6	25.2247
1964.74	21.6868
1966.89	26.5064
1969.03	22.0792
1971.18	24.8379
1973.32	20.0336
1975.46	20.6495
1977.61	21.2902
1979.75	23.0135
1981.89	19.8343
1984.04	21.5006
1986.18	24.7283
1988.32	24.8214
1990.47	23.1835
1992.61	20.394
1994.75	21.922
1996.9	24.2096
1999.04	21.1203
2001.18	23.9613
2003.33	22.0039
2005.47	23.7998
2007.61	25.7714
2009.76	26.6537
2011.9	21.2337
2014.04	20.7341
2016.19	25.0017
2018.33	21.6205
2020.47	25.2207
2022.62	24.0192
2024.76	22.1175
2026.9	22.2562
2029.05	25.8893
2031.19	20.7243
2033.33	20.9394
2035.48	20.5581
2037.62	20.84
2039.76	23.0787
2041.91	27.0474
2044.05	23.075
2046.19	23.0175
2048.34	25.0047
2050.48	21.3991
2052.62	22.2318
2054.77	27.8224
2056.91	20.8471
2059.05	21.296
2061.2	20.0199
2063.34	21.0196
2065.48	26.647
2067.63	22.6667
2069.77	21.5353
2071.91	27.0637
2074.06	17.4024
2076.2	24.0723
2078.34	18.1283
2080.49	21.3698
2082.63	26.7656
2084.77	24.8201
2086.92	22.4692
2089.06	22.3516
2091.2	23.6228
2093.35	23.1374
2095.49	20.7067
2097.63	25.0269
2099.78	23.0526
2101.92	21.7781
2104.06	26.9995
2106.21	23.5167
2108.35	23.1839
2110.5	23.5498
2112.64	23.5133
2114.78	20.3779
2116.93	17.6028
2119.07	18.7377
2121.21	24.0387
2123.36	23.0374
2125.5	22.202
2127.64	23.2428
2129.79	33.2965
2131.93	22.9553
2134.07	24.4083
2136.22	18.8325
2138.36	23.075
2140.5	21.6821
2142.65	22.9055
2144.79	25.0081
2146.93	21.1369
2149.08	23.3411
2151.22	24.8894
2153.36	21.2021
2155.51	22.3237
2157.65	28.6213
2159.79	27.9974
2161.94	22.0444
2164.08	19.5435
2166.22	18.1569
2168.37	20.8595
2170.51	21.9838
2172.65	26.5142
2174.8	26.4661
2176.94	24.7423
2179.08	23.157
2181.23	19
2183.37	26.026
2185.51	26.3467
2187.66	24.0902
2189.8	30.2297
2191.94	30.5806
2194.09	25.7157
2196.23	28.2037
2198.37	20.4826
2200.52	20.5861
2202.66	23.3153
2204.8	20.9832
2206.95	26.7412
2209.09	23.2452
2211.23	22.2372
2213.38	23.1598
2215.52	21.993
2217.66	25.3819
2219.81	24.934
2221.95	21.6952
2224.09	21.5525
2226.24	21.1961
2228.38	23.6094
2230.52	23.382
2232.67	25.1217
2234.81	23.5556
2236.95	20.4196
2239.1	22.5096
2241.24	23.21
2243.39	23.0271
2245.53	25.0288
2247.67	21.8356
2249.82	20.8345
2251.96	25.4742
2254.1	20.0602
2256.25	25.4327
2258.39	20.7891
2260.53	21.4531
2262.68	24.8709
2264.82	28.6252
2266.96	26.1924
2269.11	21.9171
2271.25	26.2861
2273.39	25.5307
2275.54	22.9084
2277.68	25.9157
2279.82	28.6118
2281.97	24.7641
2284.11	30.0803
2286.25	22.8165
2288.4	27.2212
2290.54	25.2341
2292.68	20.1108
2294.83	27.7014
2296.97	24.6538
2299.11	28.042
2301.26	19.7011
2303.4	25.3289
2305.54	27.01
2307.69	27.1404
2309.83	17.968
2311.97	26.3299
2314.12	28.2988
2316.26	24.8022
2318.4	24
2320.55	23.8046
2322.69	24.9657
2324.83	32.0302
2326.98	32.7461
2329.12	36.3012
2331.26	41.5978
2333.41	27.2904
2335.55	22.1028
2337.69	24.3265
2339.84	28.1812
2341.98	28.8373
2344.12	21.7799
2346.27	32.6804
2348.41	24.8062
2350.55	25.5867
2352.7	28.5033
2354.84	22.0751
2356.98	21.212
2359.13	26.9585
2361.27	29.7477
2363.41	23.9689
2365.56	30.0309
2367.7	30.6807
2369.84	24.551
2371.99	28.5979
2374.13	28.5995
2376.27	26.255
2378.42	30.8035
2380.56	27.5848
2382.71	23.4252
2384.85	24.5982
2386.99	26.1249
2389.14	26.3768
2391.28	28.4275
2393.42	24.3813
2395.57	30.2036
2397.71	31.0586
2399.85	31.1323
2402	29.1814
2404.14	31.2642
2406.28	29.3781
2408.43	27.6808
2410.57	27.3389
2412.71	30.0626
2414.86	30.058
2417	25.7391
2419.14	27.2091
2421.29	29.0311
2423.43	34.7206
2425.57	30.5889
2427.72	34.4096
2429.86	29.6964
2432	29.8175
2434.15	31.5447
2436.29	36.4272
2438.43	29.4107
2440.58	31.2441
2442.72	34.2379
2444.86	31.3969
2447.01	28.0266
2449.15	32.5123
2451.29	32.0405
2453.44	31.8499
2455.58	33.0448
2457.72	32.5957
2459.87	26.7084
2462.01	35.954
2464.15	30.9767
2466.3	31.0475
2468.44	31.8271
2470.58	32.6667
2472.73	32.9624
2474.87	33.9022
2477.01	28.0433
2479.16	32.5731
2481.3	31.9571
2483.44	32.3315
2485.59	29.3731
2487.73	33.5371
2489.87	30.2357
2492.02	37.1399
2494.16	34.5247
2496.3	32.9678
2498.45	33.1543
2500.59	34.2686
2502.73	34.5893
2504.88	31.2855
2507.02	38.6282
2509.16	33.6923
2511.31	35.631
2513.45	30.7828
2515.59	29.3333
2517.74	32.7248
2519.88	35.647
2522.03	34.8489
2524.17	37.1727
2526.31	39.658
2528.46	35.4417
2530.6	35.8396
2532.74	37.795
2534.89	30.8358
2537.03	37
2539.17	34.8057
2541.32	32.2911
2543.46	39.6863
2545.6	29.0656
2547.75	32.8634
2549.89	40.4818
2552.03	37.0223
2554.18	36.2206
2556.32	38.0723
2558.46	34.2291
2560.61	29.9522
2562.75	35.1486
2564.89	38.7041
2567.04	35.9368
2569.18	35.3962
2571.32	35.6667
2573.47	35.1765
2575.61	31.5568
2577.75	36.695
2579.9	38.47
2582.04	43.1278
2584.18	43.6843
2586.33	38.0082
2588.47	40.892
2590.61	41.3689
2592.76	41.1869
2594.9	40.1125
2597.04	43.6139
2599.19	39.2176
2601.33	35.6313
2603.47	37.4021
2605.62	41.2423
2607.76	43.3005
2609.9	39.3923
2612.05	41.8866
2614.19	45.3646
2616.33	43.322
2618.48	43.6599
2620.62	45.5169
2622.76	47.0796
2624.91	47.3289
2627.05	45.1122
2629.19	42.982
2631.34	42.5099
2633.48	44.541
2635.62	44.5779
2637.77	47.0917
2639.91	45.2408
2642.05	45.8434
2644.2	49.5788
2646.34	45.9858
2648.48	47.6142
2650.63	48.6126
2652.77	51.8475
2654.92	45.6015
2657.06	45.029
2659.2	52.2039
2661.35	48.4322
2663.49	51.9785
2665.63	44.593
2667.78	47.4022
2669.92	49.0702
2672.06	49.5239
2674.21	53.33
2676.35	48.4235
2678.49	50.5258
2680.64	52.2024
2682.78	52.9311
2684.92	49.1203
2687.07	50.8867
2689.21	50.2137
2691.35	50.4814
2693.5	48.6819
2695.64	50.1405
2697.78	58.7169
2699.93	48.3677
2702.07	47.9167
2704.21	48.5487
2706.36	53.6638
2708.5	52.624
2710.64	49.1083
2712.79	52.1403
2714.93	52.8776
2717.07	49.9585
2719.22	48.8634
2721.36	47.2544
2723.5	51.2581
2725.65	44.8226
2727.79	44.9225
2729.93	46.1432
2732.08	44.3423
2734.22	45.8433
2736.36	45.2013
2738.51	44.6206
2740.65	42.6143
2742.79	42.0332
2744.94	43.1723
2747.08	43.8948
2749.22	48.6365
2751.37	43.158
2753.51	43.9205
2755.65	43.8092
2757.8	44.2018
2759.94	43.4523
2762.08	47.4921
2764.23	41.9484
2766.37	43.172
2768.51	41.7705
2770.66	43.1153
2772.8	47.9594
2774.94	42.1678
2777.09	41.3723
2779.23	41.2587
2781.37	40.9859
2783.52	43.9221
2785.66	39.9168
2787.8	46.8117
2789.95	43.3189
2792.09	46.0762
2794.24	46.08
2796.38	42.0827
2798.52	40.8859
2800.67	44.7103
2802.81	43.5292
2804.95	48.0288
2807.1	44.2535
2809.24	41.4852
2811.38	41.7152
2813.53	43.0774
2815.67	40.5978
2817.81	42.1773
2819.96	44.6644
2822.1	43.3555
2824.24	46.966
2826.39	45.8412
2828.53	44.7403
2830.67	40.1853
2832.82	44.1654
2834.96	41.6492
2837.1	40.402
2839.25	46.3739
2841.39	46.7961
2843.53	46.0017
2845.68	49.2793
2847.82	47.3401
2849.96	40.1123
2852.11	45.2848
2854.25	38.8383
2856.39	40.6277
2858.54	45.3101
2860.68	41.1187
2862.82	40.2011
2864.97	42.6514
2867.11	43.6764
2869.25	42.0758
2871.4	46.3722
2873.54	40.6531
2875.68	46.3333
2877.83	48.2802
2879.97	45.2225
2882.11	40.9309
2884.26	44.2776
2886.4	46.1303
2888.54	41.2578
2890.69	45.9651
2892.83	46.4106
2894.97	47.8731
2897.12	46.1486
2899.26	42.5783
2901.4	44.4571
2903.55	41.5596
2905.69	45.9334
2907.83	43.6853
2909.98	43.2008
2912.12	48.6562
2914.26	47.8169
2916.41	45.6219
2918.55	43.7665
2920.69	44.1778
2922.84	45.9873
2924.98	42.5116
2927.125	40.2479
2929.27	44.2515
2931.41	42.9517
2933.56	45.3234
2935.7	44.7647
2937.84	40.4205
2939.99	46.1974
2942.13	46.2968
2944.27	46.2357
2946.42	42.4826
2948.56	46.4567
2950.7	48.8493
2952.85	47.3113
2954.99	40.1604
2957.13	40.1752
2959.28	39.9183
2961.42	43.6512
2963.56	46.5804
2965.71	40.9829
2967.85	38.7265
2969.99	39.4397
2972.14	45.9134
2974.28	34.5293
2976.42	42.9443
2978.57	44.5675
2980.71	34.5996
2982.85	37.0104
2985	37.1264
2987.14	37.0054
2989.28	34.7457
2991.43	36.0372
2993.57	41.0979
2995.71	39.1755
2997.86	33.6358
3000	40.6427