File: Example Data/Raman/CNT - TIM/Raytheon/Al foil/2010/03-29-10/Al - 03-29-10 - B4_1.txt
100	67.4911
102.143	54.6743
104.287	53
106.43	62.7901
108.574	52.397
110.717	51.3069
112.86	48.2406
115.004	50.1369
117.147	53.5208
119.29	56.2984
121.434	55.69
123.577	59.8729
125.721	53.166
127.864	46.4771
130.007	48.1609
132.151	57.2151
134.294	52.2517
136.438	47.1518
138.581	51.9449
140.724	51.3774
142.868	41.7223
145.011	45.2244
147.154	50.9503
149.298	47.1875
151.441	48.495
153.585	47.3638
155.728	54.247
157.871	48.3147
160.015	45.4087
162.158	44.245
164.302	45.6341
166.445	41.4736
168.588	44.3333
170.732	48
172.875	47.6704
175.018	43.9792
177.162	43.3422
179.305	43.5802
181.449	49.5959
183.592	47.1591
185.735	43.7596
187.879	47.8464
190.022	39.2442
192.166	41.9007
194.309	41.8947
196.452	47.2289
198.596	42.722
200.739	41.5779
202.882	43.8217
205.026	40.9634
207.169	45.3694
209.313	42.3117
211.456	45.1132
213.599	37.6134
215.743	48.2248
217.886	45.5381
220.03	44.4906
222.173	42.0302
224.316	41.8255
226.46	38.778
228.603	42.8725
230.746	40.1601
232.89	42.6084
235.033	42.0582
237.177	42.5576
239.32	42.3333
241.463	44.8584
243.607	44.3382
245.75	42.8216
247.894	39.6706
250.037	44.3347
252.18	45.2355
254.324	43.7662
256.467	44.4491
258.611	42.1595
260.754	37.5848
262.897	41.8921
265.041	45.6315
267.184	46
269.327	38.7142
271.471	44.0751
273.614	36.2441
275.758	40.4362
277.901	39.3926
280.044	44.9716
282.188	40.2996
284.331	38.912
286.474	41.1215
288.618	49.4984
290.761	41.2594
292.905	48.9159
295.048	42.2201
297.191	42.718
299.335	38.8631
301.478	45.2088
303.622	40.738
305.765	37.6357
307.908	39.7572
310.052	41.7014
312.195	36.2757
314.339	39.2662
316.482	41.961
318.625	36.3789
320.769	39.3964
322.912	42.4705
325.055	35.7234
327.199	38.741
329.342	41.8176
331.486	38.8076
333.629	32.5282
335.772	40.0748
337.916	40.8493
340.059	35.7077
342.203	36.2741
344.346	34.3204
346.489	31.6372
348.633	40.7071
350.776	41.8588
352.919	32.7954
355.063	37.6667
357.206	34.5128
359.35	38.5395
361.493	41.0943
363.636	35.7651
365.78	36
367.923	30.5615
370.067	42.0707
372.21	32.1544
374.353	35.3048
376.497	36.4859
378.64	34.286
380.783	35.3394
382.927	30.6995
385.07	33.1987
387.214	35.9505
389.357	34.2014
391.5	34.595
393.644	34.3333
395.787	40.2207
397.931	37.9215
400.074	38.0523
402.217	29.8982
404.361	25.4192
406.504	33.4338
408.647	34.3111
410.791	33.9297
412.934	38.2797
415.078	37
417.221	39.665
419.364	36.9678
421.508	27.823
423.651	33.8582
425.795	36.7477
427.938	35.4267
430.081	34.526
432.225	30.4254
434.368	28.9229
436.511	33.199
438.655	35.371
440.798	32.2709
442.942	34.431
445.085	34.8781
447.228	31.1847
449.372	31.099
451.515	32.5897
453.659	34.7959
455.802	32.9514
457.945	32.7368
460.089	32.8445
462.232	28.6347
464.375	33.5439
466.519	33.8167
468.662	33.718
470.806	31.4054
472.949	35.2251
475.092	25.697
477.236	30.9171
479.379	29.097
481.523	30.1337
483.666	31.4245
485.809	28.5501
487.953	32.4339
490.096	31.7048
492.239	30.5181
494.383	26.3576
496.526	30.3741
498.67	25.9152
500.813	28.974
502.956	27.1429
505.1	32.1755
507.243	25.5652
509.387	28.0699
511.53	25.011
513.673	26.5737
515.817	32.0245
517.96	30.3484
520.103	33.2004
522.247	22.1867
524.39	30.917
526.534	25.0042
528.677	27.3242
530.82	22.5145
532.964	24.9613
535.107	29.8085
537.251	30.3719
539.394	27.7477
541.537	27.8807
543.681	29.2839
545.824	27.0109
547.967	29.5489
550.111	22.3282
552.254	30.9176
554.398	28.3119
556.541	26.9324
558.684	28.8507
560.828	22.5049
562.971	31.8465
565.115	26.8976
567.258	30.1082
569.401	29.5348
571.545	25.2354
573.688	27.0805
575.831	32.9171
577.975	28.7202
580.118	32.0448
582.262	27.0661
584.405	26.2994
586.548	30.6378
588.692	31.398
590.835	33.3591
592.979	32.2859
595.122	36.6667
597.265	31.1899
599.409	31.2605
601.552	27.9151
603.695	24.243
605.839	32.6944
607.982	31.32
610.126	34.4456
612.269	30.5677
614.412	35.0414
616.556	24.6104
618.699	32.1545
620.843	27.5987
622.986	35.0679
625.129	33.2051
627.273	33.3644
629.416	30.6671
631.56	33.603
633.703	30.1023
635.846	32.6502
637.99	34.1774
640.133	31.891
642.276	32.0584
644.42	33.5411
646.563	31.3984
648.707	37.7677
650.85	35.3387
652.993	30.2329
655.137	34.0705
657.28	33.3061
659.424	30.2825
661.567	35.3534
663.71	34.3392
665.854	36.5773
667.997	36.3921
670.14	38.9412
672.284	37.375
674.427	34.4003
676.571	34.9067
678.714	32.2805
680.857	34.1479
683.001	30.7757
685.144	37.1893
687.288	37.1569
689.431	33.5579
691.574	30
693.718	34.5028
695.861	32.9214
698.004	30.1193
700.148	37.2674
702.291	34.3333
704.435	37.4111
706.578	36.2278
708.721	34.1308
710.865	34.3833
713.008	39.9765
715.151	37.2004
717.295	37.9384
719.438	36.7188
721.582	38.7912
723.725	41.1804
725.868	29.8971
728.012	37.1278
730.155	44.6669
732.299	38.386
734.442	44.7026
736.585	39.9117
738.729	34.3465
740.872	39.3333
743.016	43.148
745.159	41.0005
747.302	38.6204
749.446	40.7222
751.589	42.9651
753.732	37.7936
755.876	42.8404
758.019	33.8697
760.163	41.0647
762.306	42.8243
764.449	49.4853
766.593	43.6158
768.736	44.2793
770.88	40.058
773.023	37.886
775.166	40.0314
777.31	44.3333
779.453	43.0954
781.596	45.1196
783.74	48.026
785.883	44.8134
788.027	46.7049
790.17	45.2226
792.313	41.0771
794.457	49.8596
796.6	43.8051
798.744	42.4336
800.887	45.5468
803.03	41.2764
805.174	47.4648
807.317	45.7568
809.46	52.7082
811.604	46.4459
813.747	42.889
815.891	44.1242
818.034	53.8405
820.177	46.8009
822.321	48.0176
824.464	45.8912
826.608	45.9859
828.751	46.0961
830.894	47.8418
833.038	46.9665
835.181	46.0045
837.324	48.8103
839.468	46.0046
841.611	41.1748
843.755	49.947
845.898	53.0123
848.041	46.7731
850.185	45.8726
852.328	48.7342
854.472	44.6291
856.615	54.9927
858.758	47.3639
860.902	44.1916
863.045	53.9834
865.188	53.7344
867.332	48.6749
869.475	53.5098
871.619	39.288
873.762	40.6366
875.905	43.4608
878.049	42.3409
880.192	40.1371
882.336	40.2228
884.479	44.4326
886.622	40.4171
888.766	40.5831
890.909	39.3352
893.052	37.9311
895.196	38.0813
897.339	39.0027
899.483	41.0916
901.626	40.3786
903.769	35.9082
905.913	38.4468
908.056	37.7387
910.2	35.4399
912.343	35.8564
914.486	34.18
916.63	34.6983
918.773	35.1724
920.917	31.2257
923.06	39.07
925.203	32.4381
927.347	28.571
929.49	35.1042
931.633	31.2778
933.777	32.9075
935.92	34.8307
938.064	35.8471
940.207	34.7869
942.35	35.5536
944.494	33.5319
946.637	32.1468
948.781	30.9752
950.924	32.4804
953.067	31.6514
955.211	30.0043
957.354	34.7546
959.497	34.6628
961.641	39.7578
963.784	35.9204
965.928	34.0277
968.071	34.6369
970.214	31.1295
972.358	36.8611
974.501	32.2191
976.644	32.4412
978.788	36.8988
980.931	34.1236
983.075	38.4296
985.218	34.9916
987.361	29.2972
989.505	40.1137
991.648	35.1978
993.792	36.6667
995.935	36.6667
998.078	31.7687
1000.22	36.4853
1002.37	32.7946
1004.51	33.1429
1006.65	33.8372
1008.8	32.1437
1010.94	37.71
1013.08	42.4901
1015.23	36.5292
1017.37	39.1632
1019.51	35.988
1021.66	36.8359
1023.8	41.4408
1025.94	35.3834
1028.09	42.7923
1030.23	40.697
1032.37	39.6096
1034.52	41.1424
1036.66	43.5291
1038.8	39.1646
1040.95	43.2364
1043.09	44.4347
1045.23	41.8771
1047.38	42.2438
1049.52	46.0488
1051.66	38.4401
1053.81	41.5485
1055.95	36.7824
1058.09	42.5581
1060.24	40.7755
1062.38	36.3216
1064.52	39.6179
1066.67	44.8348
1068.81	47.6545
1070.95	44.8374
1073.1	46.0284
1075.24	41.1085
1077.38	46.742
1079.53	39.7383
1081.67	46.8289
1083.81	41.746
1085.96	47.1252
1088.1	42.0214
1090.24	47.9049
1092.39	47.0505
1094.53	42.9702
1096.67	45.7162
1098.82	48.6536
1100.96	42.5649
1103.1	48.9904
1105.25	48.2493
1107.39	44.6369
1109.53	46.7898
1111.68	50.5903
1113.82	48.3333
1115.96	53.8053
1118.11	50.2288
1120.25	56.7568
1122.39	52.4933
1124.54	47.5529
1126.68	56.8212
1128.82	51.757
1130.97	55.6667
1133.11	53.7027
1135.26	50.4082
1137.4	48.5027
1139.54	55.3234
1141.69	61.2356
1143.83	54.6923
1145.97	58.1067
1148.12	61.4271
1150.26	62.984
1152.4	64.6136
1154.55	58.5573
1156.69	59.5564
1158.83	65.0246
1160.98	62.859
1163.12	63.5392
1165.26	55.3387
1167.41	61.4549
1169.55	62.8466
1171.69	59.8453
1173.84	63.595
1175.98	59.0545
1178.12	61.0831
1180.27	64.7355
1182.41	60.717
1184.55	66.5717
1186.7	66.6357
1188.84	64.4909
1190.98	78.6772
1193.13	69.6097
1195.27	72.8983
1197.41	66.8281
1199.56	64.9003
1201.7	71.059
1203.84	66.6
1205.99	67.8162
1208.13	71.2936
1210.27	65.9124
1212.42	75.2656
1214.56	73.9698
1216.7	67.9214
1218.85	75.7296
1220.99	79.4553
1223.13	77.4606
1225.28	73.1484
1227.42	73.469
1229.56	78.3506
1231.71	83.3888
1233.85	78.5483
1235.99	78.5299
1238.14	76.545
1240.28	86.5713
1242.42	82.5451
1244.57	88.9156
1246.71	79.4931
1248.85	88.223
1251	90.5161
1253.14	89.9627
1255.28	86.1707
1257.43	89.5659
1259.57	91.1929
1261.71	92.8648
1263.86	101.647
1266	95.1033
1268.14	95.5671
1270.29	96.9925
1272.43	95.3223
1274.58	94.8104
1276.72	101.605
1278.86	103.999
1281.01	108.516
1283.15	113.124
1285.29	108.336
1287.44	114.932
1289.58	118.735
1291.72	104.874
1293.87	119.103
1296.01	120.471
1298.15	121.944
1300.3	127.564
1302.44	134.756
1304.58	135.992
1306.73	138.881
1308.87	143.097
1311.01	134.995
1313.16	143.575
1315.3	146.197
1317.44	139.844
1319.59	156.092
1321.73	158.321
1323.87	157.436
1326.02	164.233
1328.16	156.903
1330.3	154.393
1332.45	167.499
1334.59	171.445
1336.73	168.247
1338.88	165.878
1341.02	161.969
1343.16	167.036
1345.31	157.21
1347.45	168.369
1349.59	154.005
1351.74	166.569
1353.88	166.004
1356.02	162.411
1358.17	157.307
1360.31	156.593
1362.45	153.257
1364.6	152.413
1366.74	147.046
1368.88	144.935
1371.03	149.271
1373.17	143.267
1375.31	146.038
1377.46	150.582
1379.6	143.837
1381.74	132.742
1383.89	132.372
1386.03	137.219
1388.17	135.497
1390.32	129.319
1392.46	125.507
1394.6	117.924
1396.75	118.286
1398.89	124.631
1401.03	120.962
1403.18	127.184
1405.32	112.922
1407.46	116.566
1409.61	118.839
1411.75	107.303
1413.9	105.072
1416.04	114.505
1418.18	115.306
1420.33	109.061
1422.47	114.06
1424.61	110.774
1426.76	95.4071
1428.9	102.653
1431.04	103.504
1433.19	106.002
1435.33	111.812
1437.47	100.04
1439.62	98.9798
1441.76	104.838
1443.9	99.2845
1446.05	98.1838
1448.19	105.951
1450.33	99.5704
1452.48	110.137
1454.62	102.339
1456.76	100.829
1458.91	96.1766
1461.05	95.6801
1463.19	91.107
1465.34	99.562
1467.48	97.2318
1469.62	100.73
1471.77	95.9781
1473.91	96.5878
1476.05	96.4684
1478.2	100.629
1480.34	94.3398
1482.48	94.4996
1484.63	94.4733
1486.77	92.4307
1488.91	92.3147
1491.06	94.9587
1493.2	96.6066
1495.34	94.3333
1497.49	98.5722
1499.63	99.9903
1501.77	96.6667
1503.92	92.9768
1506.06	91.7216
1508.2	95.8923
1510.35	107.718
1512.49	91.1289
1514.63	93.5987
1516.78	98.456
1518.92	87.1999
1521.06	93.8554
1523.21	91.792
1525.35	96.3333
1527.49	94.6218
1529.64	91.513
1531.78	112.94
1533.92	101.631
1536.07	104.367
1538.21	104.541
1540.35	99.236
1542.5	106.131
1544.64	109.614
1546.78	118.383
1548.93	110.825
1551.07	107.223
1553.22	109.992
1555.36	117.237
1557.5	117.369
1559.65	122.417
1561.79	124.301
1563.93	126.755
1566.08	133.412
1568.22	127.779
1570.36	133.182
1572.51	126.93
1574.65	144.973
1576.79	141.394
1578.94	155.998
1581.08	148.239
1583.22	163.386
1585.37	155.889
1587.51	169.352
1589.65	164.348
1591.8	169.96
1593.94	171.112
1596.08	171.452
1598.23	163.998
1600.37	172.682
1602.51	174.316
1604.66	176.096
1606.8	171.232
1608.94	170.04
1611.09	165.327
1613.23	158.598
1615.37	152.95
1617.52	144.385
1619.66	139.402
1621.8	136.178
1623.95	126.047
1626.09	110.422
1628.23	107.333
1630.38	103.563
1632.52	100.823
1634.66	90.4278
1636.81	85.7213
1638.95	90.3325
1641.09	79.9262
1643.24	77.0131
1645.38	72.3193
1647.52	78.5259
1649.67	68.5009
1651.81	60.5779
1653.95	59.1193
1656.1	58.6858
1658.24	61.6748
1660.38	55.6838
1662.53	55.1215
1664.67	49.7439
1666.81	51.3604
1668.96	43.852
1671.1	46.115
1673.24	39.9029
1675.39	43.7194
1677.53	41.6917
1679.67	35.8344
1681.82	38.0484
1683.96	33.1292
1686.1	36.3718
1688.25	30.6469
1690.39	25.7359
1692.54	25.3732
1694.68	23.9953
1696.82	26.3782
1698.97	27.686
1701.11	26.81
1703.25	21.1482
1705.4	20.1024
1707.54	27.2807
1709.68	26.3333
1711.83	23.8821
1713.97	25.5814
1716.11	24.5161
1718.26	21.8732
1720.4	28.3437
1722.54	19.6967
1724.69	24.4679
1726.83	18.2812
1728.97	22.0903
1731.12	24.6623
1733.26	17.2908
1735.4	17.974
1737.55	15.3666
1739.69	21.4323
1741.83	18.4247
1743.98	16.502
1746.12	19.4304
1748.26	25.3203
1750.41	22.0648
1752.55	19.4279
1754.69	21.2701
1756.84	19.0029
1758.98	21.315
1761.12	17.4844
1763.27	16.1556
1765.41	26.1162
1767.55	19.0638
1769.7	21.2944
1771.84	23.8571
1773.98	22.1085
1776.13	20.3906
1778.27	22.4051
1780.41	21.8311
1782.56	17.8717
1784.7	18.4571
1786.84	17.9722
1788.99	18.7936
1791.13	13.9751
1793.27	13.641
1795.42	17.3616
1797.56	17.6852
1799.7	15.4727
1801.85	16.4808
1803.99	20.3333
1806.13	18.4343
1808.28	16.259
1810.42	19.391
1812.56	19.6714
1814.71	22.7059
1816.85	18.1108
1818.99	17.6381
1821.14	16.0595
1823.28	19.2676
1825.42	14.1486
1827.57	17.6004
1829.71	21.3906
1831.86	22.4965
1834	22.6356
1836.14	15.5057
1838.29	19.3198
1840.43	17.437
1842.57	21.1716
1844.72	17.3333
1846.86	20.7914
1849	22.3803
1851.15	17.7948
1853.29	16.7406
1855.43	20.7001
1857.58	17.9286
1859.72	21.122
1861.86	21.2114
1864.01	19.9994
1866.15	24.92
1868.29	18.8576
1870.44	19.7607
1872.58	19.5507
1874.72	16.4011
1876.87	21.3333
1879.01	14.6594
1881.15	15.0087
1883.3	19.8452
1885.44	20.8904
1887.58	18.3438
1889.73	18.434
1891.87	16.1984
1894.01	17.169
1896.16	14.9849
1898.3	18.3319
1900.44	17.0772
1902.59	17.2324
1904.73	16.4027
1906.87	17.0836
1909.02	14.7753
1911.16	19.996
1913.3	22.2435
1915.45	15.7042
1917.59	19.419
1919.73	19.0265
1921.88	22.1648
1924.02	25.3021
1926.16	21.8089
1928.31	15.8054
1930.45	20.0275
1932.59	19.5809
1934.74	16.7581
1936.88	17.3333
1939.02	18.93
1941.17	15.5079
1943.31	24.0555
1945.45	17.1655
1947.6	24.1236
1949.74	21.825
1951.88	16.2362
1954.03	21.4882
1956.17	19.4447
1958.31	22.9009
1960.46	16.0101
1962.6	21.5815
1964.74	16.3635
1966.89	16.3204
1969.03	17.1106
1971.18	15.4543
1973.32	16.4
1975.46	17.3621
1977.61	15.9569
1979.75	18.6667
1981.89	22.0524
1984.04	19.6248
1986.18	17.4398
1988.32	18.5135
1990.47	20.1499
1992.61	17.5454
1994.75	18.1989
1996.9	22.2839
1999.04	20.7685
2001.18	17.4806
2003.33	17.3605
2005.47	21.7332
2007.61	16.1217
2009.76	19.3575
2011.9	17.6882
2014.04	18.7914
2016.19	20.6783
2018.33	21.5421
2020.47	16.7776
2022.62	18.832
2024.76	20.4604
2026.9	21.6887
2029.05	17.7603
2031.19	17.1404
2033.33	22.5606
2035.48	16.4032
2037.62	17.2137
2039.76	19.6929
2041.91	17.8601
2044.05	19.8185
2046.19	21.2453
2048.34	19.892
2050.48	15.1174
2052.62	14.3863
2054.77	21.5619
2056.91	19.3098
2059.05	19.1564
2061.2	15.023
2063.34	16.075
2065.48	18.6863
2067.63	17.2975
2069.77	20.5136
2071.91	16.6816
2074.06	15.7281
2076.2	16.6792
2078.34	21.064
2080.49	21.009
2082.63	21.1536
2084.77	15.0654
2086.92	17.6295
2089.06	16.1209
2091.2	21.4983
2093.35	20.1183
2095.49	20.4401
2097.63	17.097
2099.78	17.8143
2101.92	18.7417
2104.06	16.0006
2106.21	18.475
2108.35	20.6322
2110.5	20.1683
2112.64	17.3894
2114.78	26.2215
2116.93	20.7877
2119.07	21.3406
2121.21	13.2743
2123.36	21.7463
2125.5	19.0341
2127.64	21.5679
2129.79	19.2775
2131.93	20.028
2134.07	22.1389
2136.22	15.3312
2138.36	18.6762
2140.5	23.9692
2142.65	18.3683
2144.79	19.1384
2146.93	18.7922
2149.08	18
2151.22	21.3135
2153.36	14.8163
2155.51	18.5056
2157.65	18.3171
2159.79	20.7557
2161.94	19.1573
2164.08	20.7173
2166.22	13.6646
2168.37	19.4032
2170.51	13.8987
2172.65	15.2257
2174.8	17.7606
2176.94	18.364
2179.08	20.7806
2181.23	21.6667
2183.37	17.0681
2185.51	20.48
2187.66	25.1804
2189.8	17.9425
2191.94	23.649
2194.09	17.7968
2196.23	20.3083
2198.37	17.2736
2200.52	18.9194
2202.66	20.1419
2204.8	22.6331
2206.95	17.2375
2209.09	17.5419
2211.23	16.7995
2213.38	25.2325
2215.52	17.6786
2217.66	20.0986
2219.81	17.919
2221.95	21.1974
2224.09	22.0571
2226.24	18.6228
2228.38	17.2696
2230.52	18.1858
2232.67	22.7354
2234.81	20.2559
2236.95	20.2652
2239.1	17.5338
2241.24	19.8609
2243.39	17.6615
2245.53	25.6377
2247.67	23.5507
2249.82	20.6032
2251.96	20.5161
2254.1	23.1341
2256.25	17.5977
2258.39	17.3714
2260.53	17.72
2262.68	19.6566
2264.82	20.1383
2266.96	18.8314
2269.11	19.0047
2271.25	20.1437
2273.39	23.6027
2275.54	23.2573
2277.68	18.8425
2279.82	18.2192
2281.97	21
2284.11	22.9075
2286.25	18.5014
2288.4	22.4757
2290.54	18.1639
2292.68	18.3315
2294.83	22.3116
2296.97	23.4799
2299.11	19.9584
2301.26	25.0369
2303.4	21.5189
2305.54	21.5082
2307.69	22.2606
2309.83	19.2534
2311.97	21.3356
2314.12	21.7272
2316.26	25.1653
2318.4	18.4763
2320.55	26.1012
2322.69	19.1796
2324.83	24.0586
2326.98	22.844
2329.12	27.0146
2331.26	34.0753
2333.41	25.5544
2335.55	20.7577
2337.69	23.9514
2339.84	18.915
2341.98	21.8831
2344.12	15.5518
2346.27	19.2268
2348.41	21.4729
2350.55	21.4977
2352.7	21.1962
2354.84	19.4677
2356.98	21.6563
2359.13	22.8743
2361.27	22.5285
2363.41	25.3178
2365.56	26.3024
2367.7	18.7113
2369.84	23.5485
2371.99	24.05
2374.13	24.0156
2376.27	25.9436
2378.42	25.1368
2380.56	23.609
2382.71	22.1348
2384.85	24.7424
2386.99	29.2079
2389.14	28.6667
2391.28	20.7162
2393.42	26.9269
2395.57	26.9262
2397.71	24.4927
2399.85	23.7245
2402	26.1552
2404.14	21.3082
2406.28	18.9105
2408.43	26.0566
2410.57	25.0875
2412.71	23.669
2414.86	22.6087
2417	26.0232
2419.14	22.3595
2421.29	27.7227
2423.43	24.3333
2425.57	24.5889
2427.72	26.1251
2429.86	22.6751
2432	22.7952
2434.15	23.5586
2436.29	27.7001
2438.43	24.9161
2440.58	27.7693
2442.72	34.2969
2444.86	23.9839
2447.01	30.2715
2449.15	28.0702
2451.29	26.5146
2453.44	21.0269
2455.58	29.9126
2457.72	24.3333
2459.87	30.1803
2462.01	22.0301
2464.15	27.6747
2466.3	24.619
2468.44	23.7775
2470.58	22.6482
2472.73	24.3888
2474.87	21.3971
2477.01	28.8557
2479.16	26.8209
2481.3	28.5047
2483.44	23.6661
2485.59	27.8422
2487.73	31.928
2489.87	27.3479
2492.02	32.6927
2494.16	24.0727
2496.3	30.2893
2498.45	31.3326
2500.59	28.5939
2502.73	27.5946
2504.88	26.2855
2507.02	23.8205
2509.16	27.6281
2511.31	28.1192
2513.45	28.5953
2515.59	24.5203
2517.74	27.2134
2519.88	27.6798
2522.03	35.4844
2524.17	25.1192
2526.31	31.3507
2528.46	28.8429
2530.6	25.3209
2532.74	22.5712
2534.89	25.948
2537.03	23.8834
2539.17	29.5561
2541.32	27.6854
2543.46	27.8039
2545.6	32.5359
2547.75	29.7766
2549.89	27.6667
2552.03	30.9195
2554.18	32.8451
2556.32	31.1647
2558.46	28.5866
2560.61	39.6103
2562.75	31.9482
2564.89	20.8315
2567.04	32.3419
2569.18	29.2327
2571.32	26.4536
2573.47	29.4427
2575.61	32.4451
2577.75	30.9455
2579.9	32.1967
2582.04	32.7839
2584.18	30.6394
2586.33	27.6447
2588.47	25.4704
2590.61	30.19
2592.76	30.916
2594.9	34.7155
2597.04	34.8532
2599.19	31.7173
2601.33	29.0557
2603.47	28.5625
2605.62	31.6054
2607.76	31.3574
2609.9	35.1898
2612.05	30.27
2614.19	37.7671
2616.33	31.3921
2618.48	32.6351
2620.62	35.6399
2622.76	31.8273
2624.91	34.1878
2627.05	33.0716
2629.19	34.3596
2631.34	29.555
2633.48	33.2824
2635.62	32.1781
2637.77	38.7263
2639.91	33.9731
2642.05	36.2894
2644.2	35.5175
2646.34	33.6946
2648.48	35.8318
2650.63	36.6098
2652.77	30.9938
2654.92	37.2321
2657.06	35.9829
2659.2	37.9532
2661.35	36.8937
2663.49	37.6922
2665.63	36.5434
2667.78	35.953
2669.92	38.5494
2672.06	37.1428
2674.21	37.1339
2676.35	37.4742
2678.49	36.4785
2680.64	36.7248
2682.78	36.6515
2684.92	38.0445
2687.07	37.2148
2689.21	34.6979
2691.35	37.4978
2693.5	34.3579
2695.64	36.3138
2697.78	37.2989
2699.93	36.5516
2702.07	40.8103
2704.21	40.678
2706.36	36.2343
2708.5	38.7045
2710.64	31.3934
2712.79	36.1386
2714.93	37.3638
2717.07	32.1008
2719.22	39.7221
2721.36	33.9317
2723.5	37.8514
2725.65	36.0278
2727.79	31.8126
2729.93	40.0727
2732.08	36.0234
2734.22	33.5542
2736.36	37.3289
2738.51	37.7843
2740.65	30.342
2742.79	35.4629
2744.94	36.7856
2747.08	35.978
2749.22	34.5675
2751.37	33.7281
2753.51	36.8186
2755.65	33.7419
2757.8	34.4019
2759.94	33.5733
2762.08	35.5744
2764.23	39.0153
2766.37	33.1945
2768.51	34.8406
2770.66	32.5922
2772.8	37.0393
2774.94	35.3263
2777.09	35.5676
2779.23	37.2164
2781.37	37.3406
2783.52	36.3127
2785.66	31.5896
2787.8	35.2371
2789.95	35.1021
2792.09	33.7769
2794.24	33.6674
2796.38	39.8351
2798.52	34.2747
2800.67	36.9816
2802.81	32.1936
2804.95	30.1812
2807.1	33.2972
2809.24	33.1287
2811.38	35.6261
2813.53	32.5943
2815.67	33.6769
2817.81	37.758
2819.96	36.2976
2822.1	34.365
2824.24	34.9964
2826.39	32.7614
2828.53	32.4543
2830.67	36.0923
2832.82	36.6939
2834.96	34.489
2837.1	33.6236
2839.25	31.4512
2841.39	36.3265
2843.53	31.8477
2845.68	39.3249
2847.82	33.7785
2849.96	34.5543
2852.11	28.6699
2854.25	33.2569
2856.39	26.2516
2858.54	37.9884
2860.68	30.5402
2862.82	33.7194
2864.97	35.3188
2867.11	32.1961
2869.25	38.8929
2871.4	31.9567
2873.54	35.3825
2875.68	36.2224
2877.83	29.3513
2879.97	39.9255
2882.11	41.7943
2884.26	35.8536
2886.4	38.0212
2888.54	37.5484
2890.69	33.9002
2892.83	36.4903
2894.97	33
2897.12	39.366
2899.26	41.2008
2901.4	39.6647
2903.55	39.1362
2905.69	38.3275
2907.83	27.7163
2909.98	37.7921
2912.12	40.4166
2914.26	34.7063
2916.41	36.7893
2918.55	38.9211
2920.69	35.0729
2922.84	32.3333
2924.98	34.7881
2927.125	35.314
2929.27	38.0818
2931.41	37.705
2933.56	38.2238
2935.7	34.1765
2937.84	30.7103
2939.99	33.7895
2942.13	35.2344
2944.27	40.3872
2946.42	40.1275
2948.56	33.4339
2950.7	32.8599
2952.85	34.828
2954.99	35
2957.13	34.7797
2959.28	28.9842
2961.42	31.6667
2963.56	29.7477
2965.71	35.8173
2967.85	31.594
2969.99	34.6951
2972.14	28.391
2974.28	34.2163
2976.42	33.1479
2978.57	33.8665
2980.71	37.3335
2982.85	34.8307
2985	32.8846
2987.14	35.737
2989.28	35.9036
2991.43	34.2545
2993.57	32.3456
2995.71	32.1677
2997.86	30.2531
3000	31.0124