File: Example Data/Raman/CNT - TIM/Raytheon/Al foil/2010/03-29-10/Al - 03-29-10 - B3_2.txt
100	48.3746
102.143	53.0355
104.287	51.3333
106.43	61.3058
108.574	69.7107
110.717	50.8632
112.86	51.5267
115.004	56.4098
117.147	53.2997
119.29	53.1594
121.434	51.2265
123.577	53.7643
125.721	52.1585
127.864	48.6262
130.007	52.2026
132.151	49.1326
134.294	48.2075
136.438	43.6973
138.581	45.0739
140.724	55.6987
142.868	44.7603
145.011	36.7564
147.154	40.3865
149.298	37.78
151.441	41.1694
153.585	44.1158
155.728	45.8951
157.871	46.1666
160.015	41.1865
162.158	41.0727
164.302	43.4338
166.445	39.7475
168.588	43.4711
170.732	43.5674
172.875	46.4122
175.018	41.8754
177.162	36.6355
179.305	43.6477
181.449	40.4076
183.592	37.5418
185.735	41.0726
187.879	40.9505
190.022	39.3564
192.166	40.064
194.309	46.164
196.452	36.8308
198.596	34.3149
200.739	39.2717
202.882	41.1008
205.026	41.2235
207.169	43.3153
209.313	32.4844
211.456	43.2447
213.599	38.9163
215.743	42.5672
217.886	36.1024
220.03	38.5661
222.173	45.4999
224.316	43.0901
226.46	36.6388
228.603	39.5104
230.746	43.2981
232.89	37.021
235.033	41.4084
237.177	40.4919
239.32	40.929
241.463	42.1571
243.607	39.6049
245.75	44.1397
247.894	39.1321
250.037	37.6697
252.18	41.4752
254.324	43.1686
256.467	39.7741
258.611	45.7362
260.754	44.6013
262.897	43.9821
265.041	48.5335
267.184	38.9658
269.327	39.6969
271.471	42.4913
273.614	38.9146
275.758	42.0831
277.901	42.8198
280.044	39.8991
282.188	39.9851
284.331	36.5695
286.474	41.1807
288.618	36.8899
290.761	38.6433
292.905	40.6474
295.048	41.6008
297.191	41.841
299.335	38.7278
301.478	44.7175
303.622	37.3015
305.765	37.2229
307.908	35.1513
310.052	37.7662
312.195	34.4415
314.339	40.5336
316.482	35.2031
318.625	34.7793
320.769	35.6107
322.912	36.4841
325.055	38.8795
327.199	36.5377
329.342	37.7501
331.486	37.3333
333.629	30.7316
335.772	40.3982
337.916	36.9102
340.059	39.3722
342.203	34.9149
344.346	37.7675
346.489	37.9975
348.633	34
350.776	33.0442
352.919	36.3845
355.063	32.1683
357.206	32.2243
359.35	35.2719
361.493	32.2211
363.636	36.4905
365.78	34.4575
367.923	33.1231
370.067	31.9015
372.21	33.8977
374.353	32.628
376.497	34.4096
378.64	37.2894
380.783	32.6606
382.927	30.338
385.07	36.8654
387.214	27.7558
389.357	34.9305
391.5	39.9204
393.644	32.1929
395.787	32.8075
397.931	33.5883
400.074	31.4638
402.217	32.0647
404.361	33.8451
406.504	36.6499
408.647	33.3037
410.791	29.9766
412.934	34.3622
415.078	31.1819
417.221	29.3328
419.364	36.075
421.508	26.4673
423.651	30.0753
425.795	38.9519
427.938	39.129
430.081	33.1926
432.225	36.4663
434.368	32.8632
436.511	32.8681
438.655	25.5707
440.798	33.8274
442.942	30.138
445.085	37.8856
447.228	35.3311
449.372	31.2838
451.515	32.4051
453.659	29.4388
455.802	34.1373
457.945	31.6122
460.089	29.2481
462.232	31.3013
464.375	31.8158
466.519	28.7
468.662	33.2198
470.806	28.982
472.949	28.9833
475.092	32.3439
477.236	29.9761
479.379	25.9902
481.523	30.5334
483.666	37.0659
485.809	31.6667
487.953	28.6057
490.096	24.5089
492.239	22.4983
494.383	28.1236
496.526	29.53
498.67	27.8362
500.813	29.1253
502.956	28.3838
505.1	28.3801
507.243	28.0812
509.387	29.2257
511.53	28.6169
513.673	27.3985
515.817	28.6911
517.96	33.1072
520.103	33.3384
522.247	22.859
524.39	29.1875
526.534	31.9418
528.677	23.7027
530.82	27.6159
532.964	28.8617
535.107	29.2648
537.251	25.7734
539.394	33.2891
541.537	27.4889
543.681	28.2391
545.824	34.9783
547.967	25.7774
550.111	25.5886
552.254	29.2646
554.398	27.9356
556.541	32.0629
558.684	27.8447
560.828	29.5191
562.971	29.0564
565.115	29.8567
567.258	26.8389
569.401	26.4019
571.545	33.9187
573.688	32.4748
575.831	31.0127
577.975	26.6988
580.118	25.5641
582.262	27.8742
584.405	28.2643
586.548	27.0435
588.692	28.3245
590.835	28.9561
592.979	26.5534
595.122	25.7322
597.265	30.0717
599.409	29.5218
601.552	32.5491
603.695	29.8124
605.839	31.6191
607.982	26.4107
610.126	27.9768
612.269	27.7386
614.412	28.1411
616.556	32.5801
618.699	28.7724
620.843	31.5385
622.986	30.7314
625.129	29.6502
627.273	28.8091
629.416	30.8417
631.56	28.1911
633.703	26.7986
635.846	31.0528
637.99	34.6261
640.133	30.6415
642.276	32.7421
644.42	31.7706
646.563	29.2587
648.707	26.7071
650.85	35.17
652.993	40.194
655.137	36.4575
657.28	35.6473
659.424	29.3847
661.567	27.1725
663.71	35.6667
665.854	27.8358
667.997	36.513
670.14	36.6078
672.284	37.7376
674.427	31.5958
676.571	35.265
678.714	28.7122
680.857	40.9927
683.001	36.3369
685.144	34.9967
687.288	29.5843
689.431	32.2667
691.574	36.4881
693.718	34.5683
695.861	33.5521
698.004	35.0464
700.148	36.7546
702.291	33.3966
704.435	33.2707
706.578	32.369
708.721	33.361
710.865	37.6884
713.008	37.7258
715.151	31.1662
717.295	39.4411
719.438	37.6479
721.582	31.1596
723.725	37.841
725.868	38.5355
728.012	33.0922
730.155	34.8375
732.299	40.7353
734.442	40.3107
736.585	38.0361
738.729	38.0735
740.872	38.93
743.016	39.5494
745.159	38.6685
747.302	38.5446
749.446	42.7363
751.589	40.214
753.732	43.2412
755.876	46.0563
758.019	41.41
760.163	41.3042
762.306	35.7838
764.449	44
766.593	40.8392
768.736	41.784
770.88	40.9976
773.023	38.1504
775.166	42.7407
777.31	40.053
779.453	42.4189
781.596	39.7863
783.74	44.5214
785.883	43.5151
788.027	42.2976
790.17	43.2195
792.313	44.3969
794.457	40.74
796.6	43.6747
798.744	45.8997
800.887	43.7066
803.03	42.1382
805.174	46.7044
807.317	44.4364
809.46	44.4587
811.604	48.873
813.747	42.9422
815.891	46.2288
818.034	40.5361
820.177	46.5996
822.321	37.3201
824.464	48.6553
826.608	48.2606
828.751	47.9263
830.894	45.5907
833.038	53.1338
835.181	44.3833
837.324	41.1088
839.468	49.3532
841.611	46.5081
843.755	49.0326
845.898	52.5466
848.041	53.6156
850.185	59.1163
852.328	47.9478
854.472	43.3926
856.615	50.2258
858.758	55.1623
860.902	47.0709
863.045	48.6735
865.188	46.9015
867.332	45.0246
869.475	47.1404
871.619	52.4851
873.762	42.9039
875.905	44.7074
878.049	45.1563
880.192	40.008
882.336	41.545
884.479	42.6775
886.622	38.9863
888.766	39.0865
890.909	39.0669
893.052	36.3344
895.196	38.6324
897.339	36.1406
899.483	37.3384
901.626	38.0101
903.769	36.1917
905.913	37.3843
908.056	35.9956
910.2	37.8166
912.343	36.1037
914.486	37.8645
916.63	33.0458
918.773	35.1792
920.917	36.9594
923.06	32.5802
925.203	36.0801
927.347	34.6251
929.49	31.1546
931.633	35.1564
933.777	31.7598
935.92	32.1304
938.064	30.8503
940.207	36.1288
942.35	36.3758
944.494	29.1941
946.637	37.0844
948.781	31.6316
950.924	28.0377
953.067	31.5425
955.211	31.2968
957.354	35.8071
959.497	23.2837
961.641	31.8798
963.784	31.5076
965.928	30.6112
968.071	36.5641
970.214	34.9339
972.358	34.9759
974.501	36.4612
976.644	30.8371
978.788	38.1569
980.931	36.2515
983.075	35.9155
985.218	30.0336
987.361	37
989.505	42.6097
991.648	39.337
993.792	40.3814
995.935	30.7219
998.078	46.0617
1000.22	42.5975
1002.37	37.8905
1004.51	32.93
1006.65	35.8323
1008.8	34.0148
1010.94	39.0068
1013.08	37.3856
1015.23	33.9901
1017.37	33.9326
1019.51	42.2231
1021.66	38.6477
1023.8	40.8058
1025.94	43.8722
1028.09	42.2408
1030.23	42.5239
1032.37	39.3666
1034.52	40.0263
1036.66	43.6393
1038.8	45.2195
1040.95	40.1956
1043.09	43.5155
1045.23	42.9628
1047.38	39.9848
1049.52	47.6097
1051.66	45.1695
1053.81	43.8606
1055.95	42.7052
1058.09	42.5517
1060.24	44.0851
1062.38	45.2149
1064.52	45.4151
1066.67	49.3125
1068.81	46.6237
1070.95	52.6992
1073.1	44.6667
1075.24	43.6124
1077.38	48.7449
1079.53	44.405
1081.67	54.1951
1083.81	49.9551
1085.96	46.093
1088.1	51.7573
1090.24	54.3143
1092.39	48.9539
1094.53	53.0662
1096.67	49.6171
1098.82	56.5272
1100.96	49.486
1103.1	52.2865
1105.25	63.037
1107.39	45.7875
1109.53	54.1458
1111.68	48.7991
1113.82	57.9182
1115.96	58.7481
1118.11	56.3235
1120.25	49.4635
1122.39	63.4933
1124.54	52.0081
1126.68	58.2804
1128.82	62.1921
1130.97	58.4344
1133.11	55.912
1135.26	55.8768
1137.4	58.1729
1139.54	55.4027
1141.69	61.005
1143.83	61.943
1145.97	57.8729
1148.12	61.4697
1150.26	65.3566
1152.4	62.199
1154.55	60.7681
1156.69	59.1146
1158.83	67.9585
1160.98	64.7562
1163.12	69.8182
1165.26	66.6538
1167.41	70.2431
1169.55	74.3016
1171.69	67.5969
1173.84	68.4172
1175.98	70.047
1178.12	74.8179
1180.27	70.1098
1182.41	71.1008
1184.55	71.8583
1186.7	71.4955
1188.84	72.6483
1190.98	69.886
1193.13	70.4715
1195.27	75.7483
1197.41	75.9427
1199.56	70.0467
1201.7	79.0139
1203.84	84.9912
1205.99	78.8174
1208.13	71.5849
1210.27	71.2767
1212.42	74.5393
1214.56	80.8118
1216.7	80.8872
1218.85	83.8241
1220.99	80.9806
1223.13	78.7539
1225.28	85.2101
1227.42	77.9646
1229.56	85.2122
1231.71	92.0922
1233.85	81.0879
1235.99	84.4939
1238.14	90.5855
1240.28	80.7742
1242.42	85.4194
1244.57	97.0306
1246.71	92.6215
1248.85	95.3226
1251	97.1613
1253.14	103.637
1255.28	100.78
1257.43	104.62
1259.57	108.263
1261.71	103.639
1263.86	113.496
1266	107.361
1268.14	105.382
1270.29	108.182
1272.43	118.4
1274.58	122.538
1276.72	132.257
1278.86	138.319
1281.01	145.196
1283.15	129.524
1285.29	133.046
1287.44	137.103
1289.58	138.333
1291.72	148.629
1293.87	155.042
1296.01	150.718
1298.15	163.869
1300.3	164.795
1302.44	168.516
1304.58	179.656
1306.73	174.306
1308.87	187.315
1311.01	207.885
1313.16	201.487
1315.3	221.034
1317.44	225.246
1319.59	244.127
1321.73	239.207
1323.87	254.081
1326.02	261.931
1328.16	278.065
1330.3	286.74
1332.45	289
1334.59	309.833
1336.73	308.699
1338.88	319.018
1341.02	323.735
1343.16	330.398
1345.31	344.561
1347.45	343.223
1349.59	339.335
1351.74	345.633
1353.88	338.765
1356.02	335.578
1358.17	342.602
1360.31	321.249
1362.45	320.267
1364.6	309.92
1366.74	294.12
1368.88	284.201
1371.03	259.046
1373.17	277.031
1375.31	264.499
1377.46	241.751
1379.6	248.02
1381.74	236.87
1383.89	215.445
1386.03	208.374
1388.17	214.057
1390.32	213.27
1392.46	195.754
1394.6	192.417
1396.75	179.693
1398.89	182.998
1401.03	181.885
1403.18	173.069
1405.32	165.268
1407.46	164.032
1409.61	163.793
1411.75	152.969
1413.9	140.271
1416.04	144.951
1418.18	146.598
1420.33	135.273
1422.47	150.154
1424.61	127.988
1426.76	134.359
1428.9	143.531
1431.04	142.17
1433.19	136.972
1435.33	137.023
1437.47	126.29
1439.62	124.161
1441.76	128.652
1443.9	125.191
1446.05	134.776
1448.19	128.571
1450.33	131.269
1452.48	114.442
1454.62	129.846
1456.76	116.891
1458.91	122.818
1461.05	120.286
1463.19	117.791
1465.34	123.655
1467.48	123.461
1469.62	112.891
1471.77	118.322
1473.91	115.526
1476.05	123.412
1478.2	121.853
1480.34	124.804
1482.48	118.803
1484.63	115.905
1486.77	125.097
1488.91	120.874
1491.06	117.84
1493.2	115.364
1495.34	125.505
1497.49	121.856
1499.63	115.532
1501.77	115.839
1503.92	123.581
1506.06	123.388
1508.2	116.908
1510.35	117.791
1512.49	111.5
1514.63	118.576
1516.78	127.23
1518.92	128.31
1521.06	120.506
1523.21	130.825
1525.35	139.693
1527.49	130.698
1529.64	137.419
1531.78	124.476
1533.92	141.477
1536.07	140.545
1538.21	139.979
1540.35	146.189
1542.5	151.922
1544.64	146.662
1546.78	159.087
1548.93	157.143
1551.07	164.333
1553.22	191.512
1555.36	180.156
1557.5	199.048
1559.65	195.833
1561.79	195.839
1563.93	206.086
1566.08	224.346
1568.22	223.948
1570.36	236.138
1572.51	238.51
1574.65	244.958
1576.79	264.165
1578.94	270.821
1581.08	266.261
1583.22	283.945
1585.37	286.905
1587.51	291.486
1589.65	289.633
1591.8	292.077
1593.94	296.957
1596.08	298.027
1598.23	289.527
1600.37	294.415
1602.51	290.468
1604.66	283.005
1606.8	281.251
1608.94	277.036
1611.09	284.648
1613.23	272.936
1615.37	264.217
1617.52	265.029
1619.66	247.935
1621.8	251.917
1623.95	240.701
1626.09	227.242
1628.23	206.006
1630.38	209.994
1632.52	188.471
1634.66	185.706
1636.81	163.803
1638.95	145.656
1641.09	145.008
1643.24	135.49
1645.38	131.304
1647.52	118.923
1649.67	108.294
1651.81	98.6084
1653.95	99.2538
1656.1	86.5938
1658.24	85.0833
1660.38	77.8768
1662.53	73.0156
1664.67	73.274
1666.81	65.626
1668.96	66.2226
1671.1	57.2184
1673.24	55.4583
1675.39	50.8696
1677.53	49.4083
1679.67	52.6145
1681.82	41.3333
1683.96	48.4987
1686.1	47.3065
1688.25	43.4711
1690.39	40.3459
1692.54	42.9003
1694.68	28.6892
1696.82	37.257
1698.97	33.4012
1701.11	28.3507
1703.25	32.1852
1705.4	32.5979
1707.54	29.6667
1709.68	27.3628
1711.83	34.5376
1713.97	36.6512
1716.11	26.5526
1718.26	24.3333
1720.4	30.4292
1722.54	29.1822
1724.69	24.7194
1726.83	27.6291
1728.97	24.1528
1731.12	24.6146
1733.26	24.9433
1735.4	23.7003
1737.55	22.0586
1739.69	28.4643
1741.83	22.0914
1743.98	25.332
1746.12	22.437
1748.26	20.6389
1750.41	28.1714
1752.55	23.0591
1754.69	24
1756.84	14.6983
1758.98	22.3287
1761.12	24.5803
1763.27	20.3977
1765.41	24.7346
1767.55	24.5042
1769.7	25.0392
1771.84	18.4757
1773.98	22.4457
1776.13	22.0157
1778.27	24.6642
1780.41	19.9956
1782.56	19.889
1784.7	22.6096
1786.84	20.537
1788.99	19.8571
1791.13	19.9557
1793.27	21.604
1795.42	22.1751
1797.56	19.8235
1799.7	26.0341
1801.85	22.1267
1803.99	20.7006
1806.13	21.8285
1808.28	24.0623
1810.42	21.1207
1812.56	19.1702
1814.71	27.8824
1816.85	21.3333
1818.99	20.1429
1821.14	28.4761
1823.28	21.6432
1825.42	21.4291
1827.57	24.3356
1829.71	22.1525
1831.86	20.3333
1834	24.7975
1836.14	22.1885
1838.29	22.6883
1840.43	23.3057
1842.57	25.1188
1844.72	18.7729
1846.86	19.4956
1849	17.7251
1851.15	21.4753
1853.29	25.1361
1855.43	19.9108
1857.58	21.8808
1859.72	23.1825
1861.86	20.2789
1864.01	19
1866.15	22.216
1868.29	19.7152
1870.44	19.4808
1872.58	23.6959
1874.72	25.4744
1876.87	15.6687
1879.01	23.9228
1881.15	25.591
1883.3	19.3076
1885.44	23.1141
1887.58	22.4843
1889.73	19.8679
1891.87	19.0516
1894.01	19.3803
1896.16	19.5226
1898.3	22.3921
1900.44	18.1389
1902.59	18.1207
1904.73	20.8305
1906.87	18.4989
1909.02	22.4092
1911.16	19.3293
1913.3	20.4788
1915.45	19.9801
1917.59	19.0305
1919.73	20.9601
1921.88	21.5672
1924.02	22.6916
1926.16	21.9511
1928.31	17.819
1930.45	15.945
1932.59	23.2041
1934.74	19.6972
1936.88	23.836
1939.02	19.1345
1941.17	23.9365
1943.31	20.8099
1945.45	22.5475
1947.6	18.2754
1949.74	20.0361
1951.88	21
1954.03	17.9525
1956.17	24.0157
1958.31	14.4513
1960.46	18.9365
1962.6	23.8605
1964.74	22.8113
1966.89	21.9871
1969.03	24.0149
1971.18	21.7991
1973.32	21.1336
1975.46	24.319
1977.61	18.8514
1979.75	21.4422
1981.89	17.9086
1984.04	19.708
1986.18	19.014
1988.32	23.1547
1990.47	21.0086
1992.61	19.197
1994.75	20.6169
1996.9	23.7409
1999.04	22.2685
2001.18	20.6176
2003.33	19.0155
2005.47	20.619
2007.61	20.5552
2009.76	21.1602
2011.9	22.2079
2014.04	20.3231
2016.19	18.6683
2018.33	19.9919
2020.47	22.1114
2022.62	19.9753
2024.76	20.8825
2026.9	21.27
2029.05	23.6581
2031.19	24.411
2033.33	17.9091
2035.48	20.7129
2037.62	20.2869
2039.76	25.8688
2041.91	23.3203
2044.05	20.4398
2046.19	22.3689
2048.34	21.986
2050.48	26.6823
2052.62	25.3205
2054.77	25.6687
2056.91	22.3843
2059.05	20.3622
2061.2	16.6499
2063.34	21.9706
2065.48	20.0492
2067.63	21.5043
2069.77	21.7785
2071.91	21.6369
2074.06	22.6551
2076.2	23.0315
2078.34	16.5129
2080.49	18.7169
2082.63	18.9277
2084.77	19.7547
2086.92	24.7903
2089.06	20.5641
2091.2	21.6061
2093.35	20.7061
2095.49	24.84
2097.63	23.1085
2099.78	19.4332
2101.92	23.7031
2104.06	26.9994
2106.21	21.55
2108.35	21.0579
2110.5	23.9432
2112.64	18.8112
2114.78	21.4886
2116.93	25.5479
2119.07	24.3058
2121.21	24.7808
2123.36	28.3496
2125.5	21.2677
2127.64	20.1913
2129.79	20.6261
2131.93	19.7282
2134.07	21.6028
2136.22	21.3355
2138.36	17.0285
2140.5	20.0616
2142.65	19.6667
2144.79	25.7322
2146.93	20.0165
2149.08	15.0736
2151.22	21.4439
2153.36	22.6588
2155.51	20.9139
2157.65	19.945
2159.79	23.8219
2161.94	22.2513
2164.08	20.5603
2166.22	21.7384
2168.37	21.1052
2170.51	20.6902
2172.65	26.3617
2174.8	23.8997
2176.94	23.9612
2179.08	16.6667
2181.23	24.3929
2183.37	19.3684
2185.51	21.68
2187.66	22
2189.8	27.6207
2191.94	19.3687
2194.09	20.1061
2196.23	22.2139
2198.37	26.0149
2200.52	19.4593
2202.66	27.9279
2204.8	29.8237
2206.95	25.1024
2209.09	21.242
2211.23	20.4746
2213.38	21.3509
2215.52	22.0619
2217.66	25.1134
2219.81	18.396
2221.95	22.4312
2224.09	23.4996
2226.24	21.1321
2228.38	20.8995
2230.52	24.1939
2232.67	22.2676
2234.81	23.117
2236.95	18.9716
2239.1	20.6815
2241.24	22.1591
2243.39	22.8974
2245.53	21.094
2247.67	22.0932
2249.82	20.7738
2251.96	25.0862
2254.1	24.6592
2256.25	16.989
2258.39	19.2212
2260.53	22.2214
2262.68	19.8917
2264.82	20.9136
2266.96	24.9448
2269.11	22.8242
2271.25	26.2975
2273.39	22.088
2275.54	28.6511
2277.68	22.813
2279.82	20.032
2281.97	24.9634
2284.11	24.7469
2286.25	23.0882
2288.4	25.3333
2290.54	32.8417
2292.68	23.3343
2294.83	24.6667
2296.97	22.5266
2299.11	22.8752
2301.26	22.6208
2303.4	25.212
2305.54	22.1748
2307.69	20.1455
2309.83	20.2386
2311.97	23.9965
2314.12	24.2815
2316.26	22.3361
2318.4	23.7883
2320.55	20.8586
2322.69	28.953
2324.83	22.0586
2326.98	29.3703
2329.12	35.9678
2331.26	32.1849
2333.41	24.6667
2335.55	26.8605
2337.69	24.9097
2339.84	25.9016
2341.98	23.2069
2344.12	24.1052
2346.27	26.5739
2348.41	22.5698
2350.55	26.8547
2352.7	23.9086
2354.84	24.014
2356.98	27.7003
2359.13	23.4591
2361.27	27.9834
2363.41	28.1123
2365.56	23.7903
2367.7	24.311
2369.84	27.2325
2371.99	24.05
2374.13	24.7047
2376.27	26.0783
2378.42	24.607
2380.56	31.8545
2382.71	26.8118
2384.85	24.3333
2386.99	32.5972
2389.14	22.529
2391.28	30.8566
2393.42	28.1233
2395.57	27.7637
2397.71	33.2619
2399.85	27.201
2402	30.3333
2404.14	27.4151
2406.28	27.1284
2408.43	28.7091
2410.57	32.7803
2412.71	27.7695
2414.86	29.1547
2417	28.7426
2419.14	37.222
2421.29	26.5857
2423.43	35.0146
2425.57	28.9222
2427.72	28.1809
2429.86	28.8301
2432	33.054
2434.15	33.2207
2436.29	37.6054
2438.43	38.3764
2440.58	31.8687
2442.72	40.6017
2444.86	31.8416
2447.01	33.6667
2449.15	31.0491
2451.29	36.5845
2453.44	30.0269
2455.58	35.4805
2457.72	31.8297
2459.87	32.4516
2462.01	31.4498
2464.15	34.4185
2466.3	32.619
2468.44	36.1357
2470.58	34.3255
2472.73	34.0743
2474.87	36.2594
2477.01	37.5209
2479.16	32.8737
2481.3	30.9008
2483.44	32.5983
2485.59	32.4115
2487.73	29.753
2489.87	32.7041
2492.02	37.2104
2494.16	34.0329
2496.3	36.3452
2498.45	36.8047
2500.59	36.7031
2502.73	38.8533
2504.88	35.4051
2507.02	29.8526
2509.16	31.5131
2511.31	33.0478
2513.45	42.4047
2515.59	38.8372
2517.74	38.1887
2519.88	39.2973
2522.03	37.6163
2524.17	33.5717
2526.31	38.803
2528.46	35.084
2530.6	38.2246
2532.74	40.194
2534.89	40.5662
2537.03	35.031
2539.17	43.0268
2541.32	39.4366
2543.46	40.6863
2545.6	34.8825
2547.75	37.3133
2549.89	40.4997
2552.03	38.2875
2554.18	40.7934
2556.32	41.0843
2558.46	39.2551
2560.61	40.7145
2562.75	36.9932
2564.89	43.8577
2567.04	38.5823
2569.18	42.327
2571.32	39.7869
2573.47	44.7286
2575.61	44.7538
2577.75	42.202
2579.9	37.0178
2582.04	41
2584.18	44.7
2586.33	42.3511
2588.47	39.4216
2590.61	43.4168
2592.76	43.8536
2594.9	50.2135
2597.04	48.548
2599.19	48.7005
2601.33	46.1875
2603.47	49.1359
2605.62	52.8855
2607.76	48.5185
2609.9	55.3838
2612.05	49.5982
2614.19	49.4677
2616.33	52.7893
2618.48	55.3349
2620.62	62.1045
2622.76	51.6757
2624.91	56.2129
2627.05	55.6648
2629.19	67.2545
2631.34	64.5585
2633.48	64.3836
2635.62	63.9792
2637.77	63.1462
2639.91	70.7988
2642.05	65.6286
2644.2	69.6957
2646.34	75.3669
2648.48	76.0434
2650.63	72.5967
2652.77	73.8306
2654.92	77.7562
2657.06	76.5233
2659.2	80.0449
2661.35	87.3359
2663.49	87.0854
2665.63	84.565
2667.78	91.7302
2669.92	93.1673
2672.06	97.3543
2674.21	93.2155
2676.35	92.0692
2678.49	94.521
2680.64	96.6396
2682.78	92.5804
2684.92	96.1191
2687.07	105.293
2689.21	106.731
2691.35	96.521
2693.5	102.493
2695.64	101.516
2697.78	103.837
2699.93	104.877
2702.07	101.761
2704.21	100.914
2706.36	103.314
2708.5	102.037
2710.64	107.156
2712.79	98.0841
2714.93	90.6107
2717.07	95.5352
2719.22	95.5151
2721.36	91.3251
2723.5	90.5241
2725.65	84.4742
2727.79	94.7169
2729.93	86.6182
2732.08	84.6693
2734.22	80.6835
2736.36	76.0439
2738.51	78.1516
2740.65	77.798
2742.79	69.6278
2744.94	71.4608
2747.08	76.5541
2749.22	72.572
2751.37	71.7971
2753.51	69.9766
2755.65	67.6183
2757.8	65.8584
2759.94	64.2367
2762.08	61.1913
2764.23	59.9285
2766.37	59.0498
2768.51	58.5333
2770.66	57.0708
2772.8	61.2182
2774.94	50.9089
2777.09	57.0983
2779.23	53.2555
2781.37	52.4141
2783.52	49.1166
2785.66	53.4586
2787.8	57.1086
2789.95	51.4372
2792.09	55.0631
2794.24	51.4851
2796.38	50.8374
2798.52	51.1769
2800.67	56.6744
2802.81	52.4
2804.95	53.2739
2807.1	46.528
2809.24	48.3528
2811.38	54.4256
2813.53	47.7568
2815.67	43.581
2817.81	45.4538
2819.96	48.3438
2822.1	50.1334
2824.24	52.0445
2826.39	48.611
2828.53	41.8763
2830.67	50.5247
2832.82	47.5367
2834.96	50.7721
2837.1	44.8751
2839.25	46.9201
2841.39	50.4051
2843.53	48.5437
2845.68	50.9089
2847.82	46.4429
2849.96	48.8232
2852.11	54.5704
2854.25	51.819
2856.39	49.0214
2858.54	49.9361
2860.68	47.1954
2862.82	42.2012
2864.97	48.4061
2867.11	53.196
2869.25	52.4589
2871.4	50.9395
2873.54	49.6557
2875.68	50.8613
2877.83	51.9651
2879.97	51.149
2882.11	55.9309
2884.26	52.1451
2886.4	46.3879
2888.54	51.1806
2890.69	51.6999
2892.83	47.879
2894.97	47.8942
2897.12	42.9856
2899.26	51.7992
2901.4	61.017
2903.55	54.635
2905.69	48.2087
2907.83	51.9442
2909.98	45.8099
2912.12	52.4479
2914.26	50.5274
2916.41	55.7922
2918.55	51.3752
2920.69	51.484
2922.84	54.9783
2924.98	61.9818
2927.125	55.4759
2929.27	62.6367
2931.41	54.6283
2933.56	60.6119
2935.7	53.9804
2937.84	56.6527
2939.99	57.7281
2942.13	61.8432
2944.27	53.9967
2946.42	58.2739
2948.56	57.5573
2950.7	60.1182
2952.85	55.3218
2954.99	57.1377
2957.13	53.194
2959.28	57.0817
2961.42	55.2318
2963.56	53.251
2965.71	55.0694
2967.85	53.7992
2969.99	52.3971
2972.14	56.2715
2974.28	47.9008
2976.42	49.4311
2978.57	41.2661
2980.71	45.3997
2982.85	46.1865
2985	49.8846
2987.14	48.7251
2989.28	43.1927
2991.43	45.0149
2993.57	42.9021
2995.71	44.4034
2997.86	43.0185
3000	37.1431