File: Example Data/Raman/CNT - TIM/Raytheon/Al foil/2010/03-29-10/Al - 03-29-10 - B3_4.txt
100	63.9484
102.143	73.4626
104.287	63.6451
106.43	69.1996
108.574	93.8415
110.717	72.3709
112.86	62.1919
115.004	63.5382
117.147	80.2308
119.29	72.3508
121.434	61.0391
123.577	67.769
125.721	71.834
127.864	66.2981
130.007	62.3635
132.151	62.6882
134.294	55.2914
136.438	61.3329
138.581	58.7464
140.724	65.516
142.868	62.611
145.011	57.5641
147.154	57.9965
149.298	61.1058
151.441	56.4972
153.585	57.3313
155.728	58.4317
157.871	57.8705
160.015	50.6349
162.158	56.6208
164.302	61.9348
166.445	54.8119
168.588	57.0622
170.732	58.9382
172.875	56.9174
175.018	58.3832
177.162	58.0533
179.305	49.6372
181.449	52.0501
183.592	52.4582
185.735	50.8228
187.879	54.638
190.022	53.1617
192.166	54.766
194.309	55.62
196.452	51.7065
198.596	57.6851
200.739	49.1295
202.882	51.7907
205.026	59.1909
207.169	54.7538
209.313	52.1294
211.456	59.0321
213.599	57.2024
215.743	53.6124
217.886	53.7533
220.03	53.8428
222.173	59.0148
224.316	52.4964
226.46	57.6558
228.603	54.3531
230.746	49.7724
232.89	57.2041
235.033	49.9418
237.177	53.9182
239.32	49.8019
241.463	52.3351
243.607	54.0342
245.75	59.4577
247.894	48.2544
250.037	54.6651
252.18	52.9674
254.324	52.9234
256.467	55.4684
258.611	44.1994
260.754	51.818
262.897	48.2213
265.041	44.7964
267.184	55.3846
269.327	52.0605
271.471	52.7168
273.614	52.8577
275.758	54.0576
277.901	48.7259
280.044	54.7727
282.188	47.6464
284.331	52.7916
286.474	53.511
288.618	54.0791
290.761	56.0441
292.905	54.597
295.048	50.8656
297.191	51.4093
299.335	54.1965
301.478	44.5772
303.622	48.6035
305.765	50.8042
307.908	51.6794
310.052	49.6225
312.195	47.7801
314.339	50.5221
316.482	49.1302
318.625	49.0911
320.769	48.9874
322.912	50.9591
325.055	52.9646
327.199	53.1496
329.342	50.9686
331.486	44.4324
333.629	41.0178
335.772	46.8559
337.916	47.0667
340.059	54.1553
342.203	51.511
344.346	48.3824
346.489	52.9667
348.633	49.0405
350.776	53.2892
352.919	48.7901
355.063	50.4531
357.206	49.6795
359.35	48.6184
361.493	47.8131
363.636	45.7064
365.78	52.298
367.923	44.959
370.067	48.0542
372.21	43.6924
374.353	44.8378
376.497	47.9541
378.64	43.0101
380.783	46.6715
382.927	38.6971
385.07	44.7236
387.214	44.3729
389.357	41.8542
391.5	43.8657
393.644	42.4387
395.787	40.0375
397.931	45.4511
400.074	49.9297
402.217	43.2319
404.361	45.3607
406.504	43.6407
408.647	41.4148
410.791	44.7923
412.934	46.3168
415.078	49.3202
417.221	41.9995
419.364	44.8199
421.508	45.3613
423.651	44.4175
425.795	40.4775
427.938	48.8755
430.081	48.3526
432.225	45.4785
434.368	49.6596
436.511	46.1935
438.655	46.194
440.798	45.506
442.942	43.4627
445.085	42.0995
447.228	43.2432
449.372	39.8395
451.515	44.3718
453.659	47.6394
455.802	46.8898
457.945	42.1402
460.089	39.8565
462.232	36.2151
464.375	44.152
466.519	37.6267
468.662	38.0914
470.806	41.3333
472.949	44.0749
475.092	40.6288
477.236	40.1674
479.379	46.1683
481.523	41.8009
483.666	41.8643
485.809	41.1207
487.953	40.0285
490.096	37.0636
492.239	37.7987
494.383	38.4701
496.526	38.6667
498.67	36.5327
500.813	37.1726
502.956	38.3165
505.1	42.7807
507.243	35.3536
509.387	36.1398
511.53	37.7815
513.673	37.5927
515.817	33.4136
517.96	36.3819
520.103	38.5991
522.247	40.2531
524.39	39.0202
526.534	36.2335
528.677	35.7749
530.82	39.4155
532.964	36.0773
535.107	40.1355
537.251	38.2692
539.394	39.4696
541.537	36.9507
543.681	35.6219
545.824	37.0181
547.967	32.7972
550.111	27.6096
552.254	37.0824
554.398	44.3762
556.541	40.8648
558.684	40.8507
560.828	33.4121
562.971	33.6967
565.115	37.5701
567.258	40.0178
569.401	40.6002
571.545	41.5854
573.688	39.0327
575.831	38.0595
577.975	35.5054
580.118	39.2949
582.262	38.3522
584.405	37.3802
586.548	35.8262
588.692	38.602
590.835	42.6046
592.979	35.6667
595.122	35.158
597.265	43.1545
599.409	41.7245
601.552	45
603.695	43.2984
605.839	39.9603
607.982	44.7373
610.126	44.7179
612.269	42.3968
614.412	42.4963
616.556	38.3637
618.699	40.4147
620.843	38.6065
622.986	44.3191
625.129	38.6026
627.273	35.7468
629.416	43.1583
631.56	40.5859
633.703	44.0032
635.846	45.4372
637.99	43.7351
640.133	46.1709
642.276	41.6375
644.42	41.6883
646.563	45.4509
648.707	48.2576
650.85	43.8179
652.993	46.8196
655.137	45.3188
657.28	48.0968
659.424	46.1016
661.567	44.9312
663.71	40.146
665.854	48.5008
667.997	45.7841
670.14	47.0504
672.284	42.6001
674.427	42.4685
676.571	41.1865
678.714	42.326
680.857	42.3242
683.001	44.5568
685.144	45.7169
687.288	46.5334
689.431	42.7638
691.574	42.0847
693.718	50.1311
695.861	40.8068
698.004	44.6136
700.148	45.9035
702.291	44.4937
704.435	52.2318
706.578	46.4389
708.721	47.3132
710.865	45.5266
713.008	45.9531
715.151	45.9501
717.295	45.7436
719.438	50.3344
721.582	52.6714
723.725	48.5444
725.868	49.2463
728.012	48.1634
730.155	54.5016
732.299	41.8235
734.442	52.0823
736.585	56.2649
738.729	53.147
740.872	50.3203
743.016	47.8642
745.159	55.986
747.302	45.7624
749.446	54.2085
751.589	52.607
753.732	51.087
755.876	51.0798
758.019	57.9701
760.163	48.3398
762.306	61.1193
764.449	52.2993
766.593	56.5137
768.736	60.7392
770.88	57.5483
773.023	55.3396
775.166	57.7548
777.31	56.4697
779.453	49.9421
781.596	48.7829
783.74	61.7951
785.883	58.8533
788.027	64.0012
790.17	62.2947
792.313	53.4036
794.457	56.6761
796.6	54.9754
798.744	55.7501
800.887	64.9089
803.03	55.252
805.174	53.2813
807.317	56.5395
809.46	63.3133
811.604	58.1457
813.747	59.0564
815.891	52.9804
818.034	59.0289
820.177	61.2618
822.321	61.1316
824.464	60.6186
826.608	65.2066
828.751	53.4732
830.894	60.9346
833.038	63.1669
835.181	60.762
837.324	61.8634
839.468	54.4878
841.611	57.0862
843.755	58.4691
845.898	61.9877
848.041	62.9332
850.185	63.4944
852.328	65.5574
854.472	59.5592
856.615	61.5045
858.758	60.5428
860.902	61.9593
863.045	54.3469
865.188	55.7722
867.332	57.1902
869.475	56.0441
871.619	63.2248
873.762	54.5024
875.905	54.6225
878.049	59.585
880.192	51.4189
882.336	55.5341
884.479	49.6524
886.622	56.7187
888.766	49.5274
890.909	51.5889
893.052	50.3234
895.196	52.0798
897.339	51.282
899.483	45.8941
901.626	50.4436
903.769	51.1152
905.913	51.2214
908.056	53.5589
910.2	52.5725
912.343	47.7983
914.486	46.8798
916.63	49.218
918.773	44.5635
920.917	47.1991
923.06	50.9246
925.203	48.579
927.347	48.1068
929.49	45.6849
931.633	50.7721
933.777	44.2478
935.92	47.1361
938.064	47.7602
940.207	47.1915
942.35	41.8646
944.494	46.5351
946.637	48.1099
948.781	44.581
950.924	44.2395
953.067	50.2724
955.211	45.0323
957.354	43.0553
959.497	47.4981
961.641	41.2635
963.784	44.7784
965.928	46.9169
968.071	42.0165
970.214	40.7521
972.358	43.4312
974.501	49.6029
976.644	44.7347
978.788	46.7242
980.931	52.1654
983.075	47.1487
985.218	50.9412
987.361	50.5978
989.505	55.3089
991.648	49.3993
993.792	55.2239
995.935	52.0082
998.078	50.0819
1000.22	52.1933
1002.37	46.3247
1004.51	47.5434
1006.65	53.6547
1008.8	55.1363
1010.94	51.726
1013.08	50.8719
1015.23	52.451
1017.37	53.8368
1019.51	61.6043
1021.66	54.7651
1023.8	58.4848
1025.94	58.5389
1028.09	58.0821
1030.23	57.0692
1032.37	60.3714
1034.52	60.6889
1036.66	66.455
1038.8	59.8779
1040.95	59.9983
1043.09	56.9408
1045.23	65.5251
1047.38	64.6667
1049.52	58.6707
1051.66	61.3733
1053.81	64.9788
1055.95	66.7052
1058.09	61.223
1060.24	62.705
1062.38	63.3689
1064.52	64.1054
1066.67	66.4217
1068.81	66.5246
1070.95	71.2927
1073.1	61.8032
1075.24	70.1735
1077.38	66.7507
1079.53	75.2315
1081.67	76.7582
1083.81	68.4054
1085.96	69.4535
1088.1	68.168
1090.24	75.8189
1092.39	72.6188
1094.53	81.0182
1096.67	82.7019
1098.82	75.4074
1100.96	78.0792
1103.1	74.7514
1105.25	73.3135
1107.39	80.9247
1109.53	78.5966
1111.68	80
1113.82	79.6792
1115.96	85.9249
1118.11	85.1656
1120.25	85.2711
1122.39	93.293
1124.54	91.0163
1126.68	89.5579
1128.82	87.5928
1130.97	95.0236
1133.11	95.4863
1135.26	92.2464
1137.4	94.2576
1139.54	103.18
1141.69	98.7794
1143.83	95.4843
1145.97	100.526
1148.12	107.612
1150.26	110.294
1152.4	104.227
1154.55	110.638
1156.69	108.168
1158.83	115.003
1160.98	124.006
1163.12	119.443
1165.26	113.066
1167.41	115.652
1169.55	124.55
1171.69	114.504
1173.84	123.074
1175.98	124.719
1178.12	118.514
1180.27	120.556
1182.41	125.245
1184.55	124.073
1186.7	121.82
1188.84	134.648
1190.98	128.465
1193.13	139.079
1195.27	131.916
1197.41	126.391
1199.56	131.008
1201.7	129.42
1203.84	140.864
1205.99	145.549
1208.13	132.887
1210.27	142.062
1212.42	132.431
1214.56	137.473
1216.7	146.805
1218.85	136.094
1220.99	147.038
1223.13	150.076
1225.28	149.647
1227.42	158.233
1229.56	138.589
1231.71	157.731
1233.85	166.224
1235.99	154.198
1238.14	163.586
1240.28	160.524
1242.42	162.818
1244.57	173.552
1246.71	173.445
1248.85	171.147
1251	180.47
1253.14	177.072
1255.28	181.976
1257.43	179.891
1259.57	178.087
1261.71	196.866
1263.86	190.789
1266	194.028
1268.14	204.321
1270.29	201.341
1272.43	206.743
1274.58	215.035
1276.72	205.42
1278.86	216.321
1281.01	219.877
1283.15	241.023
1285.29	231.673
1287.44	235.33
1289.58	239.927
1291.72	240.848
1293.87	247.266
1296.01	249.936
1298.15	263.296
1300.3	286.948
1302.44	275.368
1304.58	276.359
1306.73	283.868
1308.87	298.206
1311.01	313.627
1313.16	321.262
1315.3	319.559
1317.44	329.782
1319.59	347.778
1321.73	359.122
1323.87	349.091
1326.02	356.233
1328.16	372.978
1330.3	375.651
1332.45	386.495
1334.59	387.299
1336.73	396.688
1338.88	387.303
1341.02	401.988
1343.16	393.819
1345.31	405.649
1347.45	410.992
1349.59	397.006
1351.74	389.609
1353.88	398.909
1356.02	400.104
1358.17	392.973
1360.31	376.565
1362.45	381.253
1364.6	363.929
1366.74	376.661
1368.88	356.926
1371.03	359.768
1373.17	340.02
1375.31	339.164
1377.46	330.401
1379.6	316.345
1381.74	314.794
1383.89	288.548
1386.03	295.073
1388.17	288.149
1390.32	282.759
1392.46	274.662
1394.6	280.615
1396.75	274.638
1398.89	270.361
1401.03	261.471
1403.18	251.684
1405.32	241.033
1407.46	250.924
1409.61	234.908
1411.75	233.432
1413.9	234.184
1416.04	224.165
1418.18	226.67
1420.33	217.606
1422.47	222.18
1424.61	230.215
1426.76	219.367
1428.9	214.306
1431.04	208.985
1433.19	216.909
1435.33	206.799
1437.47	211.087
1439.62	192.388
1441.76	201.728
1443.9	195.051
1446.05	205.668
1448.19	195.614
1450.33	197.311
1452.48	192.329
1454.62	202.665
1456.76	191.496
1458.91	187.676
1461.05	197.37
1463.19	195.324
1465.34	194.04
1467.48	185.387
1469.62	192.925
1471.77	194.503
1473.91	173.723
1476.05	193.639
1478.2	185.861
1480.34	190.843
1482.48	184.517
1484.63	188.958
1486.77	185.172
1488.91	181.914
1491.06	187.176
1493.2	182.071
1495.34	197.046
1497.49	195.692
1499.63	180.776
1501.77	192.469
1503.92	188.21
1506.06	187.699
1508.2	191.354
1510.35	187.488
1512.49	189.371
1514.63	199.294
1516.78	198.583
1518.92	184.413
1521.06	199.779
1523.21	190.957
1525.35	190.872
1527.49	200.312
1529.64	190.011
1531.78	196.516
1533.92	207.64
1536.07	201.32
1538.21	211.735
1540.35	215.32
1542.5	217.9
1544.64	214.841
1546.78	205.984
1548.93	225.031
1551.07	227.778
1553.22	244.792
1555.36	240.481
1557.5	236.096
1559.65	242.278
1561.79	255.476
1563.93	266.973
1566.08	270.692
1568.22	275.341
1570.36	288.673
1572.51	296.577
1574.65	296.238
1576.79	312.585
1578.94	310.59
1581.08	335.433
1583.22	345.701
1585.37	353.28
1587.51	363.138
1589.65	363.512
1591.8	384.548
1593.94	388.463
1596.08	391.704
1598.23	398.86
1600.37	416.251
1602.51	393.307
1604.66	406.378
1606.8	407.921
1608.94	392.952
1611.09	389.036
1613.23	382.164
1615.37	373.724
1617.52	352.741
1619.66	335.983
1621.8	314.811
1623.95	301.462
1626.09	286.837
1628.23	255.937
1630.38	244.669
1632.52	236.359
1634.66	220.981
1636.81	199.78
1638.95	195.85
1641.09	189.569
1643.24	165.784
1645.38	159.885
1647.52	148.423
1649.67	138.275
1651.81	132.751
1653.95	135.443
1656.1	123.831
1658.24	115.407
1660.38	100.403
1662.53	106.97
1664.67	98.5471
1666.81	87.5059
1668.96	84.6811
1671.1	80.6034
1673.24	81.8194
1675.39	73.3184
1677.53	71.3917
1679.67	69.8671
1681.82	64.5379
1683.96	58.2739
1686.1	55.4825
1688.25	61.2946
1690.39	55.5031
1692.54	49.4397
1694.68	48.0028
1696.82	56.8429
1698.97	41.8411
1701.11	49.0849
1703.25	45.0556
1705.4	51.2432
1707.54	48.7894
1709.68	43.0589
1711.83	41.1291
1713.97	48.2675
1716.11	39.4752
1718.26	36.2948
1720.4	35.0396
1722.54	35.5952
1724.69	33.035
1726.83	35.2133
1728.97	34.162
1731.12	35.2291
1733.26	34.9433
1735.4	29.7791
1737.55	36.7989
1739.69	37.6332
1741.83	32.7867
1743.98	40.2497
1746.12	34.4967
1748.26	35.511
1750.41	34.9838
1752.55	34.2032
1754.69	34.8799
1756.84	33.3276
1758.98	34.6575
1761.12	33.8381
1763.27	29.9654
1765.41	29.6274
1767.55	30.6667
1769.7	31.8826
1771.84	31.6666
1773.98	30.7267
1776.13	28.4163
1778.27	29.8528
1780.41	30.4891
1782.56	30.7607
1784.7	32.6667
1786.84	34.1758
1788.99	30.254
1791.13	29.1594
1793.27	26.9317
1795.42	31.5028
1797.56	28.7852
1799.7	34.5779
1801.85	26.7227
1803.99	27.6326
1806.13	28.6875
1808.28	29.5803
1810.42	30.8583
1812.56	27.8298
1814.71	33.7259
1816.85	33.2226
1818.99	29.0743
1821.14	27.2501
1823.28	28.7559
1825.42	31.1453
1827.57	28.0685
1829.71	23.0663
1831.86	30.2287
1834	27.8349
1836.14	29.8276
1838.29	32.6342
1840.43	28.5872
1842.57	33.4885
1844.72	29.9873
1846.86	25.5131
1849	26.7951
1851.15	29.0849
1853.29	33.0375
1855.43	32.7325
1857.58	31.1906
1859.72	29.3631
1861.86	28.725
1864.01	26.5602
1866.15	28.9213
1868.29	27.3888
1870.44	31.7137
1872.58	28.0878
1874.72	31.4163
1876.87	26.004
1879.01	27.5837
1881.15	29.0029
1883.3	29.4091
1885.44	34.0011
1887.58	31.8491
1889.73	30.9748
1891.87	26.5714
1894.01	26.7371
1896.16	31.4657
1898.3	28.5434
1900.44	32.6883
1902.59	27.1711
1904.73	29.6204
1906.87	35.9172
1909.02	29.1087
1911.16	27.1187
1913.3	26.3942
1915.45	29.9801
1917.59	26.8134
1919.73	29.4
1921.88	28.1123
1924.02	24.427
1926.16	28.4119
1928.31	25.1101
1930.45	25.6483
1932.59	26.8925
1934.74	26.6887
1936.88	26.9751
1939.02	29.7283
1941.17	28.0106
1943.31	26.6667
1945.45	30.9976
1947.6	30.471
1949.74	28.5792
1951.88	27.6458
1954.03	29.488
1956.17	32.2855
1958.31	24.1957
1960.46	29.8774
1962.6	27.3797
1964.74	29.8755
1966.89	33.372
1969.03	28.5097
1971.18	25.2649
1973.32	19.467
1975.46	27.911
1977.61	29.94
1979.75	28.3266
1981.89	25.3638
1984.04	31.7506
1986.18	25.3949
1988.32	29.0526
1990.47	36.1085
1992.61	26.0454
1994.75	28.8723
1996.9	30.7409
1999.04	28.9907
2001.18	23.4419
2003.33	31.8991
2005.47	30.1714
2007.61	28.2252
2009.76	27.5009
2011.9	30.4545
2014.04	25.1412
2016.19	29.9934
2018.33	26.6967
2020.47	28.1107
2022.62	27.5014
2024.76	29.5778
2026.9	30.8787
2029.05	28.5985
2031.19	38.3082
2033.33	26.6869
2035.48	27.7291
2037.62	31.2735
2039.76	25.8241
2041.91	30.5849
2044.05	28.8185
2046.19	27.3689
2048.34	28.46
2050.48	28.7167
2052.62	30.3577
2054.77	31.9242
2056.91	30.2588
2059.05	27.0987
2061.2	26.6896
2063.34	29.6667
2065.48	30.3921
2067.63	24.883
2069.77	25.5157
2071.91	29.1572
2074.06	31.6206
2076.2	31.7988
2078.34	29.4485
2080.49	28.9497
2082.63	26.3509
2084.77	25.912
2086.92	23.7654
2089.06	24.7948
2091.2	28.4746
2093.35	31.5496
2095.49	29.4399
2097.63	26.9068
2099.78	28.3382
2101.92	31.7074
2104.06	26.3336
2106.21	28.3082
2108.35	26.4601
2110.5	33.3848
2112.64	25.2507
2114.78	30.6655
2116.93	33.4521
2119.07	25.7522
2121.21	32.5709
2123.36	25.7512
2125.5	29.5645
2127.64	32.6111
2129.79	33.6603
2131.93	27.2662
2134.07	28.1611
2136.22	28.665
2138.36	27.0988
2140.5	33.5835
2142.65	31.0945
2144.79	28.4547
2146.93	29.3878
2149.08	28.4496
2151.22	29.193
2153.36	29.6824
2155.51	23.3333
2157.65	25.3463
2159.79	25.7125
2161.94	27.453
2164.08	30.1401
2166.22	29.7559
2168.37	33.0007
2170.51	29.6432
2172.65	26.5366
2174.8	29.1942
2176.94	30.5603
2179.08	29.0968
2181.23	28.507
2183.37	29.8639
2185.51	36.8
2187.66	31.2889
2189.8	25.8277
2191.94	33.0353
2194.09	25.1462
2196.23	28.1741
2198.37	27.1045
2200.52	30.644
2202.66	30.2094
2204.8	25.717
2206.95	35.0991
2209.09	34.5036
2211.23	31.4217
2213.38	32.1889
2215.52	32.1991
2217.66	32.9513
2219.81	29.2244
2221.95	29.4394
2224.09	30.3534
2226.24	29.2173
2228.38	30.9032
2230.52	30.2504
2232.67	27.1157
2234.81	31.607
2236.95	30.4315
2239.1	30.4017
2241.24	33.227
2243.39	31.7692
2245.53	31.1939
2247.67	33.3691
2249.82	31.3645
2251.96	29.1762
2254.1	29.7884
2256.25	31.4927
2258.39	28.5765
2260.53	30.3702
2262.68	30.3638
2264.82	30.0779
2266.96	27.3122
2269.11	34.1126
2271.25	29.6573
2273.39	28.096
2275.54	37.501
2277.68	30.0183
2279.82	32.3424
2281.97	31.5892
2284.11	34.0628
2286.25	35.7339
2288.4	35.6969
2290.54	32.7659
2292.68	33.1183
2294.83	31.3898
2296.97	27
2299.11	31.0841
2301.26	30.2735
2303.4	30.3421
2305.54	27.6631
2307.69	29.1132
2309.83	34.6494
2311.97	32.3345
2314.12	32.3765
2316.26	30.4011
2318.4	30.9629
2320.55	30.0506
2322.69	34.5769
2324.83	34.6214
2326.98	36.9234
2329.12	46.6228
2331.26	49.5011
2333.41	32.7161
2335.55	32.3451
2337.69	33.3957
2339.84	30.8434
2341.98	34.5229
2344.12	40.5615
2346.27	32.0689
2348.41	29.9516
2350.55	25.3187
2352.7	32.7648
2354.84	31.3944
2356.98	35.6796
2359.13	33.21
2361.27	33.2928
2363.41	36.6977
2365.56	38.2164
2367.7	33.696
2369.84	35.5535
2371.99	32.3833
2374.13	35.0625
2376.27	39.1251
2378.42	35
2380.56	31.8424
2382.71	35.8119
2384.85	35.492
2386.99	38.7081
2389.14	29.5725
2391.28	40.095
2393.42	34.21
2395.57	35.082
2397.71	40.7344
2399.85	36.6529
2402	38.0065
2404.14	37.412
2406.28	35.1732
2408.43	44.1914
2410.57	35.5028
2412.71	37.1477
2414.86	33.2924
2417	36.7391
2419.14	39.6928
2421.29	41.6822
2423.43	41.2941
2425.57	35.2776
2427.72	42.8817
2429.86	43.1847
2432	44.46
2434.15	44.9429
2436.29	50.8942
2438.43	41.3333
2440.58	42.2154
2442.72	39.7011
2444.86	47.8094
2447.01	35.446
2449.15	45.5579
2451.29	45.1577
2453.44	48.9131
2455.58	43.7896
2457.72	45.9362
2459.87	40.9652
2462.01	46.215
2464.15	42.9534
2466.3	45.0475
2468.44	45.6046
2470.58	47.0526
2472.73	40.5002
2474.87	42.6565
2477.01	48.899
2479.16	46.528
2481.3	45.9833
2483.44	47.3291
2485.59	49.6695
2487.73	42.8754
2489.87	48.3074
2492.02	51.0525
2494.16	44.0398
2496.3	43.4458
2498.45	50.6581
2500.59	44.3071
2502.73	48.0027
2504.88	45.849
2507.02	45.0513
2509.16	53.1273
2511.31	47.5277
2513.45	50.6667
2515.59	45.1437
2517.74	49.7213
2519.88	51.3137
2522.03	49.5348
2524.17	53.0121
2526.31	51.8971
2528.46	52.3496
2530.6	53.7879
2532.74	48.2786
2534.89	49.2529
2537.03	45.7905
2539.17	51.0837
2541.32	48.9882
2543.46	53.3137
2545.6	54.1308
2547.75	50.7432
2549.89	50.8891
2552.03	53.4139
2554.18	56.399
2556.32	59.044
2558.46	46.7672
2560.61	55.3199
2562.75	50.3784
2564.89	53.03
2567.04	58.9664
2569.18	55.2421
2571.32	57.0337
2573.47	50.3808
2575.61	61.7766
2577.75	46.9677
2579.9	66.3551
2582.04	56.6614
2584.18	57.7845
2586.33	49.9891
2588.47	64.1647
2590.61	63.4027
2592.76	68.0346
2594.9	58.351
2597.04	51.8902
2599.19	58.6305
2601.33	59.2942
2603.47	65.1751
2605.62	60.2537
2607.76	68.9605
2609.9	61.994
2612.05	59.6586
2614.19	66.7198
2616.33	61.4287
2618.48	64.5426
2620.62	68.4801
2622.76	65.13
2624.91	66.0062
2627.05	68.9098
2629.19	58.9516
2631.34	63.1826
2633.48	72.3995
2635.62	70.201
2637.77	71.8923
2639.91	70.8499
2642.05	77.517
2644.2	77.4107
2646.34	69.9518
2648.48	71.3092
2650.63	75.276
2652.77	80.3924
2654.92	75.4442
2657.06	73.9998
2659.2	76.3581
2661.35	77.0453
2663.49	73.9443
2665.63	81.9708
2667.78	77.5686
2669.92	84.5702
2672.06	78.073
2674.21	81.5951
2676.35	80.0903
2678.49	80.654
2680.64	79.8984
2682.78	85.125
2684.92	81.2233
2687.07	81.5718
2689.21	85.124
2691.35	82.8178
2693.5	86.0376
2695.64	88.8723
2697.78	86.8523
2699.93	80.5805
2702.07	83.2815
2704.21	91.377
2706.36	80.874
2708.5	87.0741
2710.64	82.9673
2712.79	76.6945
2714.93	85.915
2717.07	80.2133
2719.22	77.1439
2721.36	81.9646
2723.5	77.8721
2725.65	75.1758
2727.79	80.14
2729.93	77.4773
2732.08	77.8078
2734.22	77.6166
2736.36	74.1381
2738.51	72.8917
2740.65	75.2508
2742.79	72.9837
2744.94	72.6808
2747.08	76.4183
2749.22	76.2003
2751.37	74.436
2753.51	69.9198
2755.65	69.5774
2757.8	71.5085
2759.94	69.145
2762.08	65.1053
2764.23	68.1609
2766.37	63.4586
2768.51	67.3025
2770.66	69.4594
2772.8	70.2829
2774.94	68.4078
2777.09	65.5176
2779.23	72.2636
2781.37	69.0909
2783.52	66.377
2785.66	66.7897
2787.8	63.9187
2789.95	65.4594
2792.09	65.6476
2794.24	67.621
2796.38	70.0246
2798.52	68.2838
2800.67	61.9169
2802.81	67.7511
2804.95	63.5627
2807.1	64.6554
2809.24	58.7665
2811.38	65.5121
2813.53	66.2526
2815.67	72.2181
2817.81	66.8166
2819.96	62.0454
2822.1	67.0772
2824.24	63.863
2826.39	61.4471
2828.53	66.8053
2830.67	72.4609
2832.82	64.6074
2834.96	66.5576
2837.1	71.4412
2839.25	63.5062
2841.39	67.2606
2843.53	66.8925
2845.68	65.2962
2847.82	69.3085
2849.96	69.558
2852.11	71.521
2854.25	63.2096
2856.39	59.9377
2858.54	67.3682
2860.68	62.2225
2862.82	69.1385
2864.97	69.3471
2867.11	67.0588
2869.25	64.5974
2871.4	68.1644
2873.54	65.9754
2875.68	65.7781
2877.83	63.7545
2879.97	68.5176
2882.11	73.1365
2884.26	66.4658
2886.4	64.8061
2888.54	65.0279
2890.69	71.798
2892.83	73.435
2894.97	62.4813
2897.12	68.5725
2899.26	72.2353
2901.4	69.9351
2903.55	74.2944
2905.69	73.0956
2907.83	70.0744
2909.98	78.5842
2912.12	77.2479
2914.26	72.8566
2916.41	73.1068
2918.55	77.512
2920.69	70.2838
2922.84	79.8823
2924.98	81.3024
2927.125	78.1715
2929.27	77.0818
2931.41	70.9033
2933.56	70.1941
2935.7	76.451
2937.84	73.951
2939.99	71.8465
2942.13	72.6484
2944.27	80.0672
2946.42	75.084
2948.56	68.3069
2950.7	71.9462
2952.85	69.4621
2954.99	69.669
2957.13	65.3842
2959.28	67.6945
2961.42	69.4062
2963.56	67.5883
2965.71	62.5972
2967.85	69.8291
2969.99	71.4823
2972.14	67.2715
2974.28	64
2976.42	68.3014
2978.57	69.8006
2980.71	65.3322
2982.85	67
2985	66.8962
2987.14	67.5736
2989.28	61.7014
2991.43	56.6964
2993.57	55.5903
2995.71	59.5947
2997.86	58.821
3000	56.3449