File: Example Data/Raman/CNT - TIM/Raytheon/Al foil/2010/03-29-10/Al - 03-29-10 - B5_1.txt
100	69.2507
102.143	64
104.287	59.8098
106.43	71.0985
108.574	92.0076
110.717	58.9493
112.86	60.1713
115.004	64.5802
117.147	76.1555
119.29	74.1187
121.434	55.7058
123.577	75.6837
125.721	71.1824
127.864	57.4771
130.007	62.1724
132.151	66.4122
134.294	60.2075
136.438	54.5002
138.581	51.829
140.724	68
142.868	51.9212
145.011	57.0706
147.154	60.0994
149.298	56.7567
151.441	59.8538
153.585	59.2073
155.728	53.7038
157.871	55.7407
160.015	59.7937
162.158	55.4675
164.302	58.7671
166.445	60.8713
168.588	55.671
170.732	52.8783
172.875	54.0715
175.018	57.542
177.162	48.2933
179.305	52.1941
181.449	55.1848
183.592	54.9259
185.735	58.907
187.879	47.2665
190.022	53
192.166	54.5209
194.309	45.6307
196.452	49.6766
198.596	49.9632
200.739	52.3062
202.882	53.2248
205.026	49.915
207.169	48.9099
209.313	56.7635
211.456	49.2522
213.599	50.9848
215.743	50.1719
217.886	48.2887
220.03	52.1887
222.173	57.091
224.316	48.9199
226.46	46.867
228.603	48.3632
230.746	52.9295
232.89	51.0583
235.033	53.3747
237.177	55.3222
239.32	51.5314
241.463	45.4922
243.607	47.1463
245.75	53.6514
247.894	49.7347
250.037	44.0063
252.18	51.8028
254.324	57.1686
256.467	50.9834
258.611	49.7464
260.754	51.5931
262.897	56.3265
265.041	41.6841
267.184	47.1111
269.327	47.0346
271.471	46.8459
273.614	53.26
275.758	49.7046
277.901	44.2124
280.044	53.0104
282.188	47.0918
284.331	45.2686
286.474	48.9908
288.618	51.9209
290.761	45.6433
292.905	53.2636
295.048	45.8209
297.191	44.038
299.335	49.0531
301.478	48.3053
303.622	50.9681
305.765	53.8934
307.908	44.4121
310.052	48.5324
312.195	51.4346
314.339	47.8996
316.482	40.6667
318.625	44.9232
320.769	50.2955
322.912	44.8401
325.055	43.0354
327.199	45.8648
329.342	42.0521
331.486	41.9905
333.629	51.5782
335.772	40.8306
337.916	54.4144
340.059	45.9407
342.203	44.2999
344.346	48.0698
346.489	47.0898
348.633	38.9045
350.776	44.8146
352.919	38.6102
355.063	47.0551
357.206	46.2885
359.35	46.0438
361.493	38.3414
363.636	44.5086
365.78	44.9255
367.923	43.941
370.067	45.0821
372.21	39.2322
374.353	47.2383
376.497	46.9365
378.64	30.7613
380.783	45.8291
382.927	43.365
385.07	37.3049
387.214	37.4521
389.357	44.1108
391.5	39.5005
393.644	46.3333
395.787	39.0845
397.931	43.1567
400.074	40.0703
402.217	47.1298
404.361	34.5885
406.504	40.4916
408.647	46.0592
410.791	45.0352
412.934	40.6213
415.078	40.8224
417.221	39.0001
419.364	38.4973
421.508	49.6276
423.651	40.9834
425.795	47.0089
427.938	41.3911
430.081	39.077
432.225	41.7668
434.368	38.7544
436.511	41.534
438.655	41.5913
440.798	39.3094
442.942	40.4799
445.085	37.3607
447.228	45.4212
449.372	42.0493
451.515	40.2616
453.659	42.3401
455.802	35.0028
457.945	38.8598
460.089	37.562
462.232	40.4627
464.375	37.6959
466.519	35.56
468.662	41.7802
470.806	40.4594
472.949	38.7249
475.092	46.6515
477.236	40.0702
479.379	44.835
481.523	40.5329
483.666	41.2209
485.809	36.7525
487.953	45.0823
490.096	31.5445
492.239	35.1848
494.383	36.9868
496.526	36.5707
498.67	42.5028
500.813	29.6667
502.956	38.126
505.1	36.4825
507.243	32.9797
509.387	37.2177
511.53	34.0912
513.673	31.4813
515.817	30.3279
517.96	35.7002
520.103	39.7895
522.247	33.7787
524.39	35.8129
526.534	31.3541
528.677	31.09
530.82	33.8551
532.964	36.6469
535.107	40.327
537.251	36.611
539.394	40.0368
541.537	35.6848
543.681	35.948
545.824	38.2827
547.967	36.3205
550.111	34.5157
552.254	34.1829
554.398	36.0994
556.541	40.1258
558.684	37.0287
560.828	37.5257
562.971	35.3183
565.115	35.8772
567.258	38.532
569.401	37.4683
571.545	40.7708
573.688	37.5403
575.831	36.0955
577.975	36.8394
580.118	33.2437
582.262	39.5409
584.405	38.6198
586.548	32.8698
588.692	34.9632
590.835	33.124
592.979	33.9342
595.122	36.1696
597.265	32.5359
599.409	42.8981
601.552	35.1698
603.695	36.6564
605.839	34.0397
607.982	37.4307
610.126	37.5446
612.269	40.8469
614.412	36.4355
616.556	40.4892
618.699	46.4552
620.843	40.7521
622.986	42.3223
625.129	39.4139
627.273	40.0132
629.416	33.3279
631.56	36.5415
633.703	38.6898
635.846	37.5883
637.99	41.7041
640.133	36.9161
642.276	35.3041
644.42	40.7145
646.563	39.5588
648.707	39.4394
650.85	39.004
652.993	37.2991
655.137	40.7226
657.28	41.6552
659.424	41.1022
661.567	38.3979
663.71	40.1462
665.854	42.5024
667.997	40.0881
670.14	41.6919
672.284	33.4125
674.427	45.3386
676.571	40.8172
678.714	41.2584
680.857	37.7771
683.001	46.3243
685.144	45.5679
687.288	44.4235
689.431	41.1394
691.574	44.8508
693.718	42.0765
695.861	41.4375
698.004	38.66
700.148	42.9561
702.291	42.2068
704.435	38.3672
706.578	44.9127
708.721	43.6352
710.865	43.2834
713.008	49.8379
715.151	40.9824
717.295	48.1214
719.438	42.7906
721.582	45.8521
723.725	47.0154
725.868	49.9069
728.012	47.0712
730.155	52.8317
732.299	44.0858
734.442	42.3014
736.585	47.8955
738.729	38.4895
740.872	45.1103
743.016	45.3888
745.159	50.6635
747.302	48.9274
749.446	48.9028
751.589	37.5372
753.732	51.9676
755.876	47.0094
758.019	53.7868
760.163	53.3042
762.306	48.7185
764.449	50.5986
766.593	49.3568
768.736	47.3781
770.88	45.669
773.023	56.3246
775.166	43.7265
777.31	53.144
779.453	48.5143
781.596	56.3189
783.74	56.0726
785.883	56.1866
788.027	53.7412
790.17	54.1087
792.313	55.2812
794.457	51.7799
796.6	51.2029
798.744	52.1003
800.887	54.1997
803.03	47.8984
805.174	51.0938
807.317	57.0661
809.46	52.1026
811.604	57.0216
813.747	52.6648
815.891	54.8301
818.034	58.5507
820.177	54.3938
822.321	53.9605
824.464	57.0367
826.608	53.8944
828.751	53.9276
830.894	57.8355
833.038	51
835.181	60.8638
837.324	61.1505
839.468	63.0046
841.611	58.9126
843.755	57.0855
845.898	50.2182
848.041	53.8399
850.185	58.1385
852.328	61.2553
854.472	59.457
856.615	66.5282
858.758	56.4267
860.902	58.1298
863.045	57.9947
865.188	50.6446
867.332	56.7382
869.475	49.7671
871.619	49.9014
873.762	50.563
875.905	53.6584
878.049	49.3912
880.192	49.5502
882.336	52.5966
884.479	48.097
886.622	51.3329
888.766	48.6831
890.909	45.0258
893.052	50.4801
895.196	43.6456
897.339	44.2357
899.483	45.5516
901.626	40.942
903.769	46.4481
905.913	45.7574
908.056	42.9125
910.2	42.4411
912.343	44.1628
914.486	41.0039
916.63	44.5527
918.773	44.479
920.917	46.9354
923.06	40.783
925.203	42.2203
927.347	38.874
929.49	42.3483
931.633	40.9964
933.777	43.7852
935.92	40.4384
938.064	45.5931
940.207	38.0642
942.35	40.1904
944.494	43.833
946.637	44.2134
948.781	44.8217
950.924	42.2181
953.067	38.4183
955.211	41.772
957.354	45.0851
959.497	42.8584
961.641	36.8449
963.784	36.8087
965.928	38.7783
968.071	49.6104
970.214	43.8815
972.358	44.7476
974.501	40
976.644	46.644
978.788	43.7103
980.931	43.4987
983.075	41.3936
985.218	45.6415
987.361	47.3115
989.505	46.6261
991.648	45.0605
993.792	43.2479
995.935	43.6667
998.078	47.3476
1000.22	50.5664
1002.37	46.032
1004.51	42.0196
1006.65	47.3383
1008.8	46.8104
1010.94	47.7489
1013.08	48.5411
1015.23	41.2057
1017.37	49.6879
1019.51	53.753
1021.66	49.7374
1023.8	42.558
1025.94	51.8947
1028.09	54.6649
1030.23	53.7013
1032.37	57.6096
1034.52	59.9959
1036.66	52.3333
1038.8	51.0932
1040.95	51.568
1043.09	52.3146
1045.23	59.3799
1047.38	55.6534
1049.52	60.2195
1051.66	54.3276
1053.81	59.1222
1055.95	64.4792
1058.09	56.2207
1060.24	61.9065
1062.38	55.5385
1064.52	59
1066.67	57.2184
1068.81	63.6423
1070.95	57.6016
1073.1	60.3746
1075.24	66.4512
1077.38	61.5102
1079.53	59.9736
1081.67	58.2487
1083.81	58.3574
1085.96	67.308
1088.1	71.4613
1090.24	60.0097
1092.39	67.0949
1094.53	65.5045
1096.67	63.0639
1098.82	60.0653
1100.96	70.8474
1103.1	74.0606
1105.25	68.8518
1107.39	69.5295
1109.53	67.4962
1111.68	66.6433
1113.82	72.1824
1115.96	71.0064
1118.11	71.9862
1120.25	75.9771
1122.39	72.7657
1124.54	69.7235
1126.68	73.5651
1128.82	81.4007
1130.97	81.9226
1133.11	74.5656
1135.26	88.058
1137.4	86.9313
1139.54	86.254
1141.69	92.2941
1143.83	84.547
1145.97	99.1786
1148.12	91.5362
1150.26	97.7366
1152.4	99.4876
1154.55	100.279
1156.69	91.7233
1158.83	104.494
1160.98	100.905
1163.12	98.3266
1165.26	103.703
1167.41	107.213
1169.55	100.947
1171.69	100.628
1173.84	101.948
1175.98	102.937
1178.12	103.866
1180.27	109.776
1182.41	107.05
1184.55	107.373
1186.7	105.047
1188.84	105.073
1190.98	110.349
1193.13	104.987
1195.27	113.735
1197.41	99.6486
1199.56	106.024
1201.7	105.972
1203.84	109.803
1205.99	117.18
1208.13	105.739
1210.27	115.123
1212.42	113.488
1214.56	118.134
1216.7	115.362
1218.85	114.276
1220.99	121.25
1223.13	119.282
1225.28	123.84
1227.42	122.91
1229.56	123.983
1231.71	127.944
1233.85	125.175
1235.99	130.779
1238.14	133.308
1240.28	120.881
1242.42	133.411
1244.57	137.165
1246.71	136.816
1248.85	146.297
1251	131.86
1253.14	150.704
1255.28	147.073
1257.43	144.636
1259.57	156.86
1261.71	156.054
1263.86	165.991
1266	159.236
1268.14	162.952
1270.29	165.939
1272.43	168.968
1274.58	166.061
1276.72	173.072
1278.86	176.889
1281.01	181.761
1283.15	180.175
1285.29	188.193
1287.44	191.519
1289.58	205.244
1291.72	200.677
1293.87	205.503
1296.01	206.164
1298.15	214.432
1300.3	214.795
1302.44	253.592
1304.58	225.694
1306.73	226.547
1308.87	243.691
1311.01	239.053
1313.16	252.798
1315.3	246.339
1317.44	248.727
1319.59	261.956
1321.73	255.607
1323.87	261.521
1326.02	269.994
1328.16	263.577
1330.3	266.049
1332.45	266.026
1334.59	270.479
1336.73	290.731
1338.88	259.524
1341.02	272.316
1343.16	273.233
1345.31	291.053
1347.45	274.865
1349.59	285.331
1351.74	275.188
1353.88	261.405
1356.02	260.718
1358.17	264.528
1360.31	267.582
1362.45	267.44
1364.6	254.262
1366.74	250.441
1368.88	260.57
1371.03	238.256
1373.17	241.086
1375.31	239.644
1377.46	238.279
1379.6	237.802
1381.74	215.164
1383.89	224.21
1386.03	220.918
1388.17	212.318
1390.32	209.904
1392.46	215.082
1394.6	211.863
1396.75	207.476
1398.89	198.061
1401.03	198.221
1403.18	183.654
1405.32	187.895
1407.46	181.161
1409.61	189.299
1411.75	176.394
1413.9	183.53
1416.04	181.656
1418.18	166.043
1420.33	166.152
1422.47	172.911
1424.61	177.287
1426.76	153.747
1428.9	175.072
1431.04	176.895
1433.19	168.085
1435.33	160.305
1437.47	154.76
1439.62	156.161
1441.76	159
1443.9	161.626
1446.05	151.818
1448.19	164.995
1450.33	149.442
1452.48	150.68
1454.62	153.18
1456.76	147.391
1458.91	162.874
1461.05	150.34
1463.19	160.137
1465.34	153.76
1467.48	156.697
1469.62	157.382
1471.77	151.326
1473.91	159.825
1476.05	159.206
1478.2	156.43
1480.34	152.255
1482.48	158.244
1484.63	144.487
1486.77	159.888
1488.91	161.047
1491.06	145.145
1493.2	155.845
1495.34	151.759
1497.49	150.109
1499.63	148.076
1501.77	148.495
1503.92	149.721
1506.06	155.66
1508.2	157.267
1510.35	154.02
1512.49	157.482
1514.63	159.861
1516.78	149.892
1518.92	151.8
1521.06	163.578
1523.21	142.674
1525.35	157.307
1527.49	155.677
1529.64	161
1531.78	159.627
1533.92	167.144
1536.07	162.485
1538.21	155.366
1540.35	165.701
1542.5	161.845
1544.64	178.185
1546.78	166.823
1548.93	169.826
1551.07	173.889
1553.22	173.933
1555.36	182.533
1557.5	188.55
1559.65	189.944
1561.79	187.802
1563.93	184.785
1566.08	201.593
1568.22	202.317
1570.36	208.883
1572.51	206.098
1574.65	233.042
1576.79	239.335
1578.94	238.345
1581.08	236.447
1583.22	251.285
1585.37	267.313
1587.51	266.556
1589.65	279.322
1591.8	282.763
1593.94	284.46
1596.08	297.59
1598.23	299.439
1600.37	300.012
1602.51	292.608
1604.66	296.944
1606.8	287.855
1608.94	285.922
1611.09	275.789
1613.23	274.552
1615.37	256.706
1617.52	242.401
1619.66	234.851
1621.8	224.879
1623.95	220.119
1626.09	203.802
1628.23	180.751
1630.38	181.184
1632.52	158.908
1634.66	155.839
1636.81	143.288
1638.95	132.077
1641.09	129.783
1643.24	120.6
1645.38	122.537
1647.52	110.628
1649.67	105.223
1651.81	98.0422
1653.95	96.2966
1656.1	93.1494
1658.24	85.3435
1660.38	81.7201
1662.53	86.0842
1664.67	73.5273
1666.81	69
1668.96	77.6378
1671.1	62.0115
1673.24	55.0344
1675.39	56.9901
1677.53	57.3167
1679.67	50.7474
1681.82	55.0507
1683.96	53.3618
1686.1	54.0116
1688.25	48.157
1690.39	43.8742
1692.54	41.3799
1694.68	36.7088
1696.82	34.1526
1698.97	36.6957
1701.11	34.1169
1703.25	37.074
1705.4	41.7936
1707.54	40.3418
1709.68	41.8234
1711.83	39.3011
1713.97	32.6163
1716.11	32.288
1718.26	32.7575
1720.4	40.3604
1722.54	33.7278
1724.69	27.614
1726.83	28.0824
1728.97	29.2153
1731.12	25.8675
1733.26	27.156
1735.4	31.2882
1737.55	27.8908
1739.69	24.6682
1741.83	24.6362
1743.98	30.8884
1746.12	28.9515
1748.26	34.7832
1750.41	22.2267
1752.55	29.2129
1754.69	32.5466
1756.84	29.329
1758.98	29.6254
1761.12	27.8165
1763.27	22.4841
1765.41	24.2172
1767.55	30.1565
1769.7	24.5097
1771.84	27.8096
1773.98	27.0677
1776.13	25.1381
1778.27	30.1849
1780.41	24.9913
1782.56	26.3333
1784.7	22.2095
1786.84	23.7268
1788.99	25.5556
1791.13	26.0298
1793.27	27.0513
1795.42	24.3164
1797.56	26.137
1799.7	25.5438
1801.85	22.7196
1803.99	21.7279
1806.13	25.6362
1808.28	30.4459
1810.42	24.63
1812.56	30.0646
1814.71	28.6081
1816.85	23.3545
1818.99	22.5924
1821.14	26.2738
1823.28	27.8576
1825.42	23.9538
1827.57	28.5409
1829.71	28.5715
1831.86	25.2804
1834	23.2056
1836.14	24.0874
1838.29	22.5095
1840.43	24.7495
1842.57	24.0033
1844.72	23.2298
1846.86	25.0087
1849	28.0644
1851.15	20.8164
1853.29	22.0986
1855.43	25.8774
1857.58	23.9043
1859.72	29.3035
1861.86	17.428
1864.01	26.2185
1866.15	24.0587
1868.29	23.2433
1870.44	23.3803
1872.58	20.9425
1874.72	27.3748
1876.87	24.6059
1879.01	28.7249
1881.15	26.0175
1883.3	19.3854
1885.44	26.4441
1887.58	25.7316
1889.73	25.2107
1891.87	24.5595
1894.01	27.1221
1896.16	25.6097
1898.3	25.8502
1900.44	31.3024
1902.59	25.7928
1904.73	21.341
1906.87	26.1253
1909.02	26.2574
1911.16	21.6546
1913.3	24.5026
1915.45	25.9912
1917.59	25.3088
1919.73	27.7068
1921.88	24.4503
1924.02	25.7104
1926.16	28.0445
1928.31	30.3062
1930.45	22.9541
1932.59	19.1469
1934.74	21.8139
1936.88	27.4475
1939.02	21.8095
1941.17	24.2223
1943.31	29.8684
1945.45	21.6691
1947.6	27.2613
1949.74	25.0361
1951.88	26.9028
1954.03	24.6786
1956.17	28.666
1958.31	22.6478
1960.46	21.0836
1962.6	22.3722
1964.74	25.1547
1966.89	27.8325
1969.03	20.5546
1971.18	26.0411
1973.32	24.7667
1975.46	24.5346
1977.61	24.5443
1979.75	19.0051
1981.89	26.8257
1984.04	26.5001
1986.18	26.8628
1988.32	24.1276
1990.47	31.5504
1992.61	27.8333
1994.75	28.1492
1996.9	23.3333
1999.04	25.3055
2001.18	23.9122
2003.33	24.7016
2005.47	30.8286
2007.61	23.2309
2009.76	24.1583
2011.9	21.2122
2014.04	25.4949
2016.19	27.3167
2018.33	20.767
2020.47	26.5548
2022.62	23.6365
2024.76	21.638
2026.9	26.2067
2029.05	21.6837
2031.19	29.2556
2033.33	24.5859
2035.48	23.2559
2037.62	25.0867
2039.76	29.1944
2041.91	22.0321
2044.05	24.9947
2046.19	24.6136
2048.34	24.4274
2050.48	22.7684
2052.62	25.9742
2054.77	23.5359
2056.91	22.0118
2059.05	25.5187
2061.2	30.9969
2063.34	23.9837
2065.48	28.4216
2067.63	23
2069.77	25.9077
2071.91	27.4458
2074.06	28.3333
2076.2	24.2768
2078.34	21.9358
2080.49	24.6757
2082.63	21.9368
2084.77	25.2843
2086.92	28.0495
2089.06	29.6484
2091.2	23.1886
2093.35	20.3592
2095.49	26.4933
2097.63	26.4611
2099.78	41.2463
2101.92	27.4062
2104.06	25.9997
2106.21	22.25
2108.35	24.8388
2110.5	24.5241
2112.64	23.3422
2114.78	24.0662
2116.93	24.2717
2119.07	27.8797
2121.21	25.7421
2123.36	30.8309
2125.5	25.7689
2127.64	24.8889
2129.79	25.9721
2131.93	24.6331
2134.07	28.9222
2136.22	24.8314
2138.36	29.5821
2140.5	32.281
2142.65	24.9702
2144.79	24.106
2146.93	29.7326
2149.08	27.6279
2151.22	28.9984
2153.36	30.1654
2155.51	28.9283
2157.65	21.3528
2159.79	23.4224
2161.94	23.3965
2164.08	22.6329
2166.22	31.4051
2168.37	30.9485
2170.51	28.395
2172.65	26.4858
2174.8	29.7896
2176.94	22.638
2179.08	29.3957
2181.23	23.7123
2183.37	23.028
2185.51	24.8268
2187.66	23.3425
2189.8	27.4137
2191.94	28.4194
2194.09	26.3454
2196.23	26.6565
2198.37	27.9005
2200.52	18.4718
2202.66	25.8423
2204.8	28.5827
2206.95	26.4789
2209.09	25.8796
2211.23	24.8678
2213.38	26.5592
2215.52	25.6127
2217.66	29.3311
2219.81	33.899
2221.95	28.7875
2224.09	26.1409
2226.24	26.2181
2228.38	24.4015
2230.52	26.5964
2232.67	27.7552
2234.81	27.3931
2236.95	28.9793
2239.1	26.1467
2241.24	25.5231
2243.39	26.2383
2245.53	29.147
2247.67	30.2477
2249.82	29.2856
2251.96	26.1148
2254.1	26.2317
2256.25	24.6658
2258.39	30.1252
2260.53	27.9432
2262.68	25.6262
2264.82	27.9139
2266.96	27.5543
2269.11	31.9517
2271.25	31.6983
2273.39	26.3813
2275.54	30.7505
2277.68	30.7398
2279.82	28.0091
2281.97	29.557
2284.11	23.6091
2286.25	30.1835
2288.4	31.2999
2290.54	26.9008
2292.68	27.3371
2294.83	27.7159
2296.97	26.9598
2299.11	26.5418
2301.26	26.6298
2303.4	26.4459
2305.54	30.1359
2307.69	25.0202
2309.83	24.0947
2311.97	34.583
2314.12	32.8963
2316.26	27.2738
2318.4	27.6852
2320.55	29.2758
2322.69	32.2821
2324.83	30.9632
2326.98	33.9234
2329.12	47.2661
2331.26	36.3914
2333.41	28.9636
2335.55	27.4244
2337.69	28.8331
2339.84	29.3937
2341.98	32.4944
2344.12	26.7395
2346.27	26.1855
2348.41	28.2849
2350.55	32.911
2352.7	32.6733
2354.84	32.8901
2356.98	28.0956
2359.13	29.5397
2361.27	30.8214
2363.41	25.7694
2365.56	36.6821
2367.7	28.2301
2369.84	28.786
2371.99	26.3521
2374.13	25.1521
2376.27	28.554
2378.42	27.8386
2380.56	32.4789
2382.71	32.5378
2384.85	33.5459
2386.99	32.0135
2389.14	33.4456
2391.28	28.7147
2393.42	34.4703
2395.57	28.9918
2397.71	32.9029
2399.85	29.7686
2402	33.2875
2404.14	31.9969
2406.28	37.8268
2408.43	33.2197
2410.57	31.7169
2412.71	36.0379
2414.86	30.7053
2417	37.5612
2419.14	27.5165
2421.29	37.5452
2423.43	31.9233
2425.57	32.4848
2427.72	34.1877
2429.86	33.1189
2432	31.1267
2434.15	30.3333
2436.29	38.6388
2438.43	33.2108
2440.58	38.1077
2442.72	32.5792
2444.86	31.6031
2447.01	31.0994
2449.15	36.0702
2451.29	38.7601
2453.44	36.0269
2455.58	39.4713
2457.72	34.2907
2459.87	37.84
2462.01	32.0019
2464.15	40.1783
2466.3	37.9995
2468.44	37.1364
2470.58	37.9133
2472.73	36.7033
2474.87	33.5768
2477.01	39.6537
2479.16	34.8865
2481.3	37.3365
2483.44	35.7332
2485.59	35.0384
2487.73	38.4629
2489.87	39.6667
2492.02	37.6752
2494.16	36.2312
2496.3	40.0644
2498.45	41.7395
2500.59	43.2969
2502.73	50.6026
2504.88	43.7587
2507.02	39.7565
2509.16	45.4612
2511.31	38.8611
2513.45	47.9256
2515.59	39.374
2517.74	36.0582
2519.88	40.9672
2522.03	39.3837
2524.17	35.6182
2526.31	39.9232
2528.46	44.8076
2530.6	39.6025
2532.74	39.2567
2534.89	39.474
2537.03	42.4833
2539.17	39.5008
2541.32	42.5211
2543.46	38.7256
2545.6	44.5164
2547.75	42.5768
2549.89	43.2039
2552.03	39.4696
2554.18	44.2348
2556.32	45.8474
2558.46	39.1769
2560.61	38.1948
2562.75	44.7038
2564.89	52.0936
2567.04	39.8821
2569.18	49.2421
2571.32	43.1804
2573.47	44.0145
2575.61	50.6648
2577.75	43.3717
2579.9	43.3703
2582.04	46.4704
2584.18	44.9666
2586.33	45.6623
2588.47	43.7575
2590.61	47.5738
2592.76	41.5033
2594.9	45.3603
2597.04	55.3763
2599.19	45.9221
2601.33	45.7608
2603.47	44.575
2605.62	47.3773
2607.76	45.8515
2609.9	46.4239
2612.05	48.4784
2614.19	47.8466
2616.33	44.6288
2618.48	47.2992
2620.62	52.929
2622.76	49.6852
2624.91	47.7962
2627.05	43.9474
2629.19	51.2739
2631.34	50.6219
2633.48	52.9734
2635.62	48.8243
2637.77	49.9346
2639.91	50.4499
2642.05	53.5795
2644.2	48.5766
2646.34	54.4006
2648.48	54.5383
2650.63	52.0732
2652.77	50.7155
2654.92	47.3951
2657.06	52.0808
2659.2	50.8015
2661.35	51.9934
2663.49	54.4237
2665.63	51.1631
2667.78	53.4862
2669.92	54.1565
2672.06	49.5508
2674.21	52.9252
2676.35	52.4636
2678.49	55.3992
2680.64	55.2736
2682.78	52.6147
2684.92	52.2988
2687.07	55.5374
2689.21	53.9846
2691.35	49.1308
2693.5	56.521
2695.64	48.342
2697.78	55.6735
2699.93	56.9527
2702.07	53.8345
2704.21	48.7587
2706.36	53.0267
2708.5	58.3278
2710.64	59.5548
2712.79	52.9811
2714.93	57.4181
2717.07	55.1786
2719.22	54.778
2721.36	50.3181
2723.5	54.3605
2725.65	48.7666
2727.79	51.6472
2729.93	50.5456
2732.08	48.7741
2734.22	55.6411
2736.36	53.65
2738.51	53.688
2740.65	54.7166
2742.79	55.0697
2744.94	54.813
2747.08	52.2353
2749.22	47.0805
2751.37	51.6639
2753.51	53.1978
2755.65	52.0996
2757.8	52.4754
2759.94	51.1253
2762.08	47.877
2764.23	48.4105
2766.37	49.982
2768.51	48.927
2770.66	51.2024
2772.8	53.2493
2774.94	49.7973
2777.09	54.3288
2779.23	43.9377
2781.37	52.9716
2783.52	50.8507
2785.66	48.9846
2787.8	56.9853
2789.95	54.5387
2792.09	48.7301
2794.24	48.974
2796.38	51.4398
2798.52	52.8818
2800.67	50.7331
2802.81	50.356
2804.95	51.9311
2807.1	50.4842
2809.24	52.8601
2811.38	52.8205
2813.53	49.1738
2815.67	53.3183
2817.81	56.6758
2819.96	54.0385
2822.1	55.0018
2824.24	50.0373
2826.39	49.5603
2828.53	49.8645
2830.67	48.6834
2832.82	53.6182
2834.96	47.4911
2837.1	52.4339
2839.25	52.2541
2841.39	47.5113
2843.53	51.9381
2845.68	49
2847.82	56.3333
2849.96	55.1602
2852.11	46.8601
2854.25	45.6568
2856.39	54.1013
2858.54	51.5478
2860.68	53.3525
2862.82	53.0893
2864.97	58.3625
2867.11	51.5784
2869.25	53.6981
2871.4	50.0867
2873.54	51.989
2875.68	53.4584
2877.83	61.0699
2879.97	58.2951
2882.11	54.266
2884.26	57.2845
2886.4	57.1122
2888.54	54.6108
2890.69	51.9335
2892.83	59.0991
2894.97	50.8516
2897.12	55.6414
2899.26	54.7992
2901.4	54.2285
2903.55	57.4672
2905.69	52
2907.83	50.7411
2909.98	58.2079
2912.12	49.2792
2914.26	58.3333
2916.41	55.8759
2918.55	52.5798
2920.69	54.3654
2922.84	56.3551
2924.98	59.8863
2927.125	57.7045
2929.27	55.9482
2931.41	49.03
2933.56	47.9155
2935.7	51.1569
2937.84	60.487
2939.99	45.2457
2942.13	59.7275
2944.27	52.761
2946.42	57.9566
2948.56	48.0441
2950.7	48.828
2952.85	54.7848
2954.99	54.9226
2957.13	51.9925
2959.28	45.7864
2961.42	53.1294
2963.56	50.2457
2965.71	51.1389
2967.85	51.0257
2969.99	48.0922
2972.14	53.2509
2974.28	47.1565
2976.42	45.6064
2978.57	44.7985
2980.71	53.267
2982.85	44.3472
2985	49.3791
2987.14	44.316
2989.28	46.684
2991.43	48.5655
2993.57	49.8287
2995.71	42.3373
2997.86	42.9197
3000	46.6898