File: Example Data/Raman/Kara/12-20-10/C-Si-Graphene/2 bulk/CSGbulk2_3.txt
100	184.153
102.559	188.587
105.117	185.356
107.676	188.983
110.235	198.093
112.793	217.162
115.352	223.327
117.91	217.513
120.469	219.475
123.028	223.796
125.586	243.482
128.145	252.792
130.704	248.968
133.262	247.362
135.821	245.599
138.38	247.061
140.938	250.566
143.497	252.185
146.055	246.637
148.614	247.761
151.173	242.312
153.731	229.514
156.29	222.535
158.849	238.97
161.407	226.748
163.966	224.66
166.525	223.984
169.083	219.083
171.642	207.55
174.2	204.331
176.759	199.9
179.318	204.497
181.876	207.694
184.435	197.835
186.994	198.158
189.552	189.93
192.111	200.2
194.67	208.383
197.228	198.092
199.787	205.353
202.345	194.818
204.904	192.212
207.463	192.628
210.021	190.754
212.58	188.491
215.139	192.434
217.697	193.717
220.256	195.454
222.814	195.807
225.373	187.228
227.932	189.008
230.49	196.603
233.049	202.657
235.608	203.838
238.166	200.311
240.725	199.176
243.284	193.517
245.842	192.888
248.401	197.512
250.959	202.931
253.518	198.384
256.077	200.826
258.635	204.025
261.194	206.243
263.753	206.818
266.311	206.005
268.87	207.94
271.429	214.626
273.987	216.129
276.546	210.693
279.104	204.422
281.663	219.735
284.222	221.583
286.78	221.909
289.339	225.32
291.898	229.245
294.456	216.676
297.015	224.955
299.574	215.602
302.132	210.597
304.691	217.015
307.249	221.962
309.808	221.145
312.367	220.058
314.925	214.009
317.484	208.817
320.043	210.579
322.601	213.035
325.16	204.497
327.719	207.974
330.277	209.348
332.836	206.742
335.394	213.171
337.953	204.485
340.512	202.864
343.07	200.799
345.629	200.083
348.188	203.026
350.746	204.339
353.305	195.311
355.864	196.431
358.422	191.46
360.981	185.674
363.539	197.519
366.098	191.926
368.657	186.474
371.215	194.727
373.774	196.168
376.333	182.623
378.891	179.327
381.45	191.356
384.009	188.94
386.567	186.689
389.126	185.656
391.684	182.21
394.243	179.735
396.802	185.842
399.36	182.754
401.919	177.27
404.478	178.216
407.036	189.131
409.595	182.52
412.154	187.252
414.712	192.469
417.271	192.654
419.829	188.475
422.388	186.35
424.947	181.88
427.505	188.082
430.064	192.167
432.623	193.703
435.181	192.233
437.74	182.229
440.298	193.174
442.857	183.708
445.416	182.245
447.974	186.939
450.533	186.005
453.092	174.049
455.65	181.616
458.209	182.541
460.768	180.535
463.326	179.443
465.885	184.201
468.444	202.666
471.002	202.183
473.561	200.57
476.119	206.556
478.678	216.514
481.237	223.975
483.795	232.812
486.354	230.227
488.913	238.696
491.471	249.119
494.03	255.637
496.589	259.783
499.147	274.981
501.706	297.265
504.264	325.573
506.823	358.45
509.382	408.248
511.94	485.458
514.499	581.631
517.058	772.744
519.616	883.359
522.175	869.96
524.733	746.432
527.292	567.321
529.851	408.492
532.409	308.251
534.968	241.981
537.527	201.969
540.085	179.769
542.644	166.402
545.203	154.86
547.761	152.845
550.32	145.961
552.878	134.704
555.437	127.364
557.996	129.662
560.554	137.716
563.113	121.727
565.672	119.662
568.23	120.896
570.789	123.753
573.348	125.816
575.906	125.37
578.465	125.202
581.023	126.536
583.582	124.903
586.141	127.334
588.699	130.035
591.258	128.193
593.817	123.496
596.375	121.807
598.934	125.305
601.493	129.178
604.051	127.208
606.61	122.807
609.168	124.716
611.727	126.915
614.286	129.928
616.844	125.984
619.403	124.308
621.962	129.165
624.52	136.92
627.079	136.593
629.638	122.013
632.196	128.516
634.755	126.914
637.313	126.869
639.872	129.709
642.431	126.946
644.989	126.606
647.548	125.266
650.107	127.05
652.665	126.187
655.224	127.36
657.783	129.043
660.341	120.757
662.9	128.414
665.458	126.799
668.017	126.073
670.576	122.383
673.134	120.78
675.693	124.884
678.252	124.409
680.81	124.579
683.369	126.85
685.927	121.691
688.486	121.084
691.045	123.514
693.603	121.637
696.162	128.797
698.721	118.711
701.279	119.089
703.838	118.986
706.397	124.765
708.955	128.98
711.514	120.053
714.073	124.999
716.631	124.657
719.19	125.458
721.748	123.513
724.307	120.515
726.866	120.968
729.424	125.486
731.983	120
734.542	119.657
737.1	119.457
739.659	122.503
742.217	124.973
744.776	123.974
747.335	120.97
749.893	120.876
752.452	126.891
755.011	121.521
757.569	131.362
760.128	124.507
762.687	124.507
765.245	124.507
767.804	124.507
770.362	124.507
772.921	130.199
775.48	129.436
778.038	130.296
780.597	130.949
783.156	130.807
785.714	126.859
788.273	135.146
790.832	129.596
793.39	128.659
795.949	130.569
798.507	132.852
801.066	134.452
803.625	134.85
806.183	132.255
808.742	139.821
811.301	131.656
813.859	127.222
816.418	130.706
818.977	138.267
821.535	141.552
824.094	129.684
826.652	139.401
829.211	138.688
831.77	135.36
834.328	139.757
836.887	144.866
839.446	144.7
842.004	146.184
844.563	141.664
847.122	152.564
849.68	149.465
852.239	147.362
854.797	144.873
857.356	143.878
859.915	146.994
862.473	145.909
865.032	142.598
867.591	141.909
870.149	141.11
872.708	146.312
875.267	151.121
877.825	151.31
880.384	148.981
882.942	143.4
885.501	143.4
888.06	145.635
890.618	140.959
893.177	141.785
895.736	143.172
898.294	143.493
900.853	148.494
903.411	146.113
905.97	148.389
908.529	137.639
911.087	141.768
913.646	145.964
916.205	146.347
918.763	145.582
921.322	146.53
923.881	155.317
926.439	150.58
928.998	155.527
931.557	155.978
934.115	161.341
936.674	161.742
939.232	160.181
941.791	167.641
944.35	166.127
946.908	156.28
949.467	161.155
952.026	158.902
954.584	162.615
957.143	161.8
959.701	160.279
962.26	166.278
964.819	167.439
967.377	164.801
969.936	165.507
972.495	161.926
975.053	158.986
977.612	148.347
980.171	142.362
982.729	148.667
985.288	155.251
987.846	155.286
990.405	139.736
992.964	139.465
995.522	158.641
998.081	149.871
1000.64	142.688
1003.2	147.564
1005.76	148.841
1008.32	148.056
1010.87	149.55
1013.43	147.955
1015.99	146.679
1018.55	149.013
1021.11	150.085
1023.67	145.562
1026.23	147.82
1028.78	158.983
1031.34	150.02
1033.9	146.064
1036.46	149.974
1039.02	153.728
1041.58	149.966
1044.14	153.967
1046.7	161.18
1049.25	161.955
1051.81	159.487
1054.37	164.353
1056.93	161.573
1059.49	168.523
1062.05	169.844
1064.61	174.877
1067.16	177.353
1069.72	178.466
1072.28	179.026
1074.84	180.21
1077.4	185.359
1079.96	186.189
1082.52	186.011
1085.07	181.13
1087.63	193.118
1090.19	195.161
1092.75	192.345
1095.31	190.197
1097.87	193.37
1100.43	203.358
1102.99	203.409
1105.54	205.202
1108.1	211.299
1110.66	213.905
1113.22	223.787
1115.78	216.723
1118.34	220.826
1120.9	229.773
1123.45	228.764
1126.01	240.394
1128.57	234.017
1131.13	245.882
1133.69	253.025
1136.25	262.519
1138.81	267.561
1141.36	269.144
1143.92	280.969
1146.48	291.628
1149.04	291.083
1151.6	299.94
1154.16	304.081
1156.72	312.014
1159.28	329.282
1161.83	333.478
1164.39	348.381
1166.95	350.889
1169.51	361.143
1172.07	368.184
1174.63	361.446
1177.19	370.322
1179.74	374.851
1182.3	388.934
1184.86	382.422
1187.42	395.218
1189.98	399.792
1192.54	408.953
1195.1	415.176
1197.65	419.637
1200.21	428.785
1202.77	434.354
1205.33	428.103
1207.89	448.587
1210.45	448.405
1213.01	460.924
1215.57	462.284
1218.12	469.039
1220.68	473.577
1223.24	483.665
1225.8	498.728
1228.36	514.067
1230.92	524.472
1233.48	520.577
1236.03	542.322
1238.59	538.319
1241.15	534.135
1243.71	550.291
1246.27	559.967
1248.83	563.806
1251.39	565.541
1253.94	576.534
1256.5	596.325
1259.06	609.133
1261.62	608.985
1264.18	603.563
1266.74	622.86
1269.3	631.997
1271.85	635.801
1274.41	662.893
1276.97	671.27
1279.53	675.276
1282.09	674.556
1284.65	689.386
1287.21	714.005
1289.77	705.382
1292.32	703.579
1294.88	748.741
1297.44	748.008
1300	757.793
1302.56	781.721
1305.12	799.66
1307.68	800.107
1310.23	795.339
1312.79	813.775
1315.35	833.07
1317.91	832.472
1320.47	841.208
1323.03	860.202
1325.59	864.957
1328.15	874.318
1330.7	881.867
1333.26	879.662
1335.82	898.617
1338.38	912.16
1340.94	911.384
1343.5	905.656
1346.06	899.656
1348.61	901.371
1351.17	906.426
1353.73	898.883
1356.29	905.573
1358.85	924.663
1361.41	909.163
1363.97	899.55
1366.52	869.138
1369.08	887.175
1371.64	880.445
1374.2	866.005
1376.76	850.831
1379.32	828.025
1381.88	815.003
1384.43	809.891
1386.99	793.344
1389.55	796.047
1392.11	775.312
1394.67	767.233
1397.23	741.44
1399.79	761.789
1402.35	749.484
1404.9	726.608
1407.46	718.419
1410.02	717.723
1412.58	705.833
1415.14	687.933
1417.7	676.613
1420.26	668.314
1422.81	656.48
1425.37	648.636
1427.93	647.467
1430.49	632.581
1433.05	626.056
1435.61	623.411
1438.17	622.343
1440.72	611.459
1443.28	611.637
1445.84	615.164
1448.4	609.194
1450.96	580.795
1453.52	571.172
1456.08	592.994
1458.64	598.759
1461.19	583.796
1463.75	580.481
1466.31	579.051
1468.87	582.942
1471.43	579.549
1473.99	573.555
1476.55	583.602
1479.1	569.444
1481.66	580.519
1484.22	566.589
1486.78	568.396
1489.34	563.238
1491.9	559.793
1494.46	567.903
1497.01	577.558
1499.57	573.542
1502.13	552.609
1504.69	558.958
1507.25	538.237
1509.81	555.224
1512.37	551.999
1514.93	570.256
1517.48	565.317
1520.04	560.351
1522.6	562.952
1525.16	562.17
1527.72	578.963
1530.28	580.106
1532.84	578.738
1535.39	575.454
1537.95	582.123
1540.51	600.507
1543.07	614.769
1545.63	631.981
1548.19	640.531
1550.75	646.706
1553.3	657.756
1555.86	675.392
1558.42	681.076
1560.98	719.135
1563.54	749.514
1566.1	786.543
1568.66	786.651
1571.22	817.857
1573.77	856.601
1576.33	885.428
1578.89	915.166
1581.45	949.815
1584.01	963.181
1586.57	992.52
1589.13	1039.24
1591.68	1049.47
1594.24	1060.27
1596.8	1086.78
1599.36	1099.47
1601.92	1126.53
1604.48	1125.43
1607.04	1092.29
1609.59	1081
1612.15	1053
1614.71	1022.21
1617.27	988.022
1619.83	938.129
1622.39	863.367
1624.95	826.497
1627.51	770.481
1630.06	712.917
1632.62	655.054
1635.18	614.543
1637.74	579.245
1640.3	534.147
1642.86	492.566
1645.42	459.14
1647.97	431.599
1650.53	411.738
1653.09	394.822
1655.65	374.393
1658.21	362.721
1660.77	338.632
1663.33	311.27
1665.88	299.035
1668.44	299.745
1671	279.593
1673.56	259.977
1676.12	246.922
1678.68	241.858
1681.24	228.012
1683.8	225.259
1686.35	215.075
1688.91	217.261
1691.47	203.593
1694.03	188.175
1696.59	189.763
1699.15	192.921
1701.71	183.856
1704.26	172.349
1706.82	165.216
1709.38	158.475
1711.94	156.61
1714.5	157.218
1717.06	146.487
1719.62	138.047
1722.17	145.05
1724.73	140.831
1727.29	135.134
1729.85	140.085
1732.41	130.331
1734.97	129.535
1737.53	128.313
1740.09	124.441
1742.64	120.184
1745.2	117.59
1747.76	113.101
1750.32	104.125
1752.88	100.798
1755.44	107.476
1758	106.413
1760.55	104.707
1763.11	104.972
1765.67	107.398
1768.23	107.874
1770.79	105.712
1773.35	106.646
1775.91	104.211
1778.46	106.973
1781.02	103.185
1783.58	97.7652
1786.14	101.786
1788.7	99.5498
1791.26	93.0741
1793.82	95.3222
1796.38	102.818
1798.93	103.381
1801.49	100.623
1804.05	96.8448
1806.61	92.8392
1809.17	99.3793
1811.73	94.252
1814.29	103.588
1816.84	104.41
1819.4	96.1978
1821.96	93.3658
1824.52	97.2428
1827.08	97.2237
1829.64	93.4062
1832.2	96.2952
1834.75	93.8471
1837.31	87.3789
1839.87	80.3219
1842.43	85.0171
1844.99	91.0537
1847.55	97.5059
1850.11	97.2749
1852.67	91.517
1855.22	88.8863
1857.78	92.1808
1860.34	90.6286
1862.9	92.4901
1865.46	88.3513
1868.02	85.473
1870.58	90.3804
1873.13	93.3556
1875.69	90.7025
1878.25	93.5018
1880.81	92.4527
1883.37	83.7749
1885.93	87.7314
1888.49	90.003
1891.04	85.8809
1893.6	86.6806
1896.16	90.8263
1898.72	88.7225
1901.28	89.0418
1903.84	86.6817
1906.4	80.5699
1908.96	83.0641
1911.51	87.0219
1914.07	90.8997
1916.63	88.7692
1919.19	83.9906
1921.75	86.5722
1924.31	84.6646
1926.87	78.5165
1929.42	78.3574
1931.98	81.2432
1934.54	87.3935
1937.1	92.0607
1939.66	88.7461
1942.22	88.4827
1944.78	87.4839
1947.33	81.045
1949.89	82.965
1952.45	85.175
1955.01	83.5661
1957.57	83.3096
1960.13	83.5233
1962.69	84.347
1965.25	79.3589
1967.8	79.6206
1970.36	79.3233
1972.92	78.557
1975.48	81.1414
1978.04	80.5367
1980.6	72.0564
1983.16	76.2295
1985.71	81.6653
1988.27	77.3172
1990.83	80.3363
1993.39	79.9464
1995.95	83.9607
1998.51	85.2499
2001.07	87.6278
2003.62	87.8856
2006.18	87.3212
2008.74	89.6505
2011.3	80.4392
2013.86	78.0642
2016.42	82.2335
2018.98	84.1027
2021.54	84.669
2024.09	88.2764
2026.65	86.3749
2029.21	85.3877
2031.77	83.009
2034.33	86.2288
2036.89	82.1916
2039.45	80.2232
2042	80.3634
2044.56	81.772
2047.12	81.8631
2049.68	83.4489
2052.24	83.0518
2054.8	79.4218
2057.36	78.2399
2059.91	79.7588
2062.47	86.2674
2065.03	86.7057
2067.59	79.8159
2070.15	77.7198
2072.71	81.9821
2075.27	82.1563
2077.83	82.6412
2080.38	83.4625
2082.94	81.0664
2085.5	83.089
2088.06	81.8344
2090.62	83.6816
2093.18	89.9353
2095.74	86.5481
2098.29	82.6852
2100.85	87.2948
2103.41	82.3573
2105.97	88.4772
2108.53	89.2759
2111.09	85.346
2113.65	80.7555
2116.2	85.0121
2118.76	82.0977
2121.32	85.2273
2123.88	88.9764
2126.44	82.9233
2129	87.9586
2131.56	83.4203
2134.12	85.2061
2136.67	82.3082
2139.23	82.684
2141.79	82.3361
2144.35	87.6383
2146.91	85.0333
2149.47	79.9476
2152.03	81.6516
2154.58	86.3868
2157.14	83.9249
2159.7	84.5896
2162.26	80.9228
2164.82	87.8987
2167.38	89.6295
2169.94	90.4025
2172.49	84.9246
2175.05	83.3422
2177.61	91.1966
2180.17	83.8985
2182.73	88.7421
2185.29	89.3989
2187.85	89.0433
2190.41	88.3058
2192.96	90.5408
2195.52	91.5931
2198.08	87.2875
2200.64	85.2071
2203.2	83.1895
2205.76	86.2003
2208.32	86.8832
2210.87	88.0612
2213.43	90.1222
2215.99	87.2223
2218.55	86.6806
2221.11	88.4414
2223.67	88.3077
2226.23	90.5577
2228.78	87.2051
2231.34	85.3097
2233.9	84.2049
2236.46	90.5269
2239.02	91.8407
2241.58	95.2631
2244.14	94.3942
2246.7	93.2278
2249.25	93.8274
2251.81	88.9065
2254.37	89.2884
2256.93	91.2296
2259.49	90.5145
2262.05	95.2442
2264.61	95.8048
2267.16	93.369
2269.72	91.6712
2272.28	96.2052
2274.84	98.0399
2277.4	92.2183
2279.96	92.4982
2282.52	93.144
2285.07	97.6648
2287.63	97.6016
2290.19	94.7501
2292.75	92.9481
2295.31	91.2127
2297.87	95.97
2300.43	98.5518
2302.99	101.623
2305.54	96.7547
2308.1	99.4143
2310.66	102.364
2313.22	95.8559
2315.78	96.3595
2318.34	98.8989
2320.9	100.769
2323.45	100.219
2326.01	105.679
2328.57	103.731
2331.13	111.827
2333.69	112.643
2336.25	121.701
2338.81	112.495
2341.36	105.207
2343.92	106.205
2346.48	108.186
2349.04	106.098
2351.6	104.559
2354.16	105.093
2356.72	106.618
2359.28	108.564
2361.83	109.063
2364.39	109.638
2366.95	107.409
2369.51	103.048
2372.07	110.958
2374.63	112.197
2377.19	108.212
2379.74	109.399
2382.3	121.439
2384.86	117.652
2387.42	112.033
2389.98	113.322
2392.54	117.057
2395.1	115.296
2397.65	116.838
2400.21	124.45
2402.77	121.039
2405.33	123.923
2407.89	125.338
2410.45	123.579
2413.01	125.201
2415.56	129.363
2418.12	131.556
2420.68	127.737
2423.24	139.593
2425.8	140.577
2428.36	135.484
2430.92	146.55
2433.48	154.365
2436.03	168.415
2438.59	175.165
2441.15	168.283
2443.71	170.773
2446.27	167.639
2448.83	168.566
2451.39	161.351
2453.94	157.524
2456.5	152.828
2459.06	151.32
2461.62	152.229
2464.18	149.832
2466.74	152.816
2469.3	152.816
2471.85	148.378
2474.41	140.602
2476.97	151.621
2479.53	157.355
2482.09	155.013
2484.65	149.545
2487.21	155.94
2489.77	151.543
2492.32	148.612
2494.88	155.319
2497.44	154.85
2500	158.766
2502.56	152.389
2505.12	156.883
2507.68	156.58
2510.23	155.228
2512.79	158.277
2515.35	160.772
2517.91	160.586
2520.47	159.72
2523.03	164.503
2525.59	161.472
2528.15	162.525
2530.7	167.117
2533.26	165.103
2535.82	159.128
2538.38	166.507
2540.94	168.056
2543.5	168.688
2546.06	169.711
2548.61	173.361
2551.17	170.038
2553.73	166.984
2556.29	170.286
2558.85	172.882
2561.41	172.21
2563.97	183.677
2566.52	178.961
2569.08	165.21
2571.64	177.041
2574.2	176.159
2576.76	177.665
2579.32	177.051
2581.88	180.127
2584.44	182.107
2586.99	180.251
2589.55	183.349
2592.11	180.06
2594.67	183.478
2597.23	173.855
2599.79	184.085
2602.35	189.918
2604.9	181.673
2607.46	190.85
2610.02	186.68
2612.58	190.422
2615.14	190.544
2617.7	193.173
2620.26	196.093
2622.81	194.568
2625.37	185.29
2627.93	191.795
2630.49	195.488
2633.05	199.791
2635.61	194.664
2638.17	194.059
2640.72	199.234
2643.28	204.603
2645.84	197.972
2648.4	201.045
2650.96	196.369
2653.52	196.972
2656.08	202.008
2658.64	200.05
2661.19	202.27
2663.75	205.328
2666.31	197.467
2668.87	204.54
2671.43	204.129
2673.99	207.78
2676.55	212.155
2679.1	212.525
2681.66	204.958
2684.22	211.03
2686.78	211.746
2689.34	203.98
2691.9	208.199
2694.46	217.553
2697.01	209.814
2699.57	212.43
2702.13	221.592
2704.69	213.303
2707.25	206.729
2709.81	212.815
2712.37	213.491
2714.93	214.657
2717.48	211.056
2720.04	213.512
2722.6	213.521
2725.16	218.06
2727.72	225.187
2730.28	223.491
2732.84	217.124
2735.39	213.71
2737.95	217.728
2740.51	215.571
2743.07	222.92
2745.63	222.245
2748.19	218.85
2750.75	227.314
2753.3	220.819
2755.86	213.321
2758.42	221.182
2760.98	222.665
2763.54	223.067
2766.1	222.385
2768.66	222.441
2771.22	221.199
2773.77	225.874
2776.33	222.966
2778.89	226.224
2781.45	233.467
2784.01	222.875
2786.57	227.021
2789.13	231.664
2791.68	233.762
2794.24	226.266
2796.8	228.172
2799.36	229.207
2801.92	228.324
2804.48	229.07
2807.04	226.655
2809.59	233.502
2812.15	244.291
2814.71	241.791
2817.27	242.691
2819.83	239.86
2822.39	236.59
2824.95	233.872
2827.51	232.892
2830.06	234.189
2832.62	234.21
2835.18	230.434
2837.74	235.047
2840.3	233.027
2842.86	237.072
2845.42	227.096
2847.97	241.894
2850.53	237.921
2853.09	230.56
2855.65	234.009
2858.21	237.093
2860.77	241.417
2863.33	246.326
2865.88	245.694
2868.44	246.025
2871	243.756
2873.56	246.704
2876.12	242.507
2878.68	247.721
2881.24	231.22
2883.8	235.121
2886.35	243.153
2888.91	243.68
2891.47	244.466
2894.03	247.259
2896.59	241.393
2899.15	253.23
2901.71	249.963
2904.26	249.688
2906.82	254.066
2909.38	246.311
2911.94	244.604
2914.5	248.574
2917.06	243.393
2919.62	245.331
2922.17	243.331
2924.73	241.057
2927.29	245.646
2929.85	242.982
2932.41	243.399
2934.97	246.218
2937.53	252.085
2940.09	245.84
2942.64	244.887
2945.2	238.012
2947.76	239.571
2950.32	243.757
2952.88	247.096
2955.44	242.593
2958	244.777
2960.55	249.719
2963.11	244.31
2965.67	235.745
2968.23	231.216
2970.79	236.91
2973.35	238.637
2975.91	239.819
2978.46	217.238
2981.02	227.982
2983.58	224.401
2986.14	218.879
2988.7	220.424
2991.26	223.921
2993.82	207.801
2996.38	215.241
2998.93	215.733
3001.49	224.161
3004.05	217.507
3006.61	211.11
3009.17	208.773
3011.73	205.667
3014.29	195.371
3016.84	215.58
3019.4	198.54
3021.96	200.017
3024.52	196.975
3027.08	200.246
3029.64	207.274
3032.2	201.239
3034.75	195.814
3037.31	200.933
3039.87	193.386
3042.43	192.49
3044.99	199.545
3047.55	194.606
3050.11	193.562
3052.67	194.688
3055.22	195.035
3057.78	192.226
3060.34	189.281
3062.9	187.91
3065.46	185.034
3068.02	188.749
3070.58	189.825
3073.13	192.373
3075.69	186.639
3078.25	182.399
3080.81	184.772
3083.37	181.302
3085.93	170.123
3088.49	183.855
3091.04	177.692
3093.6	180.74
3096.16	177.782
3098.72	179.869
3101.28	181.129
3103.84	175.581
3106.4	184.923
3108.96	178.236
3111.51	172.077
3114.07	173.047
3116.63	173.793
3119.19	171.84
3121.75	184.284
3124.31	171.331
3126.87	170.529
3129.42	179.054
3131.98	179.087
3134.54	163.333
3137.1	176.45
3139.66	165.198
3142.22	173.854
3144.78	171.244
3147.33	175.806
3149.89	169.406
3152.45	173.88
3155.01	171.718
3157.57	177.265
3160.13	169.104
3162.69	174.34
3165.25	172.577
3167.8	170.386
3170.36	165.477
3172.92	178.266
3175.48	183.919
3178.04	180.878
3180.6	183.774
3183.16	177.777
3185.71	167.236
3188.27	168.977
3190.83	161.557
3193.39	168.81
3195.95	173.664
3198.51	172.387
3201.07	172.59
3203.62	169.055
3206.18	174.106
3208.74	170.051
3211.3	163.69
3213.86	160.496
3216.42	161.969
3218.98	161.943
3221.54	158.854
3224.09	154.054
3226.65	158.757
3229.21	156.699
3231.77	153.246
3234.33	156.266
3236.89	155.215
3239.45	150.693
3242	151.071
3244.56	148.088
3247.12	144.479
3249.68	150.664
3252.24	144.386
3254.8	147.556
3257.36	144.834
3259.91	145.332
3262.47	140.778
3265.03	143.724
3267.59	135.507
3270.15	130.469
3272.71	127.274
3275.27	130.861
3277.83	139.139
3280.38	127.333
3282.94	133.998
3285.5	135.973
3288.06	125.149
3290.62	125.97
3293.18	122.821
3295.74	128.857
3298.29	118.797
3300.85	116.821
3303.41	122.503
3305.97	119.069
3308.53	122.975
3311.09	123.743
3313.65	118.848
3316.2	117.325
3318.76	120.372
3321.32	122.156
3323.88	116.804
3326.44	121.626
3329	125.1
3331.56	123.615
3334.12	121.948
3336.67	118.13
3339.23	118.075
3341.79	114.64
3344.35	113.775
3346.91	120.158
3349.47	126.19
3352.03	122.974
3354.58	117.879
3357.14	122.386
3359.7	121.443
3362.26	106.867
3364.82	115.643
3367.38	115.914
3369.94	115.168
3372.49	120.935
3375.05	108.021
3377.61	126.639
3380.17	113.974
3382.73	113.062
3385.29	122.347
3387.85	118.272
3390.41	123.474
3392.96	121.728
3395.52	114.803
3398.08	114.399
3400.64	113.777
3403.2	125.798
3405.76	112.594
3408.32	117.166
3410.87	116.899
3413.43	111.196
3415.99	115.055
3418.55	118.666
3421.11	114.805
3423.67	120.007
3426.23	120.687
3428.78	124.975
3431.34	118.144
3433.9	118.31
3436.46	114.877
3439.02	116.807
3441.58	111.066
3444.14	119.6
3446.7	114.638
3449.25	119.655
3451.81	124.657
3454.37	122.1
3456.93	115.855
3459.49	118.846
3462.05	111.89
3464.61	121.607
3467.16	121.473
3469.72	116.223
3472.28	117.422
3474.84	122.892
3477.4	117.244
3479.96	109.55
3482.52	118.499
3485.07	113.808
3487.63	121.073
3490.19	118.279
3492.75	116.418
3495.31	117.319
3497.87	121.296
3500.43	123.182
3502.99	120.936
3505.54	126.463
3508.1	117.732
3510.66	116.989
3513.22	116.756
3515.78	119.598
3518.34	126.456
3520.9	119.591
3523.45	117.292
3526.01	120.348
3528.57	113.814
3531.13	116.27
3533.69	120.902
3536.25	125.032
3538.81	120.63
3541.36	113.196
3543.92	123.35
3546.48	117.07
3549.04	122.146
3551.6	119.455
3554.16	119.496
3556.72	121.974
3559.28	120.63
3561.83	121.253
3564.39	120.349
3566.95	121.401
3569.51	123.855
3572.07	122.26
3574.63	124.631
3577.19	122.287
3579.74	121.1
3582.3	119.744
3584.86	126.076
3587.42	118.377
3589.98	125.645
3592.54	123.135
3595.1	119.962
3597.65	125.451
3600.21	122.458
3602.77	124.375
3605.33	126.546
3607.89	125.633
3610.45	129.136
3613.01	123.737
3615.56	125.022
3618.12	128.859
3620.68	122.028
3623.24	126.441
3625.8	120.935
3628.36	127.51
3630.92	124.403
3633.48	120.565
3636.03	123.182
3638.59	127.61
3641.15	122.012
3643.71	122.406
3646.27	121.62
3648.83	126.891
3651.39	129.238
3653.94	124.426
3656.5	127.901
3659.06	137.084
3661.62	124.183
3664.18	125.374
3666.74	128.184
3669.3	123.715
3671.85	123.531
3674.41	127.203
3676.97	123.51
3679.53	127.05
3682.09	131.873
3684.65	125.954
3687.21	120.98
3689.77	126.437
3692.32	125.839
3694.88	131.707
3697.44	134.135
3700	123.694