File: Example Data/Raman/Kara/12-20-10/C-Si-Graphene/2 bulk/CSGbulk2_2.txt
100	192.213
102.559	197.837
105.117	200.434
107.676	205.577
110.235	204.459
112.793	215.385
115.352	220.247
117.91	215.617
120.469	210.169
123.028	231.455
125.586	231.852
128.145	237.47
130.704	247.672
133.262	241.691
135.821	255.314
138.38	257.904
140.938	256.248
143.497	252.874
146.055	247.558
148.614	246.274
151.173	245.874
153.731	239.36
156.29	231.191
158.849	232.165
161.407	239.241
163.966	225.794
166.525	218.344
169.083	219.721
171.642	221.612
174.2	219.199
176.759	205.082
179.318	204.802
181.876	205.744
184.435	191.02
186.994	196.664
189.552	189.971
192.111	196.338
194.67	204.029
197.228	201.037
199.787	203.941
202.345	202.729
204.904	196.66
207.463	194.456
210.021	197.95
212.58	192.614
215.139	186.814
217.697	190.344
220.256	190.142
222.814	186.84
225.373	197.064
227.932	188.323
230.49	198.152
233.049	200.579
235.608	195.202
238.166	196.319
240.725	202.968
243.284	202.492
245.842	210.841
248.401	216.426
250.959	206.99
253.518	197.408
256.077	208.055
258.635	203.433
261.194	206.785
263.753	222.089
266.311	212.657
268.87	212.277
271.429	209.336
273.987	208.299
276.546	208.548
279.104	207.77
281.663	222.431
284.222	219.74
286.78	211.184
289.339	211.943
291.898	225.001
294.456	216.839
297.015	231.686
299.574	229.143
302.132	225.98
304.691	228.6
307.249	228.769
309.808	232.364
312.367	221.969
314.925	219.837
317.484	220.856
320.043	215.827
322.601	217.301
325.16	221.065
327.719	219.171
330.277	218.205
332.836	220.177
335.394	219.894
337.953	201.537
340.512	203.569
343.07	205.5
345.629	205.257
348.188	205.432
350.746	203.298
353.305	208.371
355.864	213.794
358.422	213.072
360.981	205.172
363.539	195.931
366.098	209.092
368.657	195.907
371.215	192.693
373.774	197.748
376.333	202.082
378.891	199.833
381.45	202.964
384.009	195.719
386.567	184.768
389.126	181.127
391.684	190.457
394.243	195.902
396.802	194.64
399.36	196.623
401.919	189.398
404.478	179.396
407.036	184.268
409.595	186.912
412.154	188.379
414.712	189.702
417.271	189.383
419.829	186.575
422.388	182.45
424.947	186.92
427.505	189.707
430.064	187.841
432.623	188.774
435.181	193.372
437.74	187.325
440.298	193.295
442.857	184.801
445.416	188.594
447.974	194.114
450.533	189.099
453.092	190.594
455.65	180.004
458.209	177.273
460.768	177.588
463.326	180.642
465.885	185.524
468.444	184.027
471.002	198.715
473.561	197.451
476.119	200.791
478.678	209.588
481.237	218.231
483.795	235.238
486.354	231.685
488.913	241.585
491.471	244.883
494.03	250.609
496.589	267.835
499.147	263.66
501.706	305.425
504.264	329.676
506.823	359.139
509.382	412.027
511.94	493.126
514.499	586.558
517.058	755.581
519.616	888.189
522.175	880.999
524.733	751.712
527.292	571.014
529.851	403.316
532.409	310.282
534.968	246.305
537.527	211.098
540.085	184.818
542.644	159.416
545.203	150.118
547.761	148.943
550.32	141.571
552.878	137.96
555.437	134.776
557.996	133.054
560.554	137.145
563.113	131.592
565.672	132.451
568.23	133.299
570.789	133.228
573.348	130.406
575.906	125.209
578.465	126.389
581.023	132.744
583.582	135.897
586.141	131.173
588.699	126.146
591.258	126.442
593.817	126.652
596.375	127.497
598.934	128.934
601.493	128.58
604.051	127.052
606.61	127.29
609.168	130.372
611.727	124.623
614.286	127.166
616.844	129.91
619.403	127.863
621.962	122.965
624.52	121.72
627.079	130.144
629.638	129.126
632.196	129
634.755	126.285
637.313	122.997
639.872	123.324
642.431	127.377
644.989	119.734
647.548	129.44
650.107	133.04
652.665	129.108
655.224	121.78
657.783	117.861
660.341	123.531
662.9	139.016
665.458	129.039
668.017	127.784
670.576	128.507
673.134	128.609
675.693	127.821
678.252	121.433
680.81	125.866
683.369	131.35
685.927	131.674
688.486	129.067
691.045	128.053
693.603	128.376
696.162	118.161
698.721	126.196
701.279	126.383
703.838	119.84
706.397	120.37
708.955	127.033
711.514	126.717
714.073	121.585
716.631	116.792
719.19	119.29
721.748	119.457
724.307	123.568
726.866	126.548
729.424	118.771
731.983	127
734.542	126.828
737.1	130.381
739.659	129.501
742.217	126.76
744.776	125.517
747.335	126.193
749.893	128.372
752.452	126.138
755.011	131.933
757.569	123.809
760.128	125.703
762.687	132.569
765.245	125.266
767.804	135.026
770.362	130.546
772.921	135.294
775.48	128.47
778.038	129.157
780.597	130.25
783.156	120.576
785.714	123.377
788.273	130.628
790.832	132.154
793.39	133.85
795.949	136.483
798.507	139.672
801.066	141.496
803.625	139.137
806.183	132.737
808.742	134.802
811.301	140.755
813.859	144.04
816.418	143.912
818.977	143.916
821.535	144.705
824.094	136.739
826.652	135.525
829.211	138.512
831.77	144.822
834.328	145.951
836.887	145.269
839.446	147.6
842.004	149.092
844.563	146.832
847.122	150.055
849.68	142.762
852.239	139.681
854.797	144.069
857.356	148.73
859.915	145.202
862.473	135.752
865.032	142.025
867.591	148.787
870.149	146.748
872.708	140.925
875.267	137.426
877.825	140.878
880.384	147.874
882.942	141.977
885.501	144.944
888.06	151.745
890.618	145.74
893.177	142.655
895.736	144.795
898.294	146.882
900.853	146.6
903.411	146.722
905.97	149.173
908.529	142.41
911.087	148.774
913.646	150.834
916.205	150.382
918.763	150.267
921.322	147.779
923.881	154.959
926.439	150.924
928.998	157.864
931.557	157.271
934.115	160.703
936.674	165.17
939.232	167.679
941.791	168.809
944.35	162.353
946.908	161.826
949.467	157.115
952.026	169.534
954.584	171.576
957.143	165.295
959.701	165.741
962.26	173.739
964.819	168.788
967.377	152.614
969.936	161.259
972.495	166.533
975.053	161.839
977.612	160.297
980.171	157.255
982.729	151.748
985.288	153.354
987.846	150.641
990.405	153.998
992.964	150.377
995.522	147.596
998.081	148.721
1000.64	145.827
1003.2	145.773
1005.76	150.125
1008.32	142.223
1010.87	148.262
1013.43	143.83
1015.99	141.318
1018.55	145.614
1021.11	152.629
1023.67	158.512
1026.23	158.19
1028.78	151.553
1031.34	150.016
1033.9	162.428
1036.46	151.941
1039.02	154.761
1041.58	160.434
1044.14	162.486
1046.7	156.687
1049.25	157.295
1051.81	171.427
1054.37	173.111
1056.93	170.978
1059.49	162.068
1062.05	161.039
1064.61	178.14
1067.16	171.71
1069.72	168.829
1072.28	174.407
1074.84	174.647
1077.4	183.186
1079.96	181.263
1082.52	185.73
1085.07	186
1087.63	185.119
1090.19	189.952
1092.75	199.694
1095.31	202.289
1097.87	199.341
1100.43	202.18
1102.99	198.873
1105.54	216.6
1108.1	217.138
1110.66	218.629
1113.22	223.694
1115.78	223.451
1118.34	218.6
1120.9	219.027
1123.45	225.032
1126.01	228.277
1128.57	246.094
1131.13	256.52
1133.69	255.225
1136.25	254.071
1138.81	256.092
1141.36	270.746
1143.92	286.679
1146.48	299.642
1149.04	304.895
1151.6	293.712
1154.16	310.484
1156.72	325.448
1159.28	333.02
1161.83	347.929
1164.39	343.445
1166.95	342.772
1169.51	360.792
1172.07	372.553
1174.63	368.074
1177.19	378.574
1179.74	395.493
1182.3	398.098
1184.86	407.684
1187.42	415.8
1189.98	408.717
1192.54	410.18
1195.1	414.497
1197.65	427.784
1200.21	440.157
1202.77	437.891
1205.33	446.456
1207.89	444.111
1210.45	451.004
1213.01	467.958
1215.57	469.568
1218.12	480.566
1220.68	492.435
1223.24	497.927
1225.8	501.259
1228.36	508.867
1230.92	516.817
1233.48	515.459
1236.03	519.478
1238.59	540.769
1241.15	541.047
1243.71	550.856
1246.27	555.66
1248.83	574.39
1251.39	575.445
1253.94	585.855
1256.5	607.368
1259.06	606.838
1261.62	621.143
1264.18	629.886
1266.74	646.442
1269.3	652.838
1271.85	666.905
1274.41	661.817
1276.97	661.189
1279.53	671.329
1282.09	696.136
1284.65	714.065
1287.21	710.34
1289.77	707.826
1292.32	719.682
1294.88	733.993
1297.44	758.925
1300	771.169
1302.56	767.123
1305.12	790.042
1307.68	792.194
1310.23	789.116
1312.79	804.407
1315.35	829.446
1317.91	852.374
1320.47	866.827
1323.03	862.023
1325.59	895.398
1328.15	878.034
1330.7	880.244
1333.26	903.499
1335.82	892.643
1338.38	887.283
1340.94	910.858
1343.5	918.335
1346.06	906.719
1348.61	905.12
1351.17	905.918
1353.73	894.999
1356.29	903.928
1358.85	880.275
1361.41	874.279
1363.97	894.798
1366.52	890.945
1369.08	867.758
1371.64	870.819
1374.2	850.048
1376.76	840.163
1379.32	841.122
1381.88	835.484
1384.43	826.879
1386.99	811.6
1389.55	795.416
1392.11	788.765
1394.67	762.92
1397.23	747.89
1399.79	744.168
1402.35	740.493
1404.9	727.109
1407.46	732.587
1410.02	717.348
1412.58	704.021
1415.14	695.996
1417.7	691.072
1420.26	686.36
1422.81	666.46
1425.37	657.514
1427.93	638.374
1430.49	637.721
1433.05	630.263
1435.61	636.117
1438.17	621.349
1440.72	617.852
1443.28	611.381
1445.84	599.149
1448.4	599.67
1450.96	599.927
1453.52	597.794
1456.08	594.63
1458.64	582.667
1461.19	575.559
1463.75	585.238
1466.31	591.19
1468.87	591.498
1471.43	579.856
1473.99	586.412
1476.55	567.759
1479.1	565.036
1481.66	566.361
1484.22	574.439
1486.78	564.767
1489.34	559.141
1491.9	561.926
1494.46	567.691
1497.01	564.038
1499.57	556.878
1502.13	568.799
1504.69	560.101
1507.25	557.724
1509.81	554.41
1512.37	548.931
1514.93	565.117
1517.48	569.621
1520.04	550.15
1522.6	556.696
1525.16	561.571
1527.72	569.509
1530.28	569.039
1532.84	567.713
1535.39	580.428
1537.95	588.961
1540.51	592.039
1543.07	612.849
1545.63	632.889
1548.19	630.295
1550.75	635.987
1553.3	661.085
1555.86	671.126
1558.42	704.687
1560.98	708.474
1563.54	760.236
1566.1	756.199
1568.66	775.062
1571.22	814.38
1573.77	859.453
1576.33	884.341
1578.89	915.474
1581.45	949.897
1584.01	975.157
1586.57	1003.36
1589.13	1036.55
1591.68	1064.9
1594.24	1088.17
1596.8	1101.96
1599.36	1117.19
1601.92	1127.5
1604.48	1097.06
1607.04	1104.72
1609.59	1063.32
1612.15	1057.41
1614.71	1022.63
1617.27	993.78
1619.83	930.024
1622.39	876.669
1624.95	820.263
1627.51	773.279
1630.06	724.246
1632.62	662.62
1635.18	621.317
1637.74	593.462
1640.3	548.274
1642.86	501.656
1645.42	471.071
1647.97	437.875
1650.53	405.784
1653.09	395.143
1655.65	382.774
1658.21	350.394
1660.77	336.607
1663.33	309.964
1665.88	307.105
1668.44	300.556
1671	284.627
1673.56	256.503
1676.12	250.845
1678.68	234.713
1681.24	226.493
1683.8	229.181
1686.35	217.021
1688.91	210.898
1691.47	199.983
1694.03	192.928
1696.59	184.508
1699.15	179.431
1701.71	177.387
1704.26	169.684
1706.82	166.182
1709.38	166.601
1711.94	160.133
1714.5	152.004
1717.06	142.231
1719.62	143.004
1722.17	144.35
1724.73	145.543
1727.29	138.955
1729.85	135.855
1732.41	123.694
1734.97	130.307
1737.53	118.274
1740.09	121.566
1742.64	116.809
1745.2	119.01
1747.76	120.275
1750.32	114.692
1752.88	119.307
1755.44	110.429
1758	110.632
1760.55	107.38
1763.11	103.71
1765.67	108.294
1768.23	106.589
1770.79	107.799
1773.35	109.319
1775.91	106.13
1778.46	108.371
1781.02	104.831
1783.58	98.5942
1786.14	101.798
1788.7	101.038
1791.26	100.392
1793.82	105.822
1796.38	104.745
1798.93	104.39
1801.49	100.877
1804.05	96.5533
1806.61	98.2938
1809.17	97.5159
1811.73	96.7443
1814.29	98.6555
1816.84	97.0865
1819.4	102.935
1821.96	95.8514
1824.52	96.1572
1827.08	95.4579
1829.64	92.367
1832.2	100.513
1834.75	98.5954
1837.31	98.3883
1839.87	94.4677
1842.43	92.4732
1844.99	94.0994
1847.55	93.4599
1850.11	87.9617
1852.67	100.542
1855.22	99.2425
1857.78	82.9421
1860.34	90.8899
1862.9	93.9815
1865.46	93.2382
1868.02	91.43
1870.58	90.0776
1873.13	90.7037
1875.69	93.5075
1878.25	94.978
1880.81	87.2751
1883.37	86.6341
1885.93	86.8496
1888.49	85.602
1891.04	83.5056
1893.6	88.3443
1896.16	86.3474
1898.72	85.5291
1901.28	91.5631
1903.84	96.365
1906.4	96.7925
1908.96	95.5213
1911.51	91.1172
1914.07	86.4766
1916.63	86.908
1919.19	84.5269
1921.75	86.2363
1924.31	91.3008
1926.87	91.7961
1929.42	92.0053
1931.98	87.2098
1934.54	88.5913
1937.1	91.6416
1939.66	85.8003
1942.22	83.4375
1944.78	83.3212
1947.33	82.4822
1949.89	82.7927
1952.45	84.8156
1955.01	85.5812
1957.57	90.1918
1960.13	86.3819
1962.69	83.5561
1965.25	80.173
1967.8	82.1635
1970.36	86.8435
1972.92	78.544
1975.48	77.1331
1978.04	84.635
1980.6	82.623
1983.16	78.8981
1985.71	85.3031
1988.27	87.8362
1990.83	80.9862
1993.39	84.2259
1995.95	80.617
1998.51	83.5485
2001.07	84.78
2003.62	80.7211
2006.18	89.78
2008.74	93.6357
2011.3	93.093
2013.86	84.9316
2016.42	83.4416
2018.98	82.7072
2021.54	84.5839
2024.09	87.13
2026.65	86.0201
2029.21	84.7903
2031.77	83.3076
2034.33	85.0743
2036.89	87.0884
2039.45	84.9504
2042	82.5901
2044.56	86.9443
2047.12	88.2479
2049.68	87.3945
2052.24	86.9661
2054.8	89.173
2057.36	87.5281
2059.91	86.6206
2062.47	86.441
2065.03	85.1027
2067.59	85.4692
2070.15	84.979
2072.71	80.8743
2075.27	80.3192
2077.83	77.4453
2080.38	81.6672
2082.94	88.0189
2085.5	86.7113
2088.06	86.2085
2090.62	80.0638
2093.18	81.2947
2095.74	84.2519
2098.29	86.4873
2100.85	88.9549
2103.41	85.5717
2105.97	82.4869
2108.53	84.9149
2111.09	85.608
2113.65	87.7003
2116.2	84.4658
2118.76	85.8431
2121.32	83.99
2123.88	87.1954
2126.44	87.7519
2129	84.0382
2131.56	85.4354
2134.12	79.8242
2136.67	80.0446
2139.23	86.9064
2141.79	84.9324
2144.35	88.2727
2146.91	85.9167
2149.47	88.876
2152.03	87.9313
2154.58	88.4313
2157.14	87.3527
2159.7	86.9279
2162.26	91.3036
2164.82	87.9744
2167.38	88.5291
2169.94	88.1676
2172.49	87.0962
2175.05	89.5167
2177.61	85.6049
2180.17	81.6082
2182.73	85.7072
2185.29	89.5823
2187.85	88.9497
2190.41	88.6832
2192.96	85.2652
2195.52	84.8756
2198.08	91.3631
2200.64	88.7033
2203.2	86.0387
2205.76	86.3495
2208.32	86.4013
2210.87	90.625
2213.43	89.3673
2215.99	91.2774
2218.55	90.8653
2221.11	94.7059
2223.67	88.3917
2226.23	86.9471
2228.78	88.221
2231.34	94.6939
2233.9	92.4015
2236.46	87.9331
2239.02	89.8133
2241.58	85.678
2244.14	90.034
2246.7	97.9106
2249.25	95.3757
2251.81	94.663
2254.37	91.7381
2256.93	98.5041
2259.49	91.133
2262.05	92.0396
2264.61	92.3014
2267.16	94.8936
2269.72	97.5595
2272.28	92.6144
2274.84	95.5573
2277.4	95.4749
2279.96	100.899
2282.52	99.846
2285.07	96.9092
2287.63	98.3575
2290.19	96.8312
2292.75	96.9108
2295.31	95.9799
2297.87	97.2525
2300.43	98.9133
2302.99	100.354
2305.54	102.87
2308.1	97.7141
2310.66	98.1669
2313.22	101.064
2315.78	103.045
2318.34	97.0752
2320.9	103.43
2323.45	100.031
2326.01	100.41
2328.57	106.029
2331.13	112.589
2333.69	119.971
2336.25	122.774
2338.81	118.97
2341.36	108.578
2343.92	104.154
2346.48	101.516
2349.04	104.993
2351.6	109.835
2354.16	111.352
2356.72	107.853
2359.28	103.7
2361.83	113.072
2364.39	113.109
2366.95	110.804
2369.51	114.086
2372.07	113.117
2374.63	112.215
2377.19	110.938
2379.74	113.657
2382.3	115.94
2384.86	118.706
2387.42	117.273
2389.98	120.857
2392.54	115.768
2395.1	118.328
2397.65	116.12
2400.21	119.568
2402.77	127.255
2405.33	126.511
2407.89	125.025
2410.45	127.009
2413.01	130.422
2415.56	130.616
2418.12	132.17
2420.68	127.464
2423.24	138.546
2425.8	141.561
2428.36	140.577
2430.92	151.148
2433.48	159.38
2436.03	161.767
2438.59	177.954
2441.15	176.638
2443.71	172.397
2446.27	172.057
2448.83	170.57
2451.39	156.651
2453.94	152.061
2456.5	156.584
2459.06	157.955
2461.62	154.321
2464.18	155.205
2466.74	150.709
2469.3	148.699
2471.85	150.563
2474.41	150.378
2476.97	150.076
2479.53	154.066
2482.09	150.044
2484.65	154.322
2487.21	157.557
2489.77	155.103
2492.32	149.913
2494.88	152.503
2497.44	162.253
2500	158.155
2502.56	161.109
2505.12	156.896
2507.68	153.535
2510.23	157.077
2512.79	158.125
2515.35	159.332
2517.91	163.464
2520.47	161.249
2523.03	163.94
2525.59	164.154
2528.15	159.107
2530.7	168.013
2533.26	167.42
2535.82	172.622
2538.38	171.381
2540.94	170.453
2543.5	169.074
2546.06	169.482
2548.61	172.437
2551.17	175.303
2553.73	173.9
2556.29	174.647
2558.85	180.425
2561.41	180.452
2563.97	174.059
2566.52	186.543
2569.08	186.704
2571.64	175.643
2574.2	180.017
2576.76	175.599
2579.32	177.748
2581.88	182.053
2584.44	184.969
2586.99	178.638
2589.55	181.125
2592.11	184.351
2594.67	182.692
2597.23	182.804
2599.79	192.344
2602.35	183.053
2604.9	194.407
2607.46	194.245
2610.02	196.862
2612.58	198.02
2615.14	190.163
2617.7	189.867
2620.26	191.326
2622.81	194.255
2625.37	192.559
2627.93	195.785
2630.49	199.678
2633.05	192.363
2635.61	198.094
2638.17	199.909
2640.72	196.802
2643.28	207.325
2645.84	203.364
2648.4	201.822
2650.96	200.972
2653.52	199.084
2656.08	196.25
2658.64	205.496
2661.19	207.157
2663.75	198.356
2666.31	203.069
2668.87	205.928
2671.43	204.149
2673.99	210.047
2676.55	209.604
2679.1	199.566
2681.66	203.795
2684.22	205.879
2686.78	201.816
2689.34	210.311
2691.9	207.196
2694.46	218.987
2697.01	215.943
2699.57	224.631
2702.13	213.825
2704.69	205.836
2707.25	211.466
2709.81	216.299
2712.37	217.299
2714.93	224.054
2717.48	213.191
2720.04	227.131
2722.6	218.763
2725.16	220.608
2727.72	220.522
2730.28	216.402
2732.84	212.906
2735.39	213.015
2737.95	220.096
2740.51	216.792
2743.07	221.671
2745.63	219.066
2748.19	219.121
2750.75	216.656
2753.3	221.842
2755.86	219.863
2758.42	215.716
2760.98	220.735
2763.54	221.168
2766.1	221.178
2768.66	228.029
2771.22	219.7
2773.77	215.339
2776.33	217.81
2778.89	222.753
2781.45	227.298
2784.01	230.034
2786.57	231.475
2789.13	234.231
2791.68	232.414
2794.24	233.157
2796.8	237.65
2799.36	226.877
2801.92	227.017
2804.48	230.353
2807.04	228.452
2809.59	227.09
2812.15	233.7
2814.71	238.268
2817.27	231.663
2819.83	237.33
2822.39	238.462
2824.95	236.293
2827.51	244.245
2830.06	239.564
2832.62	230.77
2835.18	235.8
2837.74	241.734
2840.3	235.37
2842.86	228.075
2845.42	235.949
2847.97	243.044
2850.53	235.18
2853.09	249.082
2855.65	241.033
2858.21	243.955
2860.77	245.165
2863.33	245.799
2865.88	239.031
2868.44	236.058
2871	240.184
2873.56	252.935
2876.12	245.428
2878.68	243.672
2881.24	243.559
2883.8	246.834
2886.35	243.769
2888.91	247.891
2891.47	245.757
2894.03	235.897
2896.59	259.302
2899.15	234.759
2901.71	245.617
2904.26	251.768
2906.82	247.549
2909.38	251.457
2911.94	253.756
2914.5	247.72
2917.06	244.971
2919.62	247.511
2922.17	259.472
2924.73	255.073
2927.29	252.411
2929.85	253.796
2932.41	251.468
2934.97	242.662
2937.53	250.351
2940.09	250.827
2942.64	245.289
2945.2	250.863
2947.76	244.865
2950.32	247.911
2952.88	247.18
2955.44	253.079
2958	240.201
2960.55	242.233
2963.11	239.327
2965.67	241.677
2968.23	234.815
2970.79	230.324
2973.35	224.886
2975.91	218.52
2978.46	231.038
2981.02	227.205
2983.58	231.559
2986.14	224.807
2988.7	221.733
2991.26	223.994
2993.82	226.423
2996.38	217.692
2998.93	215.733
3001.49	215.499
3004.05	213.682
3006.61	209.257
3009.17	213.812
3011.73	205.057
3014.29	203.679
3016.84	206.647
3019.4	193.421
3021.96	198.128
3024.52	199.184
3027.08	197.12
3029.64	195.753
3032.2	200.745
3034.75	195.351
3037.31	192.893
3039.87	201.734
3042.43	202.184
3044.99	205.896
3047.55	193.286
3050.11	192.046
3052.67	192.987
3055.22	199.47
3057.78	187.432
3060.34	196.134
3062.9	190.239
3065.46	195.138
3068.02	190.569
3070.58	187.258
3073.13	188.155
3075.69	195.723
3078.25	194.939
3080.81	185.367
3083.37	189.853
3085.93	183.54
3088.49	182.24
3091.04	195.026
3093.6	177.746
3096.16	182.476
3098.72	170.667
3101.28	173.492
3103.84	181.391
3106.4	185.885
3108.96	180.342
3111.51	171.25
3114.07	171.782
3116.63	168.783
3119.19	171.63
3121.75	168.406
3124.31	177.985
3126.87	170.797
3129.42	175.39
3131.98	173.808
3134.54	176.407
3137.1	187.838
3139.66	183.371
3142.22	167.948
3144.78	177.402
3147.33	169.957
3149.89	163.428
3152.45	165.919
3155.01	175.551
3157.57	177.543
3160.13	177.15
3162.69	174.194
3165.25	173.425
3167.8	166.618
3170.36	172.787
3172.92	171.703
3175.48	171.673
3178.04	175.227
3180.6	171.551
3183.16	170.606
3185.71	175.79
3188.27	176.306
3190.83	173.915
3193.39	174.239
3195.95	174.804
3198.51	175.496
3201.07	168.168
3203.62	169.485
3206.18	162.347
3208.74	173.024
3211.3	167.936
3213.86	168.767
3216.42	163.178
3218.98	153.836
3221.54	165.316
3224.09	153.431
3226.65	159.083
3229.21	155.98
3231.77	152.223
3234.33	155.121
3236.89	155.331
3239.45	153.496
3242	146.347
3244.56	148.389
3247.12	147.592
3249.68	141.945
3252.24	144.918
3254.8	140.703
3257.36	144.323
3259.91	142.676
3262.47	138.255
3265.03	134.52
3267.59	140.567
3270.15	138.922
3272.71	132.902
3275.27	132.685
3277.83	132.067
3280.38	124.16
3282.94	128.487
3285.5	132.737
3288.06	132.937
3290.62	132.488
3293.18	132.986
3295.74	128.812
3298.29	125.581
3300.85	125.176
3303.41	127.803
3305.97	131.812
3308.53	119.513
3311.09	134.936
3313.65	132.806
3316.2	120.886
3318.76	120.527
3321.32	125.73
3323.88	122.488
3326.44	128.675
3329	124.139
3331.56	118.724
3334.12	123.015
3336.67	126.135
3339.23	118.89
3341.79	115.722
3344.35	116.231
3346.91	124.069
3349.47	125.613
3352.03	119.135
3354.58	114.189
3357.14	119.424
3359.7	122.343
3362.26	119.889
3364.82	112.436
3367.38	122.78
3369.94	118.068
3372.49	110.852
3375.05	112.904
3377.61	121.192
3380.17	115.256
3382.73	118.484
3385.29	115.069
3387.85	121.059
3390.41	115.195
3392.96	117.591
3395.52	117.559
3398.08	118.659
3400.64	115.789
3403.2	120.205
3405.76	115.734
3408.32	113.078
3410.87	116.397
3413.43	115.382
3415.99	111.12
3418.55	118.456
3421.11	123.031
3423.67	122.842
3426.23	123.86
3428.78	114.647
3431.34	121.767
3433.9	114.534
3436.46	114.169
3439.02	123.996
3441.58	126.947
3444.14	118.108
3446.7	120.869
3449.25	124.033
3451.81	126.077
3454.37	112.364
3456.93	125.901
3459.49	114.258
3462.05	122.132
3464.61	125.771
3467.16	122.764
3469.72	119.745
3472.28	114.591
3474.84	114.414
3477.4	113.501
3479.96	124.673
3482.52	122.064
3485.07	120.541
3487.63	120.589
3490.19	124.512
3492.75	124.997
3495.31	120.889
3497.87	117.819
3500.43	109.449
3502.99	123.941
3505.54	120.929
3508.1	116.222
3510.66	124.215
3513.22	118.096
3515.78	114.481
3518.34	116.924
3520.9	116.979
3523.45	120.808
3526.01	120.659
3528.57	119.299
3531.13	118.699
3533.69	116.605
3536.25	122.048
3538.81	122.713
3541.36	116.149
3543.92	125.688
3546.48	122.503
3549.04	125.215
3551.6	122.506
3554.16	128.714
3556.72	125.273
3559.28	118.863
3561.83	120.329
3564.39	120.487
3566.95	124.823
3569.51	121.278
3572.07	122.069
3574.63	109.893
3577.19	114.281
3579.74	120.867
3582.3	117.855
3584.86	122.638
3587.42	115.907
3589.98	114.746
3592.54	130.309
3595.1	127.918
3597.65	116.206
3600.21	126.908
3602.77	122.613
3605.33	128.817
3607.89	129.807
3610.45	125.036
3613.01	130.5
3615.56	124.617
3618.12	124.819
3620.68	120.815
3623.24	131.602
3625.8	124.897
3628.36	128.146
3630.92	130.167
3633.48	128.911
3636.03	132.505
3638.59	127.178
3641.15	113.453
3643.71	128.261
3646.27	129.772
3648.83	130.824
3651.39	121.939
3653.94	119.951
3656.5	125.165
3659.06	129.131
3661.62	124.838
3664.18	129.979
3666.74	122.982
3669.3	124.981
3671.85	121.633
3674.41	126.671
3676.97	129.095
3679.53	126.169
3682.09	130.048
3684.65	123.787
3687.21	126.892
3689.77	127.036
3692.32	129.153
3694.88	129.735
3697.44	122.717
3700	135.582