File: Example Data/Raman/Kara/12-20-10/C-Si-Graphene/2 bulk/CSGbulk2_4.txt
100	83.3563
102.559	82.5399
105.117	80.7032
107.676	85.4032
110.235	85.563
112.793	93.5894
115.352	96.1152
117.91	90.3755
120.469	82.2748
123.028	86.5961
125.586	96.8182
128.145	101.354
130.704	101.89
133.262	110.255
135.821	112.819
138.38	107.94
140.938	105.952
143.497	105.601
146.055	98.207
148.614	104.466
151.173	105.168
153.731	101.754
156.29	97.4189
158.849	96.5152
161.407	102.626
163.966	100.163
166.525	92.3065
169.083	88.4983
171.642	97.0368
174.2	84.6456
176.759	85.5588
179.318	89.1976
181.876	90.2415
184.435	86.6229
186.994	85.0104
189.552	76.6703
192.111	82.1293
194.67	89.8572
197.228	87.2177
199.787	83.345
202.345	76.0845
204.904	72.2964
207.463	71.0597
210.021	72.0092
212.58	78.1535
215.139	83.9856
217.697	83.7294
220.256	83.8961
222.814	86.1188
225.373	85.6991
227.932	79.2248
230.49	83.1074
233.049	84.1663
235.608	82.2567
238.166	84.4151
240.725	87.1722
243.284	83.899
245.842	82.3987
248.401	82.107
250.959	81.8124
253.518	87.3343
256.077	81.1057
258.635	83.1392
261.194	89.1832
263.753	94.0731
266.311	96.1873
268.87	89.085
271.429	87.0265
273.987	89.7693
276.546	91.9453
279.104	87.3509
281.663	91.7493
284.222	89.2064
286.78	91.4665
289.339	93.1183
291.898	89.7597
294.456	93.0244
297.015	94.2808
299.574	93.8943
302.132	95.4222
304.691	99.1518
307.249	101.432
309.808	93.5882
312.367	90.8547
314.925	89.8077
317.484	88.6598
320.043	86.6208
322.601	84.1649
325.16	85.5269
327.719	88.2133
330.277	86.2666
332.836	81.7945
335.394	84.6324
337.953	85.288
340.512	85.264
343.07	90.8034
345.629	93.2574
348.188	86.0623
350.746	82.944
353.305	95.963
355.864	89.9176
358.422	81.5518
360.981	79.6943
363.539	82.2586
366.098	80.6135
368.657	79.9704
371.215	80.0155
373.774	78.3198
376.333	74.704
378.891	73.4156
381.45	74.8987
384.009	80.1914
386.567	79.9132
389.126	74.7225
391.684	70.7532
394.243	75.5385
396.802	71.8989
399.36	78.5534
401.919	85.1533
404.478	84.6255
407.036	76.9658
409.595	74.6518
412.154	78.5257
414.712	73.8
417.271	69
419.829	70.5314
422.388	76.0093
424.947	76.1748
427.505	75.2169
430.064	75.1183
432.623	76.5488
435.181	77.3979
437.74	72.2901
440.298	76.602
442.857	82.4023
445.416	81.4628
447.974	78.1329
450.533	76.5366
453.092	69.2296
455.65	70.1933
458.209	76.8556
460.768	75.2042
463.326	71.0923
465.885	75.5451
468.444	87.1893
471.002	78.4076
473.561	77.5697
476.119	82.1572
478.678	85.9582
481.237	87.11
483.795	98.9482
486.354	97.5686
488.913	105.646
491.471	119.011
494.03	126.871
496.589	124.701
499.147	130.713
501.706	128.33
504.264	137.413
506.823	162.161
509.382	197.318
511.94	235.782
514.499	277.084
517.058	363.269
519.616	418.605
522.175	402.417
524.733	342.065
527.292	270.934
529.851	181.202
532.409	136.11
534.968	103.931
537.527	85.7161
540.085	77.3762
542.644	71.9908
545.203	63.0735
547.761	58.372
550.32	51.6037
552.878	45.5874
555.437	46.3941
557.996	50.2114
560.554	46.6612
563.113	45.4831
565.672	48.6841
568.23	53.5896
570.789	52.0007
573.348	47.1545
575.906	47.0176
578.465	49.3778
581.023	46.8959
583.582	47.3486
586.141	47.6958
588.699	44.5371
591.258	40.5323
593.817	45.5376
596.375	44.5241
598.934	44.9927
601.493	44.7313
604.051	46.899
606.61	47.8815
609.168	41.3862
611.727	38.5117
614.286	41.4909
616.844	44.7059
619.403	44.1785
621.962	43.3882
624.52	45.48
627.079	46.3937
629.638	42.6638
632.196	46.6552
634.755	44.1859
637.313	42.1892
639.872	45.6114
642.431	51.7088
644.989	52.388
647.548	44.0612
650.107	47.3203
652.665	48.2136
655.224	45.3901
657.783	42.1926
660.341	40.9236
662.9	48.2404
665.458	42.0405
668.017	43.3864
670.576	44.2224
673.134	43.7449
675.693	44.6075
678.252	43.988
680.81	47.5684
683.369	44.4001
685.927	42.1147
688.486	43.6808
691.045	45.5332
693.603	43.8612
696.162	45.1072
698.721	40.4916
701.279	44.5944
703.838	45.2378
706.397	45.8823
708.955	48.2078
711.514	49.6414
714.073	52.1646
716.631	41.0382
719.19	45.9228
721.748	42.8827
724.307	39.5423
726.866	39.7728
729.424	38.1143
731.983	43.6011
734.542	49.4364
737.1	44.8137
739.659	43.7493
742.217	40.9611
744.776	38.7688
747.335	44.9395
749.893	44.6043
752.452	44.948
755.011	48.7964
757.569	45.8311
760.128	46.7658
762.687	49.5468
765.245	45.9295
767.804	50.253
770.362	46.4621
772.921	54.3188
775.48	52.4259
778.038	52.1941
780.597	54.1084
783.156	51.7419
785.714	49.2275
788.273	49.5728
790.832	50.3954
793.39	50.0727
795.949	49.6954
798.507	52.0793
801.066	55.5466
803.625	53.7337
806.183	50.2739
808.742	49.3532
811.301	52.4763
813.859	53.4532
816.418	51.0693
818.977	52.6793
821.535	59.9756
824.094	49.7816
826.652	53.4252
829.211	56.9121
831.77	58.1873
834.328	59.3243
836.887	56.9934
839.446	52.2498
842.004	54.3577
844.563	59.9208
847.122	57.259
849.68	60.2836
852.239	61.3618
854.797	58.2208
857.356	56.6124
859.915	58.9215
862.473	54.1227
865.032	55.5166
867.591	50.6869
870.149	52.5
872.708	54.25
875.267	57.4669
877.825	60.2806
880.384	58.2717
882.942	58.3394
885.501	53.9762
888.06	56.3139
890.618	58.6126
893.177	60.2735
895.736	58.6488
898.294	56.5169
900.853	58.7615
903.411	56.3908
905.97	52.1897
908.529	54.9772
911.087	54.7279
913.646	55.0736
916.205	58.9246
918.763	60.7506
921.322	56.2981
923.881	62.2847
926.439	60.3548
928.998	61.4914
931.557	55.9103
934.115	61.7551
936.674	67.8707
939.232	67.8395
941.791	69.1204
944.35	68.8779
946.908	69.7571
949.467	66.4534
952.026	68.3808
954.584	68.5641
957.143	68.1909
959.701	67.7555
962.26	66.0737
964.819	63.6065
967.377	57.8166
969.936	67.8727
972.495	70.7309
975.053	67.7014
977.612	65.9061
980.171	68.3965
982.729	67.8289
985.288	58.4
987.846	58.9444
990.405	66.5428
992.964	57.3582
995.522	58.2634
998.081	63.2421
1000.64	60.2685
1003.2	56.1048
1005.76	58.385
1008.32	56.5148
1010.87	55.9447
1013.43	54.1719
1015.99	54
1018.55	53.1748
1021.11	54.1797
1023.67	59.1758
1026.23	61.2101
1028.78	58.2558
1031.34	64.0234
1033.9	62.704
1036.46	56.8384
1039.02	58.8937
1041.58	63.8253
1044.14	66.8278
1046.7	66.6785
1049.25	67.985
1051.81	71.8217
1054.37	69.7108
1056.93	67.8844
1059.49	71.2703
1062.05	70.6339
1064.61	71.5148
1067.16	72.2354
1069.72	69.8031
1072.28	66.1034
1074.84	65.8242
1077.4	69.7726
1079.96	72.642
1082.52	69.9619
1085.07	72.8227
1087.63	74.4276
1090.19	80.2031
1092.75	83.1908
1095.31	80.9938
1097.87	79.8278
1100.43	83.5253
1102.99	84.3141
1105.54	86.9986
1108.1	83.233
1110.66	88.1971
1113.22	88.7717
1115.78	92.9812
1118.34	94.6483
1120.9	95.8323
1123.45	100.512
1126.01	100.871
1128.57	101.169
1131.13	100.81
1133.69	105.875
1136.25	109.078
1138.81	115.462
1141.36	123.825
1143.92	128.569
1146.48	127.177
1149.04	127.543
1151.6	139.831
1154.16	150.813
1156.72	146.306
1159.28	136.866
1161.83	149.686
1164.39	148.669
1166.95	155.327
1169.51	159.246
1172.07	163.416
1174.63	169.559
1177.19	163.251
1179.74	176.848
1182.3	182.383
1184.86	180.756
1187.42	188.127
1189.98	191.971
1192.54	187.14
1195.1	182.089
1197.65	188.795
1200.21	204.124
1202.77	212.082
1205.33	206.761
1207.89	198.716
1210.45	192.186
1213.01	204.701
1215.57	206.716
1218.12	210.848
1220.68	220.727
1223.24	231.563
1225.8	240.869
1228.36	245.067
1230.92	239.678
1233.48	233.464
1236.03	245.634
1238.59	240.356
1241.15	256.108
1243.71	254.385
1246.27	254.247
1248.83	264.731
1251.39	266.022
1253.94	265.663
1256.5	279.366
1259.06	293.027
1261.62	286.057
1264.18	281.13
1266.74	302.069
1269.3	312.669
1271.85	316.268
1274.41	310.813
1276.97	313.839
1279.53	319.405
1282.09	328.598
1284.65	334.656
1287.21	334.946
1289.77	339.624
1292.32	341.569
1294.88	342.455
1297.44	355.654
1300	359.971
1302.56	355.783
1305.12	372.461
1307.68	368.037
1310.23	373.127
1312.79	383.185
1315.35	394.747
1317.91	407.935
1320.47	406.819
1323.03	402.436
1325.59	406.869
1328.15	411.678
1330.7	429.54
1333.26	419.165
1335.82	430.249
1338.38	431.766
1340.94	434.892
1343.5	437.075
1346.06	428.346
1348.61	429.123
1351.17	441.964
1353.73	434.516
1356.29	436.641
1358.85	428.741
1361.41	434.981
1363.97	429.99
1366.52	433.521
1369.08	428.445
1371.64	414.007
1374.2	406.59
1376.76	403.739
1379.32	395.78
1381.88	388.113
1384.43	382.346
1386.99	372.823
1389.55	375.048
1392.11	375.861
1394.67	366.849
1397.23	363.509
1399.79	362.502
1402.35	346.362
1404.9	339.827
1407.46	337.02
1410.02	330.918
1412.58	329.449
1415.14	335.834
1417.7	333.844
1420.26	318.782
1422.81	309.763
1425.37	308.984
1427.93	311.33
1430.49	299.126
1433.05	285.516
1435.61	303.522
1438.17	293.005
1440.72	285.314
1443.28	279.172
1445.84	272.803
1448.4	280.559
1450.96	288.23
1453.52	285.861
1456.08	285.079
1458.64	282.688
1461.19	268.079
1463.75	268.794
1466.31	284.936
1468.87	275.314
1471.43	271.562
1473.99	267.066
1476.55	269.445
1479.1	264.888
1481.66	269.093
1484.22	268.161
1486.78	258.016
1489.34	260.793
1491.9	267.208
1494.46	261.403
1497.01	254.809
1499.57	255.81
1502.13	256.154
1504.69	261.191
1507.25	262.116
1509.81	250.45
1512.37	253.031
1514.93	253.972
1517.48	260.032
1520.04	265.734
1522.6	271.708
1525.16	259.96
1527.72	268.251
1530.28	273.448
1532.84	275.738
1535.39	272.865
1537.95	276.26
1540.51	287.571
1543.07	288.672
1545.63	284.865
1548.19	286.877
1550.75	301.113
1553.3	304.691
1555.86	314.198
1558.42	324.161
1560.98	331.167
1563.54	358.683
1566.1	355.678
1568.66	370.361
1571.22	390.684
1573.77	394.87
1576.33	423.61
1578.89	442.743
1581.45	449.514
1584.01	465.566
1586.57	479.176
1589.13	485.991
1591.68	502.75
1594.24	520.68
1596.8	525.915
1599.36	532.506
1601.92	545.089
1604.48	531.12
1607.04	526.847
1609.59	520.997
1612.15	492.806
1614.71	484.629
1617.27	472.66
1619.83	455.469
1622.39	423.017
1624.95	395.856
1627.51	374.673
1630.06	345.022
1632.62	319.857
1635.18	297.741
1637.74	271.812
1640.3	250.422
1642.86	235.608
1645.42	221.366
1647.97	213.002
1650.53	205.533
1653.09	183.888
1655.65	173.961
1658.21	166.198
1660.77	159.412
1663.33	140.843
1665.88	149.315
1668.44	134.163
1671	120.536
1673.56	112.434
1676.12	116.568
1678.68	100.164
1681.24	95.2309
1683.8	90.9717
1686.35	89.6546
1688.91	88.0848
1691.47	83.8843
1694.03	77.215
1696.59	70.7422
1699.15	73.3776
1701.71	74.9849
1704.26	71.3606
1706.82	67.4742
1709.38	62.0218
1711.94	58.6667
1714.5	57.9074
1717.06	60.2629
1719.62	58.8546
1722.17	51.4
1724.73	50.9891
1727.29	49.5678
1729.85	51.4566
1732.41	49.8798
1734.97	44.6381
1737.53	48.7038
1740.09	44.4446
1742.64	45.1665
1745.2	46.4975
1747.76	47.3165
1750.32	40.3083
1752.88	40.8686
1755.44	45.8638
1758	36.0072
1760.55	36.0757
1763.11	41.7798
1765.67	41.2651
1768.23	45.8585
1770.79	45.0231
1773.35	39.4306
1775.91	36.9704
1778.46	37.8928
1781.02	38.5011
1783.58	38.5011
1786.14	38.5011
1788.7	38.5011
1791.26	38.5011
1793.82	36.5222
1796.38	34.6905
1798.93	38.6548
1801.49	36.8861
1804.05	35.9682
1806.61	35.931
1809.17	37.0611
1811.73	36
1814.29	35.4122
1816.84	33.0346
1819.4	33.742
1821.96	36.4143
1824.52	33.3296
1827.08	29.6223
1829.64	31.7938
1832.2	28.7039
1834.75	26.8085
1837.31	35.5812
1839.87	29.3083
1842.43	37.6781
1844.99	35.3564
1847.55	29.2792
1850.11	34.2383
1852.67	36.2207
1855.22	30.659
1857.78	30.141
1860.34	26.1913
1862.9	28.3445
1865.46	26.7558
1868.02	28.084
1870.58	35.0565
1873.13	33.0839
1875.69	31.505
1878.25	30.6775
1880.81	29.9755
1883.37	31.4637
1885.93	29.6204
1888.49	27.07
1891.04	26.1393
1893.6	27.5318
1896.16	26.2739
1898.72	31.2518
1901.28	31.2373
1903.84	27.188
1906.4	30.9299
1908.96	31.9114
1911.51	28.0031
1914.07	27.5969
1916.63	26.9987
1919.19	25.286
1921.75	25.1027
1924.31	26.3086
1926.87	28.0932
1929.42	27.7293
1931.98	28.7995
1934.54	28.3803
1937.1	26.8634
1939.66	27.6185
1942.22	26.6471
1944.78	27.6404
1947.33	27.1582
1949.89	29.2216
1952.45	30.1718
1955.01	26.1995
1957.57	26.7781
1960.13	25.8436
1962.69	24.5939
1965.25	22.9944
1967.8	26.2468
1970.36	27.0043
1972.92	24.4514
1975.48	24.5453
1978.04	23.1849
1980.6	26.034
1983.16	25.7387
1985.71	28.2014
1988.27	28.7364
1990.83	24.3245
1993.39	25.7832
1995.95	24.9534
1998.51	25.1975
2001.07	22.8301
2003.62	25.3651
2006.18	28.4228
2008.74	25.8969
2011.3	29.8483
2013.86	28.0181
2016.42	28.5823
2018.98	28.9638
2021.54	28.498
2024.09	28.1948
2026.65	27.8106
2029.21	22.7901
2031.77	24.4364
2034.33	22.4004
2036.89	25.5211
2039.45	27.4975
2042	29.4959
2044.56	28.2704
2047.12	26.3521
2049.68	23.7818
2052.24	25.2817
2054.8	27.0416
2057.36	28.9548
2059.91	29.4228
2062.47	28.1073
2065.03	28.8118
2067.59	28.5497
2070.15	27.0506
2072.71	27.7998
2075.27	27.9168
2077.83	26.3711
2080.38	25.5002
2082.94	25.3389
2085.5	27.8169
2088.06	25.8325
2090.62	26.2845
2093.18	29.1255
2095.74	28.3328
2098.29	25.6606
2100.85	25.1973
2103.41	24.9985
2105.97	27.8841
2108.53	28.3761
2111.09	28.5984
2113.65	27.8202
2116.2	28.3715
2118.76	27.1981
2121.32	27.1531
2123.88	28.9116
2126.44	27.2268
2129	27.7477
2131.56	27.4976
2134.12	28.6736
2136.67	26.3225
2139.23	26.2655
2141.79	29.1684
2144.35	25.8163
2146.91	25.4959
2149.47	26.8302
2152.03	25.0233
2154.58	32.2076
2157.14	31.9362
2159.7	26.736
2162.26	32.1159
2164.82	29.8156
2167.38	32.0187
2169.94	29.2635
2172.49	29.2669
2175.05	26.9798
2177.61	28.5594
2180.17	30.2465
2182.73	30.6312
2185.29	32.2007
2187.85	30.1562
2190.41	29.0737
2192.96	30.5346
2195.52	28.1908
2198.08	30.0409
2200.64	29.7358
2203.2	30.4791
2205.76	29.8913
2208.32	28.285
2210.87	29.8957
2213.43	32.5041
2215.99	31.0508
2218.55	32.2839
2221.11	32.3108
2223.67	34.2363
2226.23	33.406
2228.78	31.8368
2231.34	31.4857
2233.9	31.5796
2236.46	28.8365
2239.02	31.4068
2241.58	30.3106
2244.14	29.5267
2246.7	30.2967
2249.25	26.4744
2251.81	27.5297
2254.37	29.2614
2256.93	32.8302
2259.49	32.3718
2262.05	33.8955
2264.61	34.4163
2267.16	33.9639
2269.72	34.3412
2272.28	34.6511
2274.84	33.9351
2277.4	34.0919
2279.96	34.3653
2282.52	34.0324
2285.07	36.0496
2287.63	33.8745
2290.19	35.8738
2292.75	37.8598
2295.31	38.043
2297.87	36.3355
2300.43	34.8707
2302.99	35.4121
2305.54	34.5366
2308.1	30.8627
2310.66	33.8968
2313.22	37.9191
2315.78	35.949
2318.34	37.4927
2320.9	41.1684
2323.45	40.4737
2326.01	34.2874
2328.57	42.2978
2331.13	44.3851
2333.69	42.7248
2336.25	44.6043
2338.81	47.2282
2341.36	42.1054
2343.92	38.3048
2346.48	41.2951
2349.04	42.4787
2351.6	41.6432
2354.16	41.0291
2356.72	40.46
2359.28	38.0875
2361.83	39.2707
2364.39	40.7666
2366.95	40.8746
2369.51	48.0893
2372.07	44.7296
2374.63	42.1776
2377.19	42.4323
2379.74	47.7365
2382.3	47.4693
2384.86	46.6003
2387.42	47.0734
2389.98	46.2129
2392.54	46.2037
2395.1	49.6915
2397.65	47.1162
2400.21	49.2699
2402.77	48.1758
2405.33	44.6628
2407.89	46.211
2410.45	49.3781
2413.01	50.8434
2415.56	55.261
2418.12	54.7955
2420.68	54.1891
2423.24	53.1864
2425.8	58.6396
2428.36	60.2683
2430.92	61.1387
2433.48	62.8322
2436.03	73.8412
2438.59	74.3479
2441.15	76.8951
2443.71	73.9085
2446.27	71.7711
2448.83	72.4003
2451.39	68.3983
2453.94	65.3468
2456.5	64.2425
2459.06	63.8358
2461.62	65.9328
2464.18	65.9329
2466.74	64.8994
2469.3	63.536
2471.85	61.6509
2474.41	61.9593
2476.97	60.6092
2479.53	64.9289
2482.09	63.0804
2484.65	64.9389
2487.21	67.3818
2489.77	65.5966
2492.32	66.6995
2494.88	67.7318
2497.44	63.2761
2500	64.0579
2502.56	66.9618
2505.12	65.4936
2507.68	62.8525
2510.23	62.2932
2512.79	67.4034
2515.35	72.0073
2517.91	68.914
2520.47	67.433
2523.03	71.3593
2525.59	70.0116
2528.15	76.6437
2530.7	72.0859
2533.26	70.2515
2535.82	74.0556
2538.38	71.0426
2540.94	71.9484
2543.5	79.7839
2546.06	74.4227
2548.61	70.9633
2551.17	73.745
2553.73	76.5097
2556.29	76.3294
2558.85	76.7566
2561.41	80.0757
2563.97	83.7323
2566.52	76.7372
2569.08	76.1134
2571.64	75.9065
2574.2	80.7121
2576.76	82.7955
2579.32	80.5168
2581.88	80.1896
2584.44	78.8639
2586.99	78.0975
2589.55	84.9466
2592.11	80.6447
2594.67	79.5056
2597.23	82.0066
2599.79	82.9658
2602.35	81.6726
2604.9	78.1238
2607.46	87.6656
2610.02	87.4155
2612.58	84.5601
2615.14	87.4886
2617.7	84.8034
2620.26	82.8287
2622.81	89.6162
2625.37	87.8556
2627.93	85.1375
2630.49	88.3577
2633.05	90.0023
2635.61	87.7043
2638.17	84.0863
2640.72	87.4085
2643.28	88.5744
2645.84	88.294
2648.4	88.014
2650.96	87.5299
2653.52	88.8265
2656.08	92.3957
2658.64	87.4253
2661.19	91.739
2663.75	92.2992
2666.31	94.4696
2668.87	95.1639
2671.43	93.1299
2673.99	92.2698
2676.55	89.9013
2679.1	93.3001
2681.66	92.6978
2684.22	94.1403
2686.78	91.5503
2689.34	97.0417
2691.9	89.8065
2694.46	90.0491
2697.01	101.905
2699.57	92.5956
2702.13	99.2277
2704.69	97.4079
2707.25	100.442
2709.81	98.1869
2712.37	98.4503
2714.93	98.2903
2717.48	101.517
2720.04	98.3393
2722.6	100.311
2725.16	92.1941
2727.72	89.1197
2730.28	104.27
2732.84	102.079
2735.39	98.4595
2737.95	101.139
2740.51	97.9634
2743.07	102.194
2745.63	104.215
2748.19	98.6921
2750.75	102.343
2753.3	100.706
2755.86	98.6989
2758.42	101.268
2760.98	106.103
2763.54	97.593
2766.1	98.0639
2768.66	102.422
2771.22	106.159
2773.77	98.4496
2776.33	108.997
2778.89	105.19
2781.45	106.064
2784.01	101.058
2786.57	102.02
2789.13	106.565
2791.68	97.2493
2794.24	105.829
2796.8	106.804
2799.36	99.2278
2801.92	110.704
2804.48	106.646
2807.04	109.391
2809.59	106.299
2812.15	105.931
2814.71	106.105
2817.27	104.601
2819.83	105.473
2822.39	106.714
2824.95	99.9356
2827.51	107.033
2830.06	108.209
2832.62	102.456
2835.18	108.015
2837.74	114.267
2840.3	106.502
2842.86	106.713
2845.42	113.313
2847.97	113.823
2850.53	110.19
2853.09	108.094
2855.65	110.78
2858.21	108.04
2860.77	110.968
2863.33	109.815
2865.88	108.255
2868.44	100.052
2871	111.255
2873.56	112.598
2876.12	111.714
2878.68	111.498
2881.24	111.027
2883.8	113.165
2886.35	109.891
2888.91	113.755
2891.47	114.677
2894.03	118.285
2896.59	113.138
2899.15	112.065
2901.71	113.562
2904.26	111.972
2906.82	113.901
2909.38	118.896
2911.94	119.26
2914.5	116.667
2917.06	111.667
2919.62	116.914
2922.17	116.517
2924.73	117.182
2927.29	112.46
2929.85	111.543
2932.41	112.858
2934.97	117.911
2937.53	111.716
2940.09	116.094
2942.64	110.563
2945.2	111.462
2947.76	113.269
2950.32	115.493
2952.88	114.592
2955.44	108.692
2958	107.026
2960.55	108.682
2963.11	102.6
2965.67	110.467
2968.23	113.591
2970.79	113.763
2973.35	105.325
2975.91	98.0497
2978.46	99.1535
2981.02	105.315
2983.58	99.2202
2986.14	98.8062
2988.7	100.796
2991.26	96.6219
2993.82	99.5741
2996.38	93.3742
2998.93	95.4321
3001.49	96.7677
3004.05	95.9048
3006.61	96.0595
3009.17	97.0409
3011.73	91.2395
3014.29	94.3159
3016.84	94.631
3019.4	87.4009
3021.96	91.4764
3024.52	90.0467
3027.08	83.2772
3029.64	88.6736
3032.2	86.6619
3034.75	89.7428
3037.31	97.2764
3039.87	85.8312
3042.43	87.1583
3044.99	82.5988
3047.55	89.4951
3050.11	90.5481
3052.67	89.3083
3055.22	82.8556
3057.78	84.1841
3060.34	82.6393
3062.9	82.6856
3065.46	83.1566
3068.02	86.1278
3070.58	86.4449
3073.13	85.2558
3075.69	81.1934
3078.25	84.6179
3080.81	83.8914
3083.37	85.0921
3085.93	82.9366
3088.49	79.4812
3091.04	77.0806
3093.6	77.2966
3096.16	74.5297
3098.72	83.1525
3101.28	85.126
3103.84	77.5191
3106.4	80.4327
3108.96	75.4854
3111.51	80.4675
3114.07	73.7631
3116.63	76.0039
3119.19	76.5096
3121.75	75.231
3124.31	78.7416
3126.87	74.7762
3129.42	81.7765
3131.98	76.5596
3134.54	72.6152
3137.1	75.1968
3139.66	77.1411
3142.22	83.3843
3144.78	70.412
3147.33	75.9853
3149.89	79.1707
3152.45	74.871
3155.01	77.1744
3157.57	76.0095
3160.13	73.6933
3162.69	81.8004
3165.25	79.5868
3167.8	71.0004
3170.36	68.7557
3172.92	78.9827
3175.48	83.3286
3178.04	83.148
3180.6	76.2087
3183.16	80.5031
3185.71	79.7619
3188.27	68.1084
3190.83	73.357
3193.39	73.1703
3195.95	72.8968
3198.51	72.052
3201.07	72.0424
3203.62	71.7763
3206.18	75.8454
3208.74	72.4366
3211.3	69.5592
3213.86	71.4846
3216.42	72.4856
3218.98	73.56
3221.54	71.7044
3224.09	68.6783
3226.65	75.9055
3229.21	65.0835
3231.77	63.4792
3234.33	69.9331
3236.89	65.2582
3239.45	68.1182
3242	64.4374
3244.56	61.9792
3247.12	61.0297
3249.68	60.6862
3252.24	62.4839
3254.8	64.1703
3257.36	63.3028
3259.91	59.4402
3262.47	60.3762
3265.03	54.7035
3267.59	57.8696
3270.15	52.1802
3272.71	57.5181
3275.27	54.2333
3277.83	51.5577
3280.38	55.7919
3282.94	54.3078
3285.5	56.8804
3288.06	54.266
3290.62	54.947
3293.18	58.2924
3295.74	58.0216
3298.29	52.2417
3300.85	51.3861
3303.41	57.0617
3305.97	57.4128
3308.53	50.1813
3311.09	47.5038
3313.65	53.4797
3316.2	54.8706
3318.76	49.5585
3321.32	52.9185
3323.88	55.2213
3326.44	49.487
3329	48.5394
3331.56	48.6264
3334.12	53.624
3336.67	45.4479
3339.23	48.8702
3341.79	50.8519
3344.35	52.4852
3346.91	51.1781
3349.47	52.4317
3352.03	55.7928
3354.58	56.262
3357.14	46.6041
3359.7	49.0932
3362.26	50.9494
3364.82	54.5324
3367.38	49.3057
3369.94	45.627
3372.49	44.4783
3375.05	51.0596
3377.61	53.5376
3380.17	44.9686
3382.73	50.2696
3385.29	52.7041
3387.85	51.2401
3390.41	44.832
3392.96	52.6407
3395.52	48.552
3398.08	49.2913
3400.64	50.0215
3403.2	47.2655
3405.76	53.0427
3408.32	48.439
3410.87	48.9556
3413.43	50.5989
3415.99	49.8273
3418.55	47.2738
3421.11	46.8563
3423.67	52.8307
3426.23	51.4915
3428.78	52.5313
3431.34	57.5007
3433.9	55.6729
3436.46	47.481
3439.02	50.7156
3441.58	54.3514
3444.14	52.3247
3446.7	47.6811
3449.25	47.5084
3451.81	51.93
3454.37	52.3975
3456.93	51.1989
3459.49	52.5217
3462.05	52.6626
3464.61	44.9777
3467.16	52.4804
3469.72	49.2962
3472.28	50.2308
3474.84	47.9608
3477.4	42.9187
3479.96	58.448
3482.52	46.7038
3485.07	44.6987
3487.63	53.0806
3490.19	48.106
3492.75	59.7503
3495.31	53.0274
3497.87	47.9748
3500.43	49.8102
3502.99	57.9005
3505.54	51.5535
3508.1	50.6131
3510.66	48.6983
3513.22	49.8302
3515.78	44.8867
3518.34	48.196
3520.9	49.0667
3523.45	51.4589
3526.01	47.8355
3528.57	46.6666
3531.13	54.0207
3533.69	49.2539
3536.25	51.4489
3538.81	49.5589
3541.36	49.7175
3543.92	54.1594
3546.48	52.5111
3549.04	50.1992
3551.6	49.0416
3554.16	48.3526
3556.72	47.4996
3559.28	53.4392
3561.83	51.4562
3564.39	54.3943
3566.95	53.741
3569.51	52.1161
3572.07	45.7619
3574.63	55.1509
3577.19	49.5
3579.74	50.7231
3582.3	45.3852
3584.86	50.0459
3587.42	51.6595
3589.98	56.2741
3592.54	50.5538
3595.1	51.1113
3597.65	50.5261
3600.21	51.1902
3602.77	48.6672
3605.33	51.3873
3607.89	55.4309
3610.45	50.0802
3613.01	53.5823
3615.56	54.8187
3618.12	48.2527
3620.68	50.1305
3623.24	54.4906
3625.8	54.9512
3628.36	51.4045
3630.92	58.784
3633.48	56.4207
3636.03	53.1614
3638.59	52.9454
3641.15	49.8172
3643.71	54.7764
3646.27	52.4795
3648.83	53.7595
3651.39	54.3709
3653.94	55.4148
3656.5	54.6694
3659.06	52.1377
3661.62	54.2103
3664.18	50.9367
3666.74	54.0141
3669.3	53.1798
3671.85	55.538
3674.41	52.1989
3676.97	51.5271
3679.53	56.6299
3682.09	57.1177
3684.65	58.6912
3687.21	55.052
3689.77	53.7138
3692.32	61.6432
3694.88	55.3963
3697.44	52.2807
3700	51.2674