File: Example Data/Raman/Kara/12-20-10/C-Si-Graphene/2 bulk/CSGbulk2_1.txt
100	189.325
102.559	193.786
105.117	196.642
107.676	204.119
110.235	210.033
112.793	214.842
115.352	218.657
117.91	220.615
120.469	219.408
123.028	231.411
125.586	238.256
128.145	243.125
130.704	248.474
133.262	255.757
135.821	244.378
138.38	249.741
140.938	246.659
143.497	238.358
146.055	247.046
148.614	242.392
151.173	238.745
153.731	234.241
156.29	232.544
158.849	238.811
161.407	227.393
163.966	228.577
166.525	218.341
169.083	207.15
171.642	216.662
174.2	214.892
176.759	216.886
179.318	218.096
181.876	217.011
184.435	213.132
186.994	205.231
189.552	199.154
192.111	202.073
194.67	206.309
197.228	203.927
199.787	198.118
202.345	206.134
204.904	200.51
207.463	199.024
210.021	207.7
212.58	197.028
215.139	197.531
217.697	197.099
220.256	194.868
222.814	193.012
225.373	196.291
227.932	202.118
230.49	197.461
233.049	194.619
235.608	198.229
238.166	206.334
240.725	202.928
243.284	205.416
245.842	199.945
248.401	200.58
250.959	215.903
253.518	204.372
256.077	207.268
258.635	212.605
261.194	210.781
263.753	202.746
266.311	205.185
268.87	210.213
271.429	216.63
273.987	219.189
276.546	219.002
279.104	220.371
281.663	214.995
284.222	222.392
286.78	220.806
289.339	215.411
291.898	216.783
294.456	229.515
297.015	225.877
299.574	230.364
302.132	238.202
304.691	243.579
307.249	242.209
309.808	229.627
312.367	224.44
314.925	223.883
317.484	221.777
320.043	214.874
322.601	214.055
325.16	214
327.719	210.738
330.277	208.641
332.836	210.412
335.394	215.279
337.953	212.82
340.512	206.007
343.07	201.099
345.629	202.086
348.188	209.757
350.746	218.783
353.305	198.359
355.864	200.225
358.422	209.211
360.981	212.315
363.539	205.782
366.098	210.224
368.657	195.477
371.215	191.878
373.774	194.651
376.333	196.614
378.891	200.16
381.45	196.37
384.009	189.426
386.567	189.857
389.126	193.128
391.684	190.016
394.243	179.95
396.802	183.301
399.36	184.885
401.919	182.007
404.478	178.83
407.036	181.767
409.595	181.436
412.154	178.895
414.712	183.298
417.271	187.791
419.829	188.838
422.388	190.261
424.947	187.778
427.505	191.332
430.064	195.016
432.623	191.774
435.181	184.303
437.74	190.876
440.298	194.525
442.857	193.578
445.416	189.867
447.974	187.873
450.533	190.265
453.092	193.587
455.65	190.786
458.209	188.092
460.768	182.69
463.326	182.312
465.885	190.877
468.444	190.212
471.002	194.124
473.561	198.639
476.119	205.136
478.678	211.262
481.237	216.348
483.795	229.52
486.354	242.198
488.913	244.74
491.471	254.185
494.03	264.145
496.589	267.27
499.147	287.312
501.706	300.279
504.264	325.519
506.823	352.515
509.382	396.65
511.94	477.682
514.499	594.944
517.058	759.783
519.616	876.581
522.175	868.253
524.733	747.025
527.292	572.194
529.851	410.869
532.409	303.419
534.968	245.395
537.527	212.075
540.085	188.749
542.644	168.62
545.203	153.222
547.761	156.412
550.32	156.652
552.878	146.317
555.437	133.618
557.996	129.862
560.554	139.383
563.113	135.849
565.672	130.439
568.23	128.003
570.789	124.982
573.348	124.103
575.906	128.847
578.465	131.376
581.023	132.402
583.582	135.852
586.141	127.188
588.699	121.228
591.258	126.825
593.817	125.535
596.375	127.731
598.934	128.889
601.493	127.325
604.051	125.828
606.61	126.262
609.168	128.633
611.727	133.029
614.286	127.832
616.844	129.633
619.403	128.367
621.962	128.282
624.52	132.28
627.079	128.487
629.638	126.453
632.196	129.17
634.755	129.256
637.313	128.162
639.872	127.657
642.431	128.425
644.989	132.331
647.548	130.899
650.107	130.463
652.665	128.8
655.224	124.41
657.783	121.002
660.341	126.408
662.9	134.575
665.458	128.912
668.017	130.769
670.576	129.672
673.134	128.375
675.693	131.391
678.252	127.884
680.81	125.667
683.369	124.2
685.927	123.076
688.486	119.316
691.045	121.963
693.603	134.837
696.162	125.628
698.721	117.081
701.279	130.91
703.838	125.676
706.397	118.062
708.955	118.283
711.514	119.413
714.073	127.598
716.631	127.085
719.19	120.849
721.748	122.631
724.307	123.487
726.866	124.908
729.424	135.6
731.983	131.999
734.542	127.537
737.1	131.813
739.659	132.536
742.217	130.994
744.776	129.266
747.335	127.423
749.893	129.727
752.452	123.883
755.011	126.942
757.569	132.533
760.128	134.859
762.687	134.698
765.245	135.421
767.804	133.694
770.362	136.106
772.921	134.131
775.48	126.601
778.038	125.378
780.597	130.452
783.156	133.877
785.714	133.537
788.273	135.264
790.832	144.15
793.39	138.754
795.949	133.126
798.507	134.389
801.066	138.699
803.625	138.33
806.183	137.811
808.742	148.469
811.301	140.429
813.859	134.897
816.418	132.646
818.977	136.658
821.535	147.494
824.094	141.27
826.652	138.668
829.211	145.091
831.77	149.582
834.328	148.535
836.887	146.047
839.446	145.15
842.004	144.739
844.563	156.039
847.122	147.463
849.68	141.645
852.239	147.385
854.797	150.073
857.356	147.064
859.915	146.441
862.473	146.539
865.032	145.842
867.591	149.894
870.149	144.862
872.708	146.025
875.267	149.348
877.825	146.613
880.384	141.084
882.942	148.487
885.501	143.251
888.06	146.152
890.618	150.897
893.177	144.83
895.736	145.841
898.294	153.755
900.853	147.13
903.411	145.87
905.97	147.27
908.529	150.101
911.087	143.832
913.646	150.01
916.205	154.453
918.763	147.21
921.322	142.337
923.881	146.261
926.439	153.981
928.998	163.155
931.557	165.474
934.115	161.21
936.674	163.446
939.232	174.373
941.791	179.893
944.35	169.691
946.908	168.46
949.467	167.898
952.026	170.668
954.584	171.084
957.143	164.681
959.701	162.21
962.26	167.773
964.819	163.394
967.377	169.176
969.936	154.886
972.495	162.491
975.053	163.197
977.612	162.849
980.171	160.79
982.729	157.748
985.288	159.103
987.846	154.532
990.405	147.993
992.964	147.6
995.522	147.6
998.081	143.878
1000.64	141.594
1003.2	142.986
1005.76	144.385
1008.32	144.333
1010.87	154.689
1013.43	151.144
1015.99	150.96
1018.55	153.063
1021.11	152.735
1023.67	151.523
1026.23	154.56
1028.78	161.371
1031.34	163.402
1033.9	164.625
1036.46	153.961
1039.02	161.198
1041.58	160.947
1044.14	166.423
1046.7	169.465
1049.25	165.937
1051.81	162.01
1054.37	157.71
1056.93	162.538
1059.49	168.062
1062.05	172.947
1064.61	177.762
1067.16	179.282
1069.72	179.392
1072.28	180.422
1074.84	182.598
1077.4	185.595
1079.96	189.979
1082.52	193.016
1085.07	194.543
1087.63	193.479
1090.19	197.147
1092.75	204.516
1095.31	198.886
1097.87	189.245
1100.43	201.297
1102.99	209.225
1105.54	202.605
1108.1	215.695
1110.66	215.295
1113.22	218.665
1115.78	231.559
1118.34	235.715
1120.9	236.469
1123.45	242.765
1126.01	239.35
1128.57	238.986
1131.13	248.154
1133.69	266.6
1136.25	257.738
1138.81	256.962
1141.36	268.302
1143.92	282.058
1146.48	293.57
1149.04	303.732
1151.6	312.021
1154.16	320.435
1156.72	330.171
1159.28	333.218
1161.83	329.218
1164.39	334.163
1166.95	350.743
1169.51	367.953
1172.07	375.8
1174.63	380.197
1177.19	389.597
1179.74	388.255
1182.3	410.899
1184.86	400.951
1187.42	402.455
1189.98	414.143
1192.54	429.217
1195.1	427.901
1197.65	426.399
1200.21	433.971
1202.77	441.83
1205.33	461.295
1207.89	470.146
1210.45	469.421
1213.01	467.46
1215.57	491.678
1218.12	481.172
1220.68	485.93
1223.24	501.938
1225.8	512.822
1228.36	520.267
1230.92	531.31
1233.48	543.938
1236.03	529.996
1238.59	541.46
1241.15	561.067
1243.71	572.661
1246.27	573.87
1248.83	577.477
1251.39	579.682
1253.94	590.175
1256.5	611.446
1259.06	630.198
1261.62	639.847
1264.18	626.119
1266.74	650.873
1269.3	662.021
1271.85	678.173
1274.41	683.894
1276.97	670.876
1279.53	673.507
1282.09	689.57
1284.65	705.416
1287.21	727.325
1289.77	747.861
1292.32	735.477
1294.88	755.198
1297.44	740.166
1300	763.213
1302.56	775.659
1305.12	792.196
1307.68	798.52
1310.23	818.056
1312.79	824.942
1315.35	829.559
1317.91	850.152
1320.47	858.495
1323.03	862.967
1325.59	888.456
1328.15	889.29
1330.7	907.888
1333.26	906.976
1335.82	907.687
1338.38	920.149
1340.94	916.595
1343.5	930.934
1346.06	933.851
1348.61	915.834
1351.17	900.274
1353.73	879.477
1356.29	899.015
1358.85	893.38
1361.41	902.369
1363.97	894.421
1366.52	889.879
1369.08	880.179
1371.64	863.542
1374.2	857.097
1376.76	845.945
1379.32	845.067
1381.88	846.376
1384.43	829.549
1386.99	811.133
1389.55	794.213
1392.11	790.963
1394.67	771.714
1397.23	765.406
1399.79	757.12
1402.35	744.956
1404.9	736.103
1407.46	728.248
1410.02	725.723
1412.58	708.177
1415.14	697.381
1417.7	693.394
1420.26	684.482
1422.81	677.7
1425.37	641.493
1427.93	647.655
1430.49	642.672
1433.05	643.79
1435.61	638.622
1438.17	621.921
1440.72	635.943
1443.28	618.851
1445.84	603.113
1448.4	599.2
1450.96	597.626
1453.52	599.782
1456.08	596.279
1458.64	585.913
1461.19	581.392
1463.75	566.671
1466.31	594.172
1468.87	601.222
1471.43	562.584
1473.99	560.711
1476.55	560.776
1479.1	572.262
1481.66	582.06
1484.22	567.873
1486.78	576.416
1489.34	564.703
1491.9	561.543
1494.46	580.426
1497.01	583.908
1499.57	572.397
1502.13	562.349
1504.69	557.948
1507.25	566.327
1509.81	574.518
1512.37	557.48
1514.93	559.927
1517.48	573.526
1520.04	570.18
1522.6	564.612
1525.16	564.141
1527.72	570.826
1530.28	586.586
1532.84	593.401
1535.39	591.361
1537.95	593.755
1540.51	599.246
1543.07	611.632
1545.63	631.006
1548.19	633.827
1550.75	651.809
1553.3	660.118
1555.86	681.125
1558.42	698.302
1560.98	737.497
1563.54	765.351
1566.1	777.119
1568.66	799.348
1571.22	838.022
1573.77	866.18
1576.33	888.464
1578.89	919.822
1581.45	957.543
1584.01	992.991
1586.57	1027.29
1589.13	1061.28
1591.68	1088.9
1594.24	1107.34
1596.8	1117.42
1599.36	1125.83
1601.92	1143.88
1604.48	1121.72
1607.04	1071.42
1609.59	1111.09
1612.15	1061.57
1614.71	1009.79
1617.27	982.196
1619.83	934.19
1622.39	885.317
1624.95	835.431
1627.51	781.311
1630.06	736.416
1632.62	681.217
1635.18	632.912
1637.74	584.082
1640.3	538.778
1642.86	503.63
1645.42	467.271
1647.97	444.567
1650.53	429.955
1653.09	404.361
1655.65	375.465
1658.21	361.794
1660.77	349.459
1663.33	324.429
1665.88	304.229
1668.44	282.769
1671	271.638
1673.56	252.93
1676.12	249.104
1678.68	240.535
1681.24	238.035
1683.8	222.18
1686.35	203.585
1688.91	203.221
1691.47	199.931
1694.03	187.921
1696.59	184.044
1699.15	182.056
1701.71	177.29
1704.26	172.882
1706.82	170.086
1709.38	170.279
1711.94	166.308
1714.5	158.417
1717.06	152.513
1719.62	140.695
1722.17	136.933
1724.73	128.78
1727.29	137.492
1729.85	138.645
1732.41	141.718
1734.97	123.816
1737.53	120.744
1740.09	127.133
1742.64	128.158
1745.2	122.825
1747.76	117.205
1750.32	120.405
1752.88	114.659
1755.44	115.008
1758	109.981
1760.55	104.678
1763.11	111.415
1765.67	112.54
1768.23	110.547
1770.79	109.119
1773.35	109.803
1775.91	110.6
1778.46	105.901
1781.02	105.74
1783.58	109.988
1786.14	106.323
1788.7	101.464
1791.26	101.137
1793.82	104.944
1796.38	108.91
1798.93	105.103
1801.49	106.649
1804.05	100.142
1806.61	99.8938
1809.17	98.196
1811.73	94.1065
1814.29	96.9242
1816.84	102.375
1819.4	93.4257
1821.96	88.9344
1824.52	102.16
1827.08	92.5526
1829.64	100.239
1832.2	94.9825
1834.75	94.5629
1837.31	93.007
1839.87	95.3594
1842.43	90.9683
1844.99	89.1005
1847.55	98.0663
1850.11	96.9872
1852.67	93.7809
1855.22	90.2685
1857.78	84.3435
1860.34	86.9076
1862.9	91.6895
1865.46	92.4397
1868.02	86.9049
1870.58	90.9342
1873.13	87.479
1875.69	91.7001
1878.25	96.1122
1880.81	91.1979
1883.37	98.2274
1885.93	92.3532
1888.49	86.403
1891.04	81.4988
1893.6	86.6037
1896.16	92.3007
1898.72	93.8129
1901.28	91.6783
1903.84	92.5887
1906.4	92.3235
1908.96	90.1213
1911.51	88.2688
1914.07	85.3502
1916.63	85.7215
1919.19	88.2374
1921.75	84.5851
1924.31	82.4157
1926.87	82.9146
1929.42	85.8774
1931.98	89.7393
1934.54	86.0743
1937.1	81.7987
1939.66	82.2177
1942.22	83.4164
1944.78	84.314
1947.33	86.9132
1949.89	88.4253
1952.45	93.2157
1955.01	94.9675
1957.57	90.5096
1960.13	86.3383
1962.69	85.6455
1965.25	87.8794
1967.8	85.7418
1970.36	82.8037
1972.92	83.56
1975.48	86.4293
1978.04	85.5564
1980.6	82.9194
1983.16	83.1042
1985.71	76.009
1988.27	81.2581
1990.83	81.3819
1993.39	83.1473
1995.95	84.1021
1998.51	82.8543
2001.07	84.493
2003.62	94.6492
2006.18	90.9175
2008.74	88.2121
2011.3	88.9817
2013.86	86.3215
2016.42	85.7641
2018.98	90.2984
2021.54	87.017
2024.09	87.795
2026.65	88.4815
2029.21	88.8607
2031.77	82.5475
2034.33	81.4438
2036.89	82.3109
2039.45	83.48
2042	84.4977
2044.56	82.9962
2047.12	86.1755
2049.68	87.5511
2052.24	85.9526
2054.8	88.8689
2057.36	89.3794
2059.91	85.6494
2062.47	83.2915
2065.03	88.1871
2067.59	88.7109
2070.15	86.1817
2072.71	88.259
2075.27	84.4783
2077.83	85.1847
2080.38	89.3759
2082.94	88.9683
2085.5	83.9962
2088.06	81.9878
2090.62	82.1815
2093.18	80.4475
2095.74	79.8812
2098.29	85.8138
2100.85	82.7833
2103.41	81.1203
2105.97	84.8248
2108.53	87.4959
2111.09	81.478
2113.65	85.7053
2116.2	90.8439
2118.76	83.9679
2121.32	85.3711
2123.88	85.8576
2126.44	87.0311
2129	88.1517
2131.56	87.2598
2134.12	88.9481
2136.67	88.7116
2139.23	86.5391
2141.79	86.6945
2144.35	86.7829
2146.91	85.606
2149.47	89.2275
2152.03	92.8801
2154.58	90.3618
2157.14	81.5718
2159.7	88.2713
2162.26	92.7497
2164.82	86.0004
2167.38	88.5328
2169.94	88.4771
2172.49	92.8154
2175.05	93.015
2177.61	90.9368
2180.17	88.139
2182.73	91.4282
2185.29	86.7543
2187.85	88.2752
2190.41	89.0778
2192.96	89.1038
2195.52	90.2233
2198.08	90.962
2200.64	92.4192
2203.2	91.9956
2205.76	90.7846
2208.32	90.7625
2210.87	91.8733
2213.43	89.7138
2215.99	89.0891
2218.55	88.5739
2221.11	92.0246
2223.67	87.6101
2226.23	87.6861
2228.78	90.8386
2231.34	91.4434
2233.9	93.3298
2236.46	90.243
2239.02	87.7131
2241.58	88.3158
2244.14	89.9796
2246.7	93.5412
2249.25	99.8198
2251.81	97.1789
2254.37	89.8344
2256.93	98.4025
2259.49	96.5123
2262.05	91.0799
2264.61	89.7755
2267.16	89.8994
2269.72	94.8835
2272.28	98.2896
2274.84	103.109
2277.4	99.6698
2279.96	102.462
2282.52	100.56
2285.07	98.9166
2287.63	99.5282
2290.19	117.591
2292.75	101.529
2295.31	99.7346
2297.87	108.436
2300.43	100.36
2302.99	101.29
2305.54	103.442
2308.1	105.378
2310.66	101.512
2313.22	104.185
2315.78	106.427
2318.34	105.908
2320.9	107.177
2323.45	109.593
2326.01	102.005
2328.57	104.114
2331.13	105.608
2333.69	116.818
2336.25	120.14
2338.81	120.378
2341.36	114.019
2343.92	111.343
2346.48	109.762
2349.04	109.718
2351.6	111.013
2354.16	109.535
2356.72	110.309
2359.28	111.714
2361.83	110.444
2364.39	113.265
2366.95	108.477
2369.51	108.116
2372.07	115.502
2374.63	113.92
2377.19	116.955
2379.74	115.438
2382.3	117.487
2384.86	112.411
2387.42	118.445
2389.98	117.347
2392.54	121.96
2395.1	126.614
2397.65	125.11
2400.21	125.631
2402.77	121.089
2405.33	119.168
2407.89	120.347
2410.45	121.774
2413.01	130.685
2415.56	137.475
2418.12	125.599
2420.68	140.927
2423.24	139.245
2425.8	143.795
2428.36	148.51
2430.92	153.54
2433.48	162.389
2436.03	158.04
2438.59	172.936
2441.15	176.14
2443.71	174.782
2446.27	171.299
2448.83	173.482
2451.39	165.291
2453.94	164.826
2456.5	156.208
2459.06	148.72
2461.62	158.385
2464.18	155.945
2466.74	156.193
2469.3	155.384
2471.85	153.31
2474.41	154.217
2476.97	149.788
2479.53	151.121
2482.09	160.986
2484.65	161.117
2487.21	161.564
2489.77	157.652
2492.32	157.655
2494.88	154.856
2497.44	157.35
2500	166.238
2502.56	163.477
2505.12	151.145
2507.68	155.982
2510.23	166.859
2512.79	162.659
2515.35	166.983
2517.91	164.866
2520.47	169.496
2523.03	172.076
2525.59	165.954
2528.15	175.602
2530.7	169.445
2533.26	176.502
2535.82	169.235
2538.38	171.227
2540.94	172.515
2543.5	173.637
2546.06	169.949
2548.61	169.624
2551.17	175.112
2553.73	170.732
2556.29	181.625
2558.85	176.26
2561.41	176.552
2563.97	184.628
2566.52	179.27
2569.08	173.029
2571.64	181.442
2574.2	188.224
2576.76	182.387
2579.32	182.032
2581.88	183.221
2584.44	180.233
2586.99	181.106
2589.55	183.62
2592.11	185.247
2594.67	189.229
2597.23	188.612
2599.79	182.284
2602.35	186
2604.9	187.231
2607.46	192.604
2610.02	191.575
2612.58	186.888
2615.14	194.549
2617.7	195.071
2620.26	194.88
2622.81	192.831
2625.37	197.343
2627.93	191.524
2630.49	195.2
2633.05	196.368
2635.61	191.623
2638.17	203.478
2640.72	197.525
2643.28	200.673
2645.84	200.687
2648.4	202.204
2650.96	204.278
2653.52	211.256
2656.08	206.399
2658.64	206.02
2661.19	205.361
2663.75	213.127
2666.31	205.861
2668.87	210.411
2671.43	211.846
2673.99	205.542
2676.55	207.196
2679.1	208.883
2681.66	205.131
2684.22	205.529
2686.78	216.398
2689.34	212.457
2691.9	218.297
2694.46	213.834
2697.01	206.562
2699.57	209.923
2702.13	217.45
2704.69	219.844
2707.25	221.07
2709.81	221.615
2712.37	216.721
2714.93	220.509
2717.48	216.165
2720.04	215.526
2722.6	220.218
2725.16	221.988
2727.72	228.224
2730.28	220.968
2732.84	219.281
2735.39	219.014
2737.95	216.724
2740.51	218.686
2743.07	219.703
2745.63	224.752
2748.19	223.64
2750.75	221.508
2753.3	215.357
2755.86	222.796
2758.42	234.761
2760.98	241.392
2763.54	238.161
2766.1	234.788
2768.66	230.122
2771.22	222.937
2773.77	223.674
2776.33	225.731
2778.89	227.181
2781.45	226.95
2784.01	234.482
2786.57	230.944
2789.13	226.936
2791.68	226.701
2794.24	225.039
2796.8	225.643
2799.36	227.996
2801.92	235.176
2804.48	222.78
2807.04	226.628
2809.59	233.947
2812.15	231.19
2814.71	239.666
2817.27	240.364
2819.83	233.195
2822.39	236.768
2824.95	236.766
2827.51	241.699
2830.06	239.696
2832.62	236.942
2835.18	244.643
2837.74	246.48
2840.3	241.091
2842.86	239.098
2845.42	235
2847.97	233.864
2850.53	237.546
2853.09	236.816
2855.65	247.391
2858.21	242.461
2860.77	248.917
2863.33	251.122
2865.88	240.104
2868.44	237.04
2871	242.293
2873.56	246.832
2876.12	247.571
2878.68	240.851
2881.24	247.072
2883.8	246.621
2886.35	238.698
2888.91	246.655
2891.47	253.401
2894.03	247.195
2896.59	254.092
2899.15	251.065
2901.71	251.082
2904.26	250.224
2906.82	256.288
2909.38	251.393
2911.94	251.323
2914.5	257.546
2917.06	258.233
2919.62	243.804
2922.17	252.211
2924.73	247.335
2927.29	245.845
2929.85	258.783
2932.41	248.283
2934.97	251.08
2937.53	253.971
2940.09	253.579
2942.64	249.885
2945.2	257.774
2947.76	244.122
2950.32	245.575
2952.88	249.962
2955.44	244.562
2958	231.572
2960.55	238.07
2963.11	242.363
2965.67	238.018
2968.23	237.577
2970.79	236.03
2973.35	231.279
2975.91	224.384
2978.46	226.161
2981.02	229.701
2983.58	228.582
2986.14	224.687
2988.7	216.737
2991.26	218.875
2993.82	215.254
2996.38	208.258
2998.93	223.257
3001.49	201.66
3004.05	211.01
3006.61	203.647
3009.17	206.152
3011.73	204.645
3014.29	210.013
3016.84	210.87
3019.4	198.904
3021.96	195.552
3024.52	196.1
3027.08	200.646
3029.64	201.22
3032.2	193.27
3034.75	196.54
3037.31	193.685
3039.87	188.977
3042.43	192.908
3044.99	192.347
3047.55	193.798
3050.11	189.327
3052.67	196.78
3055.22	203.858
3057.78	192.43
3060.34	193.247
3062.9	191.833
3065.46	198.814
3068.02	196.088
3070.58	187.85
3073.13	189.144
3075.69	186.748
3078.25	189.928
3080.81	189.118
3083.37	189.223
3085.93	191.482
3088.49	184.077
3091.04	181.921
3093.6	182.827
3096.16	190.662
3098.72	182.363
3101.28	172.708
3103.84	175.034
3106.4	183.596
3108.96	176.992
3111.51	173.672
3114.07	186.353
3116.63	184.316
3119.19	182.766
3121.75	179.328
3124.31	177.25
3126.87	178.894
3129.42	170.927
3131.98	173.338
3134.54	173.27
3137.1	175.431
3139.66	176.818
3142.22	176.478
3144.78	173.859
3147.33	175.66
3149.89	173.335
3152.45	178.04
3155.01	176.169
3157.57	172.843
3160.13	173.737
3162.69	170.754
3165.25	177.402
3167.8	175.132
3170.36	177.685
3172.92	185.287
3175.48	166.104
3178.04	171.86
3180.6	174.735
3183.16	176.404
3185.71	175.949
3188.27	176.1
3190.83	182.866
3193.39	176.823
3195.95	169.905
3198.51	168.783
3201.07	176.056
3203.62	178.894
3206.18	177.021
3208.74	160.905
3211.3	163.166
3213.86	166.639
3216.42	164.028
3218.98	162.06
3221.54	162.345
3224.09	154.349
3226.65	159.174
3229.21	155.506
3231.77	156.158
3234.33	166.431
3236.89	152.771
3239.45	150.412
3242	146.986
3244.56	148.574
3247.12	147.637
3249.68	149.072
3252.24	151.959
3254.8	143.001
3257.36	148.538
3259.91	140.962
3262.47	137.008
3265.03	137.971
3267.59	148.05
3270.15	143.634
3272.71	139.814
3275.27	137.116
3277.83	129.311
3280.38	136.602
3282.94	130.157
3285.5	131.624
3288.06	137.191
3290.62	138.515
3293.18	125.363
3295.74	128.322
3298.29	124.248
3300.85	129.615
3303.41	130.905
3305.97	135.926
3308.53	128.254
3311.09	127.123
3313.65	126.279
3316.2	126.231
3318.76	133.27
3321.32	127.073
3323.88	109.656
3326.44	129.138
3329	128.261
3331.56	127.85
3334.12	130.4
3336.67	118.691
3339.23	122.152
3341.79	123.517
3344.35	122.462
3346.91	122.846
3349.47	120.258
3352.03	125.984
3354.58	117.061
3357.14	121.98
3359.7	127.708
3362.26	116.314
3364.82	120.896
3367.38	118.309
3369.94	117.665
3372.49	118.277
3375.05	117.297
3377.61	118.485
3380.17	121.109
3382.73	123.077
3385.29	121.372
3387.85	122.269
3390.41	126.607
3392.96	128.147
3395.52	126.077
3398.08	131.033
3400.64	126.322
3403.2	123.06
3405.76	122.43
3408.32	121.396
3410.87	117.7
3413.43	123.739
3415.99	118.506
3418.55	117.766
3421.11	125.372
3423.67	123.8
3426.23	124.559
3428.78	121.331
3431.34	122.832
3433.9	123.943
3436.46	120.484
3439.02	124.456
3441.58	124.856
3444.14	115.702
3446.7	118.967
3449.25	118.785
3451.81	126.414
3454.37	113.647
3456.93	127.443
3459.49	123.19
3462.05	123.042
3464.61	125.685
3467.16	121.6
3469.72	117.417
3472.28	121.702
3474.84	124.178
3477.4	119.895
3479.96	127.895
3482.52	120.274
3485.07	125.327
3487.63	122.714
3490.19	119.137
3492.75	123.376
3495.31	121.362
3497.87	121.48
3500.43	122.173
3502.99	129.329
3505.54	122.663
3508.1	119.829
3510.66	118.453
3513.22	120.045
3515.78	119.642
3518.34	119.487
3520.9	115.684
3523.45	122.055
3526.01	123.374
3528.57	116.481
3531.13	116.731
3533.69	122.967
3536.25	122.163
3538.81	120.715
3541.36	126.386
3543.92	129.898
3546.48	120.54
3549.04	118.957
3551.6	120.102
3554.16	123.371
3556.72	120.746
3559.28	121.83
3561.83	132.463
3564.39	125.828
3566.95	126.241
3569.51	131.196
3572.07	124.375
3574.63	128.924
3577.19	118.389
3579.74	127.216
3582.3	121.426
3584.86	122.181
3587.42	130.845
3589.98	121.605
3592.54	119.34
3595.1	130.131
3597.65	124.789
3600.21	123.195
3602.77	124.435
3605.33	120.891
3607.89	136.79
3610.45	127.514
3613.01	134.359
3615.56	131.312
3618.12	131.408
3620.68	122.774
3623.24	121.216
3625.8	117.677
3628.36	127.023
3630.92	120.904
3633.48	127.52
3636.03	129.93
3638.59	131.294
3641.15	129.919
3643.71	127.655
3646.27	126.817
3648.83	124.029
3651.39	131.002
3653.94	129.614
3656.5	126.017
3659.06	124.168
3661.62	119.007
3664.18	126.243
3666.74	127.851
3669.3	127.601
3671.85	122.633
3674.41	126.052
3676.97	131.301
3679.53	128.881
3682.09	138.056
3684.65	127.619
3687.21	125.785
3689.77	129.484
3692.32	131.423
3694.88	127.512
3697.44	120.887
3700	133.999