File: Example Data/Silver Reactive Inks/XRD/XRD/silver 80C.csv
[Measurement conditions]
Sample identification,
Comment - 1,"Configuration=Powder Diffraction, Owner=User-1, Creation date=6/3/2009 8:49:36 AM"
Comment - 2,"Goniometer=PW3050/65 (Theta/2Theta); Minimum step size 2Theta:0.0001; Minimum step size Omega:0.0001"
Comment - 3,"Sample stage=MRD Cradle; Minimum step size Phi:0.01; Minimum step size Chi:0.01; Minimum step size X:0.01; Minimum step size Y:0.01; Minimum step size Z:0.001"
Comment - 4,"Diffractometer system=XPERT-PRO"
Comment - 5,"Measurement program=C:\PANalytical\Data Collector\Programs\powder_scan_49.xrdmp, Identifier={12387B94-FF5E-46B4-B2C7-B6F75F9A12C1}"
Anode material,Cu
K-Alpha1 wavelength,1.5406
K-Alpha2 wavelength,1.54443
Ratio K-Alpha2/K-Alpha1,0.500
Divergence slit,Fixed,0.38mm
Monochromator used,NO
Generator voltage, 45
Tube current, 40
File date and time,08/Apr/2015 15:54
Unit cell,
h k l, 0 0 0
Scan axis,Gonio
Scan range,20,80.0102
Scan step size,0.0376004
No. of points, 1596
Scan type,CONTINUOUS
Phi,0.00
Psi,0.00
X,0.00
Y,0.00
Z,6.955
Time per step,63.500
[Scan points]
Angle,Intensity
20.0188,259.0
20.094,246.0
20.1692,280.0
20.2444,252.0
20.3196,265.0
20.3948,257.0
20.47,263.0
20.5452,300.0
20.6204,320.0
20.6956,306.0
20.7708,331.0
20.846,322.0
20.9212,326.0
20.9964,301.0
21.0716,338.0
21.1468,295.0
21.222,322.0
21.2972,306.0
21.3724,309.0
21.4476,275.0
21.5228,331.0
21.598,287.0
21.6732,281.0
21.7484,315.0
21.8236,304.0
21.8988,322.0
21.974,300.0
22.0492,301.0
22.1244,256.0
22.1996,324.0
22.2748,287.0
22.35,301.0
22.4252,305.0
22.5004,293.0
22.5756,306.0
22.6508,300.0
22.726,299.0
22.8012,273.0
22.8764,312.0
22.9516,289.0
23.0268,283.0
23.102,308.0
23.1772,332.0
23.2524,301.0
23.3276,295.0
23.4028,298.0
23.478,276.0
23.5532,288.0
23.6284,250.0
23.7036,302.0
23.7788,280.0
23.854,263.0
23.9292,272.0
24.0044,300.0
24.0796,274.0
24.1548,270.0
24.23,270.0
24.3052,278.0
24.3804,277.0
24.4556,268.0
24.5308,260.0
24.606,239.0
24.6812,269.0
24.7564,273.0
24.8316,279.0
24.9068,268.0
24.982,285.0
25.0572,239.0
25.1324,274.0
25.2076,264.0
25.2828,267.0
25.3581,260.0
25.4333,295.0
25.5085,249.0
25.5837,230.0
25.6589,243.0
25.7341,256.0
25.8093,255.0
25.8845,262.0
25.9597,243.0
26.0349,251.0
26.1101,259.0
26.1853,257.0
26.2605,255.0
26.3357,272.0
26.4109,240.0
26.4861,229.0
26.5613,224.0
26.6365,249.0
26.7117,244.0
26.7869,210.0
26.8621,225.0
26.9373,240.0
27.0125,211.0
27.0877,231.0
27.1629,227.0
27.2381,267.0
27.3133,203.0
27.3885,252.0
27.4637,211.0
27.5389,228.0
27.6141,214.0
27.6893,226.0
27.7645,248.0
27.8397,235.0
27.9149,206.0
27.9901,216.0
28.0653,204.0
28.1405,241.0
28.2157,232.0
28.2909,225.0
28.3661,224.0
28.4413,250.0
28.5165,250.0
28.5917,185.0
28.6669,214.0
28.7421,231.0
28.8173,206.0
28.8925,199.0
28.9677,187.0
29.0429,191.0
29.1181,209.0
29.1933,205.0
29.2685,193.0
29.3437,180.0
29.4189,188.0
29.4941,201.0
29.5693,221.0
29.6445,191.0
29.7197,177.0
29.7949,210.0
29.8701,183.0
29.9453,199.0
30.0205,173.0
30.0957,202.0
30.1709,200.0
30.2461,161.0
30.3213,185.0
30.3965,163.0
30.4717,206.0
30.5469,166.0
30.6221,184.0
30.6973,171.0
30.7725,202.0
30.8477,159.0
30.9229,202.0
30.9981,176.0
31.0733,174.0
31.1485,210.0
31.2237,196.0
31.2989,202.0
31.3741,179.0
31.4493,174.0
31.5245,189.0
31.5997,188.0
31.6749,156.0
31.7501,163.0
31.8253,152.0
31.9005,174.0
31.9757,169.0
32.0509,174.0
32.1261,184.0
32.2013,170.0
32.2765,188.0
32.3517,146.0
32.4269,175.0
32.5021,165.0
32.5773,158.0
32.6525,167.0
32.7277,185.0
32.8029,162.0
32.8781,178.0
32.9533,478.0
33.0285,341.0
33.1037,166.0
33.1789,163.0
33.2541,127.0
33.3293,179.0
33.4045,150.0
33.4797,169.0
33.5549,148.0
33.6301,149.0
33.7053,154.0
33.7805,148.0
33.8557,153.0
33.9309,146.0
34.0061,163.0
34.0813,154.0
34.1565,144.0
34.2317,163.0
34.3069,158.0
34.3821,159.0
34.4573,132.0
34.5325,154.0
34.6077,153.0
34.6829,140.0
34.7581,149.0
34.8333,169.0
34.9085,132.0
34.9837,134.0
35.0589,152.0
35.1341,138.0
35.2093,153.0
35.2845,127.0
35.3597,158.0
35.4349,154.0
35.5101,127.0
35.5853,117.0
35.6605,123.0
35.7357,138.0
35.8109,121.0
35.8861,150.0
35.9614,125.0
36.0366,144.0
36.1118,138.0
36.187,148.0
36.2622,134.0
36.3374,144.0
36.4126,156.0
36.4878,136.0
36.563,143.0
36.6382,159.0
36.7134,115.0
36.7886,157.0
36.8638,152.0
36.939,154.0
37.0142,136.0
37.0894,153.0
37.1646,136.0
37.2398,150.0
37.315,148.0
37.3902,153.0
37.4654,183.0
37.5406,188.0
37.6158,183.0
37.691,186.0
37.7662,214.0
37.8414,298.0
37.9166,469.0
37.9918,1011.0
38.067,3463.0
38.1422,3439.0
38.2174,2381.0
38.2926,748.0
38.3678,365.0
38.443,292.0
38.5182,272.0
38.5934,193.0
38.6686,158.0
38.7438,177.0
38.819,157.0
38.8942,158.0
38.9694,133.0
39.0446,144.0
39.1198,134.0
39.195,169.0
39.2702,115.0
39.3454,127.0
39.4206,125.0
39.4958,123.0
39.571,135.0
39.6462,122.0
39.7214,147.0
39.7966,135.0
39.8718,152.0
39.947,119.0
40.0222,122.0
40.0974,124.0
40.1726,113.0
40.2478,101.0
40.323,113.0
40.3982,111.0
40.4734,120.0
40.5486,120.0
40.6238,125.0
40.699,98.0
40.7742,121.0
40.8494,106.0
40.9246,99.0
40.9998,122.0
41.075,109.0
41.1502,125.0
41.2254,97.0
41.3006,97.0
41.3758,112.0
41.451,109.0
41.5262,102.0
41.6014,132.0
41.6766,122.0
41.7518,95.0
41.827,122.0
41.9022,112.0
41.9774,111.0
42.0526,112.0
42.1278,113.0
42.203,113.0
42.2782,114.0
42.3534,112.0
42.4286,120.0
42.5038,125.0
42.579,88.0
42.6542,125.0
42.7294,118.0
42.8046,137.0
42.8798,109.0
42.955,131.0
43.0302,130.0
43.1054,119.0
43.1806,143.0
43.2558,138.0
43.331,130.0
43.4062,131.0
43.4814,135.0
43.5566,135.0
43.6318,166.0
43.707,150.0
43.7822,152.0
43.8574,203.0
43.9326,216.0
44.0078,231.0
44.083,322.0
44.1582,563.0
44.2334,1214.0
44.3086,1485.0
44.3838,1184.0
44.459,715.0
44.5342,409.0
44.6094,260.0
44.6846,177.0
44.7598,165.0
44.835,138.0
44.9102,130.0
44.9854,97.0
45.0606,128.0
45.1358,128.0
45.211,132.0
45.2862,117.0
45.3614,117.0
45.4366,123.0
45.5118,113.0
45.587,127.0
45.6622,101.0
45.7374,106.0
45.8126,109.0
45.8878,110.0
45.963,131.0
46.0382,110.0
46.1134,128.0
46.1886,111.0
46.2638,111.0
46.339,112.0
46.4142,113.0
46.4894,119.0
46.5647,117.0
46.6399,101.0
46.7151,99.0
46.7903,119.0
46.8655,131.0
46.9407,93.0
47.0159,101.0
47.0911,76.0
47.1663,106.0
47.2415,128.0
47.3167,112.0
47.3919,97.0
47.4671,81.0
47.5423,80.0
47.6175,89.0
47.6927,106.0
47.7679,88.0
47.8431,88.0
47.9183,100.0
47.9935,89.0
48.0687,98.0
48.1439,97.0
48.2191,82.0
48.2943,82.0
48.3695,102.0
48.4447,102.0
48.5199,94.0
48.5951,107.0
48.6703,89.0
48.7455,104.0
48.8207,101.0
48.8959,75.0
48.9711,92.0
49.0463,88.0
49.1215,93.0
49.1967,95.0
49.2719,79.0
49.3471,78.0
49.4223,105.0
49.4975,88.0
49.5727,102.0
49.6479,79.0
49.7231,82.0
49.7983,99.0
49.8735,99.0
49.9487,94.0
50.0239,83.0
50.0991,93.0
50.1743,91.0
50.2495,94.0
50.3247,105.0
50.3999,86.0
50.4751,102.0
50.5503,62.0
50.6255,81.0
50.7007,106.0
50.7759,89.0
50.8511,86.0
50.9263,80.0
51.0015,84.0
51.0767,73.0
51.1519,72.0
51.2271,87.0
51.3023,76.0
51.3775,93.0
51.4527,96.0
51.5279,74.0
51.6031,104.0
51.6783,76.0
51.7535,89.0
51.8287,98.0
51.9039,93.0
51.9791,89.0
52.0543,74.0
52.1295,75.0
52.2047,93.0
52.2799,80.0
52.3551,89.0
52.4303,72.0
52.5055,84.0
52.5807,70.0
52.6559,69.0
52.7311,69.0
52.8063,98.0
52.8815,85.0
52.9567,82.0
53.0319,80.0
53.1071,78.0
53.1823,86.0
53.2575,74.0
53.3327,85.0
53.4079,80.0
53.4831,76.0
53.5583,76.0
53.6335,78.0
53.7087,89.0
53.7839,70.0
53.8591,62.0
53.9343,60.0
54.0095,58.0
54.0847,80.0
54.1599,78.0
54.2351,70.0
54.3103,91.0
54.3855,66.0
54.4607,85.0
54.5359,65.0
54.6111,81.0
54.6863,56.0
54.7615,78.0
54.8367,76.0
54.9119,85.0
54.9871,63.0
55.0623,61.0
55.1375,78.0
55.2127,73.0
55.2879,65.0
55.3631,69.0
55.4383,72.0
55.5135,74.0
55.5887,78.0
55.6639,71.0
55.7391,70.0
55.8143,72.0
55.8895,71.0
55.9647,81.0
56.0399,63.0
56.1151,86.0
56.1903,68.0
56.2655,61.0
56.3407,89.0
56.4159,58.0
56.4911,72.0
56.5663,73.0
56.6415,69.0
56.7167,68.0
56.7919,85.0
56.8671,68.0
56.9423,83.0
57.0175,57.0
57.0927,83.0
57.168,54.0
57.2432,68.0
57.3184,68.0
57.3936,54.0
57.4688,55.0
57.544,65.0
57.6192,59.0
57.6944,67.0
57.7696,56.0
57.8448,59.0
57.92,76.0
57.9952,74.0
58.0704,59.0
58.1456,67.0
58.2208,62.0
58.296,88.0
58.3712,67.0
58.4464,60.0
58.5216,56.0
58.5968,78.0
58.672,56.0
58.7472,65.0
58.8224,78.0
58.8976,69.0
58.9728,79.0
59.048,66.0
59.1232,70.0
59.1984,62.0
59.2736,73.0
59.3488,78.0
59.424,66.0
59.4992,58.0
59.5744,73.0
59.6496,56.0
59.7248,85.0
59.8,62.0
59.8752,88.0
59.9504,67.0
60.0256,67.0
60.1008,63.0
60.176,63.0
60.2512,72.0
60.3264,57.0
60.4016,75.0
60.4768,52.0
60.552,71.0
60.6272,66.0
60.7024,54.0
60.7776,87.0
60.8528,61.0
60.928,63.0
61.0032,79.0
61.0784,74.0
61.1536,73.0
61.2288,70.0
61.304,54.0
61.3792,78.0
61.4544,78.0
61.5296,74.0
61.6048,114.0
61.68,456.0
61.7552,121.0
61.8304,82.0
61.9056,67.0
61.9808,62.0
62.056,69.0
62.1312,56.0
62.2064,57.0
62.2816,62.0
62.3568,49.0
62.432,71.0
62.5072,82.0
62.5824,68.0
62.6576,66.0
62.7328,67.0
62.808,70.0
62.8832,78.0
62.9584,83.0
63.0336,72.0
63.1088,76.0
63.184,85.0
63.2592,61.0
63.3344,75.0
63.4096,70.0
63.4848,86.0
63.56,66.0
63.6352,75.0
63.7104,67.0
63.7856,93.0
63.8608,92.0
63.936,87.0
64.0112,101.0
64.0864,124.0
64.1616,159.0
64.2368,232.0
64.312,365.0
64.3872,858.0
64.4624,904.0
64.5376,629.0
64.6128,654.0
64.688,325.0
64.7632,166.0
64.8384,125.0
64.9136,113.0
64.9888,102.0
65.064,97.0
65.1392,87.0
65.2144,92.0
65.2896,81.0
65.3648,84.0
65.44,63.0
65.5152,86.0
65.5904,65.0
65.6656,70.0
65.7408,85.0
65.816,65.0
65.8912,65.0
65.9664,80.0
66.0416,78.0
66.1168,78.0
66.192,73.0
66.2672,76.0
66.3424,60.0
66.4176,107.0
66.4928,184.0
66.568,209.0
66.6432,202.0
66.7184,235.0
66.7936,218.0
66.8688,180.0
66.944,213.0
67.0192,235.0
67.0944,227.0
67.1696,225.0
67.2448,195.0
67.32,231.0
67.3952,234.0
67.4704,217.0
67.5456,255.0
67.6208,259.0
67.696,240.0
67.7712,267.0
67.8465,261.0
67.9217,237.0
67.9969,267.0
68.0721,268.0
68.1473,265.0
68.2225,307.0
68.2977,316.0
68.3729,358.0
68.4481,396.0
68.5233,429.0
68.5985,497.0
68.6737,718.0
68.7489,1293.0
68.8241,1777.0
68.8993,1722.0
68.9745,3410.0
69.0497,12089.0
69.1249,190145.0
69.2001,14039.0
69.2753,18101.0
69.3505,46996.0
69.4257,4007.0
69.5009,1700.0
69.5761,1135.0
69.6513,831.0
69.7265,677.0
69.8017,520.0
69.8769,485.0
69.9521,402.0
70.0273,412.0
70.1025,363.0
70.1777,358.0
70.2529,294.0
70.3281,296.0
70.4033,278.0
70.4785,286.0
70.5537,239.0
70.6289,244.0
70.7041,218.0
70.7793,210.0
70.8545,212.0
70.9297,201.0
71.0049,186.0
71.0801,172.0
71.1553,175.0
71.2305,218.0
71.3057,173.0
71.3809,202.0
71.4561,164.0
71.5313,166.0
71.6065,132.0
71.6817,165.0
71.7569,159.0
71.8321,185.0
71.9073,149.0
71.9825,160.0
72.0577,133.0
72.1329,140.0
72.2081,152.0
72.2833,145.0
72.3585,163.0
72.4337,137.0
72.5089,112.0
72.5841,144.0
72.6593,157.0
72.7345,125.0
72.8097,118.0
72.8849,125.0
72.9601,112.0
73.0353,135.0
73.1105,126.0
73.1857,135.0
73.2609,130.0
73.3361,132.0
73.4113,124.0
73.4865,138.0
73.5617,108.0
73.6369,127.0
73.7121,113.0
73.7873,134.0
73.8625,146.0
73.9377,123.0
74.0129,101.0
74.0881,113.0
74.1633,112.0
74.2385,120.0
74.3137,105.0
74.3889,118.0
74.4641,114.0
74.5393,120.0
74.6145,121.0
74.6897,127.0
74.7649,109.0
74.8401,118.0
74.9153,95.0
74.9905,113.0
75.0657,98.0
75.1409,105.0
75.2161,125.0
75.2913,110.0
75.3665,130.0
75.4417,106.0
75.5169,88.0
75.5921,112.0
75.6673,88.0
75.7425,114.0
75.8177,112.0
75.8929,105.0
75.9681,119.0
76.0433,98.0
76.1185,102.0
76.1937,121.0
76.2689,105.0
76.3441,123.0
76.4193,111.0
76.4945,111.0
76.5697,120.0
76.6449,104.0
76.7201,101.0
76.7953,105.0
76.8705,154.0
76.9457,164.0
77.0209,150.0
77.0961,217.0
77.1713,291.0
77.2465,437.0
77.3217,748.0
77.3969,1020.0
77.4721,664.0
77.5473,636.0
77.6225,656.0
77.6977,402.0
77.7729,254.0
77.8481,202.0
77.9233,115.0
77.9985,150.0
78.0737,125.0
78.1489,115.0
78.2241,98.0
78.2993,95.0
78.3745,100.0
78.4498,84.0
78.525,96.0
78.6002,92.0
78.6754,73.0
78.7506,100.0
78.8258,70.0
78.901,84.0
78.9762,81.0
79.0514,102.0
79.1266,74.0
79.2018,75.0
79.277,88.0
79.3522,73.0
79.4274,84.0
79.5026,91.0
79.5778,76.0
79.653,74.0
79.7282,75.0
79.8034,81.0
79.8786,75.0
79.9538,89.0
79.9914,69.0