File: Example Data/Silver Reactive Inks/XRD/XRD/silver 60C.csv
[Measurement conditions]
Sample identification,
Comment - 1,"Configuration=Powder Diffraction, Owner=User-1, Creation date=6/3/2009 8:49:36 AM"
Comment - 2,"Goniometer=PW3050/65 (Theta/2Theta); Minimum step size 2Theta:0.0001; Minimum step size Omega:0.0001"
Comment - 3,"Sample stage=MRD Cradle; Minimum step size Phi:0.01; Minimum step size Chi:0.01; Minimum step size X:0.01; Minimum step size Y:0.01; Minimum step size Z:0.001"
Comment - 4,"Diffractometer system=XPERT-PRO"
Comment - 5,"Measurement program=C:\PANalytical\Data Collector\Programs\powder_scan_49.xrdmp, Identifier={12387B94-FF5E-46B4-B2C7-B6F75F9A12C1}"
Anode material,Cu
K-Alpha1 wavelength,1.5406
K-Alpha2 wavelength,1.54443
Ratio K-Alpha2/K-Alpha1,0.500
Divergence slit,Fixed,0.38mm
Monochromator used,NO
Generator voltage, 45
Tube current, 40
File date and time,08/Apr/2015 15:29
Unit cell,
h k l, 0 0 0
Scan axis,Gonio
Scan range,20,80.0102
Scan step size,0.0376004
No. of points, 1596
Scan type,CONTINUOUS
Phi,0.00
Psi,0.00
X,0.00
Y,0.00
Z,6.947
Time per step,63.500
[Scan points]
Angle,Intensity
20.0188,231.0
20.094,203.0
20.1692,170.0
20.2444,195.0
20.3196,203.0
20.3948,216.0
20.47,164.0
20.5452,211.0
20.6204,215.0
20.6956,189.0
20.7708,189.0
20.846,209.0
20.9212,183.0
20.9964,201.0
21.0716,212.0
21.1468,230.0
21.222,214.0
21.2972,226.0
21.3724,209.0
21.4476,187.0
21.5228,208.0
21.598,215.0
21.6732,213.0
21.7484,213.0
21.8236,223.0
21.8988,189.0
21.974,215.0
22.0492,231.0
22.1244,189.0
22.1996,191.0
22.2748,193.0
22.35,184.0
22.4252,199.0
22.5004,221.0
22.5756,202.0
22.6508,176.0
22.726,190.0
22.8012,203.0
22.8764,205.0
22.9516,195.0
23.0268,198.0
23.102,208.0
23.1772,197.0
23.2524,231.0
23.3276,206.0
23.4028,203.0
23.478,190.0
23.5532,206.0
23.6284,211.0
23.7036,215.0
23.7788,230.0
23.854,213.0
23.9292,205.0
24.0044,214.0
24.0796,192.0
24.1548,199.0
24.23,199.0
24.3052,213.0
24.3804,184.0
24.4556,183.0
24.5308,229.0
24.606,203.0
24.6812,213.0
24.7564,210.0
24.8316,202.0
24.9068,190.0
24.982,201.0
25.0572,197.0
25.1324,191.0
25.2076,179.0
25.2828,190.0
25.3581,176.0
25.4333,216.0
25.5085,191.0
25.5837,212.0
25.6589,202.0
25.7341,190.0
25.8093,196.0
25.8845,184.0
25.9597,191.0
26.0349,176.0
26.1101,190.0
26.1853,185.0
26.2605,184.0
26.3357,178.0
26.4109,200.0
26.4861,195.0
26.5613,202.0
26.6365,175.0
26.7117,178.0
26.7869,193.0
26.8621,183.0
26.9373,159.0
27.0125,225.0
27.0877,180.0
27.1629,178.0
27.2381,189.0
27.3133,175.0
27.3885,172.0
27.4637,165.0
27.5389,178.0
27.6141,171.0
27.6893,183.0
27.7645,182.0
27.8397,173.0
27.9149,166.0
27.9901,157.0
28.0653,175.0
28.1405,187.0
28.2157,184.0
28.2909,184.0
28.3661,172.0
28.4413,201.0
28.5165,179.0
28.5917,170.0
28.6669,166.0
28.7421,186.0
28.8173,163.0
28.8925,172.0
28.9677,161.0
29.0429,164.0
29.1181,150.0
29.1933,186.0
29.2685,166.0
29.3437,169.0
29.4189,144.0
29.4941,183.0
29.5693,159.0
29.6445,183.0
29.7197,172.0
29.7949,161.0
29.8701,151.0
29.9453,171.0
30.0205,175.0
30.0957,164.0
30.1709,147.0
30.2461,166.0
30.3213,157.0
30.3965,160.0
30.4717,167.0
30.5469,145.0
30.6221,166.0
30.6973,176.0
30.7725,174.0
30.8477,126.0
30.9229,137.0
30.9981,152.0
31.0733,161.0
31.1485,149.0
31.2237,177.0
31.2989,152.0
31.3741,154.0
31.4493,136.0
31.5245,134.0
31.5997,149.0
31.6749,148.0
31.7501,134.0
31.8253,135.0
31.9005,125.0
31.9757,150.0
32.0509,150.0
32.1261,137.0
32.2013,145.0
32.2765,148.0
32.3517,133.0
32.4269,148.0
32.5021,164.0
32.5773,141.0
32.6525,128.0
32.7277,122.0
32.8029,152.0
32.8781,119.0
32.9533,532.0
33.0285,291.0
33.1037,119.0
33.1789,149.0
33.2541,166.0
33.3293,131.0
33.4045,121.0
33.4797,125.0
33.5549,143.0
33.6301,134.0
33.7053,135.0
33.7805,124.0
33.8557,110.0
33.9309,144.0
34.0061,113.0
34.0813,118.0
34.1565,137.0
34.2317,146.0
34.3069,136.0
34.3821,147.0
34.4573,135.0
34.5325,94.0
34.6077,119.0
34.6829,135.0
34.7581,124.0
34.8333,143.0
34.9085,113.0
34.9837,132.0
35.0589,128.0
35.1341,122.0
35.2093,162.0
35.2845,141.0
35.3597,117.0
35.4349,105.0
35.5101,102.0
35.5853,138.0
35.6605,109.0
35.7357,105.0
35.8109,123.0
35.8861,131.0
35.9614,127.0
36.0366,127.0
36.1118,113.0
36.187,150.0
36.2622,159.0
36.3374,150.0
36.4126,117.0
36.4878,135.0
36.563,140.0
36.6382,126.0
36.7134,118.0
36.7886,130.0
36.8638,133.0
36.939,143.0
37.0142,140.0
37.0894,132.0
37.1646,136.0
37.2398,159.0
37.315,150.0
37.3902,140.0
37.4654,156.0
37.5406,190.0
37.6158,203.0
37.691,210.0
37.7662,257.0
37.8414,328.0
37.9166,494.0
37.9918,1055.0
38.067,2818.0
38.1422,2610.0
38.2174,1863.0
38.2926,664.0
38.3678,353.0
38.443,289.0
38.5182,231.0
38.5934,188.0
38.6686,159.0
38.7438,188.0
38.819,149.0
38.8942,152.0
38.9694,159.0
39.0446,156.0
39.1198,146.0
39.195,130.0
39.2702,141.0
39.3454,147.0
39.4206,123.0
39.4958,113.0
39.571,110.0
39.6462,120.0
39.7214,133.0
39.7966,127.0
39.8718,125.0
39.947,115.0
40.0222,81.0
40.0974,117.0
40.1726,97.0
40.2478,113.0
40.323,122.0
40.3982,138.0
40.4734,109.0
40.5486,131.0
40.6238,122.0
40.699,114.0
40.7742,118.0
40.8494,127.0
40.9246,94.0
40.9998,119.0
41.075,118.0
41.1502,95.0
41.2254,92.0
41.3006,109.0
41.3758,126.0
41.451,99.0
41.5262,100.0
41.6014,93.0
41.6766,117.0
41.7518,105.0
41.827,119.0
41.9022,97.0
41.9774,113.0
42.0526,108.0
42.1278,95.0
42.203,99.0
42.2782,95.0
42.3534,108.0
42.4286,113.0
42.5038,96.0
42.579,96.0
42.6542,114.0
42.7294,107.0
42.8046,106.0
42.8798,114.0
42.955,118.0
43.0302,131.0
43.1054,135.0
43.1806,117.0
43.2558,115.0
43.331,111.0
43.4062,135.0
43.4814,119.0
43.5566,98.0
43.6318,141.0
43.707,146.0
43.7822,151.0
43.8574,162.0
43.9326,190.0
44.0078,272.0
44.083,319.0
44.1582,535.0
44.2334,1037.0
44.3086,1250.0
44.3838,975.0
44.459,603.0
44.5342,343.0
44.6094,224.0
44.6846,177.0
44.7598,164.0
44.835,148.0
44.9102,135.0
44.9854,124.0
45.0606,128.0
45.1358,101.0
45.211,128.0
45.2862,124.0
45.3614,110.0
45.4366,92.0
45.5118,94.0
45.587,101.0
45.6622,98.0
45.7374,93.0
45.8126,85.0
45.8878,110.0
45.963,95.0
46.0382,86.0
46.1134,95.0
46.1886,91.0
46.2638,96.0
46.339,87.0
46.4142,91.0
46.4894,97.0
46.5647,74.0
46.6399,97.0
46.7151,86.0
46.7903,92.0
46.8655,85.0
46.9407,84.0
47.0159,83.0
47.0911,85.0
47.1663,94.0
47.2415,71.0
47.3167,75.0
47.3919,78.0
47.4671,85.0
47.5423,81.0
47.6175,87.0
47.6927,76.0
47.7679,82.0
47.8431,87.0
47.9183,82.0
47.9935,70.0
48.0687,94.0
48.1439,71.0
48.2191,82.0
48.2943,93.0
48.3695,93.0
48.4447,70.0
48.5199,71.0
48.5951,75.0
48.6703,86.0
48.7455,75.0
48.8207,74.0
48.8959,68.0
48.9711,72.0
49.0463,84.0
49.1215,82.0
49.1967,81.0
49.2719,73.0
49.3471,75.0
49.4223,79.0
49.4975,78.0
49.5727,63.0
49.6479,76.0
49.7231,74.0
49.7983,94.0
49.8735,85.0
49.9487,73.0
50.0239,81.0
50.0991,82.0
50.1743,81.0
50.2495,68.0
50.3247,83.0
50.3999,75.0
50.4751,74.0
50.5503,87.0
50.6255,79.0
50.7007,80.0
50.7759,63.0
50.8511,81.0
50.9263,67.0
51.0015,74.0
51.0767,84.0
51.1519,58.0
51.2271,61.0
51.3023,83.0
51.3775,69.0
51.4527,62.0
51.5279,69.0
51.6031,61.0
51.6783,78.0
51.7535,58.0
51.8287,66.0
51.9039,85.0
51.9791,67.0
52.0543,81.0
52.1295,69.0
52.2047,54.0
52.2799,57.0
52.3551,54.0
52.4303,93.0
52.5055,58.0
52.5807,59.0
52.6559,75.0
52.7311,53.0
52.8063,62.0
52.8815,56.0
52.9567,83.0
53.0319,70.0
53.1071,63.0
53.1823,75.0
53.2575,62.0
53.3327,67.0
53.4079,63.0
53.4831,62.0
53.5583,58.0
53.6335,75.0
53.7087,70.0
53.7839,92.0
53.8591,59.0
53.9343,63.0
54.0095,62.0
54.0847,54.0
54.1599,82.0
54.2351,67.0
54.3103,66.0
54.3855,57.0
54.4607,74.0
54.5359,82.0
54.6111,70.0
54.6863,75.0
54.7615,74.0
54.8367,72.0
54.9119,69.0
54.9871,52.0
55.0623,53.0
55.1375,70.0
55.2127,70.0
55.2879,78.0
55.3631,60.0
55.4383,49.0
55.5135,61.0
55.5887,68.0
55.6639,61.0
55.7391,56.0
55.8143,78.0
55.8895,66.0
55.9647,67.0
56.0399,68.0
56.1151,58.0
56.1903,81.0
56.2655,72.0
56.3407,78.0
56.4159,52.0
56.4911,73.0
56.5663,68.0
56.6415,56.0
56.7167,47.0
56.7919,56.0
56.8671,56.0
56.9423,46.0
57.0175,50.0
57.0927,58.0
57.168,55.0
57.2432,55.0
57.3184,67.0
57.3936,61.0
57.4688,54.0
57.544,54.0
57.6192,63.0
57.6944,56.0
57.7696,55.0
57.8448,65.0
57.92,66.0
57.9952,67.0
58.0704,57.0
58.1456,60.0
58.2208,66.0
58.296,58.0
58.3712,60.0
58.4464,57.0
58.5216,56.0
58.5968,60.0
58.672,57.0
58.7472,55.0
58.8224,49.0
58.8976,63.0
58.9728,61.0
59.048,68.0
59.1232,62.0
59.1984,60.0
59.2736,54.0
59.3488,59.0
59.424,56.0
59.4992,56.0
59.5744,68.0
59.6496,66.0
59.7248,62.0
59.8,54.0
59.8752,65.0
59.9504,52.0
60.0256,66.0
60.1008,61.0
60.176,54.0
60.2512,65.0
60.3264,49.0
60.4016,66.0
60.4768,68.0
60.552,58.0
60.6272,47.0
60.7024,56.0
60.7776,48.0
60.8528,56.0
60.928,53.0
61.0032,61.0
61.0784,60.0
61.1536,62.0
61.2288,55.0
61.304,54.0
61.3792,47.0
61.4544,63.0
61.5296,83.0
61.6048,131.0
61.68,611.0
61.7552,126.0
61.8304,71.0
61.9056,62.0
61.9808,76.0
62.056,60.0
62.1312,55.0
62.2064,59.0
62.2816,69.0
62.3568,62.0
62.432,55.0
62.5072,55.0
62.5824,78.0
62.6576,75.0
62.7328,65.0
62.808,74.0
62.8832,75.0
62.9584,71.0
63.0336,57.0
63.1088,67.0
63.184,59.0
63.2592,61.0
63.3344,66.0
63.4096,69.0
63.4848,69.0
63.56,59.0
63.6352,65.0
63.7104,66.0
63.7856,59.0
63.8608,78.0
63.936,87.0
64.0112,93.0
64.0864,144.0
64.1616,141.0
64.2368,192.0
64.312,358.0
64.3872,717.0
64.4624,735.0
64.5376,575.0
64.6128,534.0
64.688,334.0
64.7632,198.0
64.8384,148.0
64.9136,108.0
64.9888,78.0
65.064,86.0
65.1392,91.0
65.2144,65.0
65.2896,83.0
65.3648,75.0
65.44,62.0
65.5152,63.0
65.5904,61.0
65.6656,76.0
65.7408,65.0
65.816,71.0
65.8912,68.0
65.9664,74.0
66.0416,60.0
66.1168,65.0
66.192,75.0
66.2672,73.0
66.3424,74.0
66.4176,86.0
66.4928,257.0
66.568,277.0
66.6432,280.0
66.7184,280.0
66.7936,256.0
66.8688,281.0
66.944,295.0
67.0192,304.0
67.0944,269.0
67.1696,270.0
67.2448,321.0
67.32,285.0
67.3952,299.0
67.4704,279.0
67.5456,299.0
67.6208,298.0
67.696,289.0
67.7712,318.0
67.8465,334.0
67.9217,332.0
67.9969,325.0
68.0721,347.0
68.1473,393.0
68.2225,421.0
68.2977,424.0
68.3729,464.0
68.4481,546.0
68.5233,636.0
68.5985,749.0
68.6737,1000.0
68.7489,1915.0
68.8241,2420.0
68.8993,2500.0
68.9745,4873.0
69.0497,20554.0
69.1249,272528.0
69.2001,17155.0
69.2753,38735.0
69.3505,46742.0
69.4257,5251.0
69.5009,2338.0
69.5761,1590.0
69.6513,1128.0
69.7265,915.0
69.8017,807.0
69.8769,603.0
69.9521,528.0
70.0273,523.0
70.1025,449.0
70.1777,443.0
70.2529,399.0
70.3281,395.0
70.4033,329.0
70.4785,329.0
70.5537,328.0
70.6289,303.0
70.7041,293.0
70.7793,283.0
70.8545,255.0
70.9297,264.0
71.0049,247.0
71.0801,277.0
71.1553,249.0
71.2305,248.0
71.3057,211.0
71.3809,242.0
71.4561,205.0
71.5313,199.0
71.6065,202.0
71.6817,178.0
71.7569,211.0
71.8321,195.0
71.9073,188.0
71.9825,177.0
72.0577,179.0
72.1329,204.0
72.2081,172.0
72.2833,172.0
72.3585,177.0
72.4337,185.0
72.5089,172.0
72.5841,156.0
72.6593,177.0
72.7345,189.0
72.8097,157.0
72.8849,151.0
72.9601,159.0
73.0353,159.0
73.1105,169.0
73.1857,167.0
73.2609,149.0
73.3361,148.0
73.4113,137.0
73.4865,138.0
73.5617,169.0
73.6369,164.0
73.7121,157.0
73.7873,140.0
73.8625,138.0
73.9377,146.0
74.0129,145.0
74.0881,131.0
74.1633,133.0
74.2385,148.0
74.3137,174.0
74.3889,132.0
74.4641,110.0
74.5393,130.0
74.6145,128.0
74.6897,149.0
74.7649,132.0
74.8401,136.0
74.9153,137.0
74.9905,147.0
75.0657,136.0
75.1409,130.0
75.2161,136.0
75.2913,136.0
75.3665,138.0
75.4417,118.0
75.5169,130.0
75.5921,138.0
75.6673,118.0
75.7425,132.0
75.8177,125.0
75.8929,122.0
75.9681,109.0
76.0433,131.0
76.1185,134.0
76.1937,151.0
76.2689,132.0
76.3441,128.0
76.4193,131.0
76.4945,127.0
76.5697,167.0
76.6449,126.0
76.7201,145.0
76.7953,166.0
76.8705,160.0
76.9457,184.0
77.0209,180.0
77.0961,256.0
77.1713,314.0
77.2465,446.0
77.3217,731.0
77.3969,793.0
77.4721,594.0
77.5473,514.0
77.6225,506.0
77.6977,391.0
77.7729,262.0
77.8481,186.0
77.9233,157.0
77.9985,124.0
78.0737,148.0
78.1489,128.0
78.2241,138.0
78.2993,120.0
78.3745,105.0
78.4498,114.0
78.525,141.0
78.6002,110.0
78.6754,93.0
78.7506,96.0
78.8258,111.0
78.901,96.0
78.9762,92.0
79.0514,108.0
79.1266,97.0
79.2018,85.0
79.277,104.0
79.3522,95.0
79.4274,78.0
79.5026,122.0
79.5778,87.0
79.653,110.0
79.7282,92.0
79.8034,117.0
79.8786,112.0
79.9538,111.0
79.9914,94.0